{"_links": {"parentClass": {"href": "/mdr/sendig/dart-1-2/classes/Findings", "title": "Findings Observation Class", "type": "Class"}, "parentProduct": {"href": "/mdr/sendig/dart-1-2", "title": "Standard for Exchange of Nonclinical Data Implementation Guide: Developmental and Reproductive Toxicology Version 1.2", "type": "Implementation Guide"}, "self": {"href": "/mdr/sendig/dart-1-2/datasets/DP", "title": "Developmental Milestone Test Results", "type": "SDTM Dataset"}}, "datasetStructure": "One record per test per observation time per subject", "datasetVariables": [{"_links": {"modelClassVariable": {"href": "/mdr/sdtm/1-6/classes/GeneralObservations/variables/STUDYID", "title": "Study Identifier", "type": "Class Variable"}, "parentDataset": {"href": "/mdr/sendig/dart-1-2/datasets/DP", "title": "Developmental Milestone Test Results", "type": "SDTM Dataset"}, "parentProduct": {"href": "/mdr/sendig/dart-1-2", "title": "Standard for Exchange of Nonclinical Data Implementation Guide: Developmental and Reproductive Toxicology Version 1.2", "type": "Implementation Guide"}, "rootItem": {"href": "/mdr/root/sendig/datasets/DP/variables/STUDYID", "title": "Version-agnostic anchor resource for SENDIG variable DP.STUDYID", "type": "Root Data Element"}, "self": {"href": "/mdr/sendig/dart-1-2/datasets/DP/variables/STUDYID", "title": "Study Identifier", "type": "SDTM Dataset Variable"}}, "core": "Req", "description": "Unique identifier for a study.", "label": "Study Identifier", "name": "STUDYID", "ordinal": "1", "role": "Identifier", "simpleDatatype": "Char"}, {"_links": {"modelClassVariable": {"href": "/mdr/sdtm/1-6/classes/GeneralObservations/variables/DOMAIN", "title": "Domain Abbreviation", "type": "Class Variable"}, "parentDataset": {"href": "/mdr/sendig/dart-1-2/datasets/DP", "title": "Developmental Milestone Test Results", "type": "SDTM Dataset"}, "parentProduct": {"href": "/mdr/sendig/dart-1-2", "title": "Standard for Exchange of Nonclinical Data Implementation Guide: Developmental and Reproductive Toxicology Version 1.2", "type": "Implementation Guide"}, "rootItem": {"href": "/mdr/root/sendig/datasets/DP/variables/DOMAIN", "title": "Version-agnostic anchor resource for SENDIG variable DP.DOMAIN", "type": "Root Data Element"}, "self": {"href": "/mdr/sendig/dart-1-2/datasets/DP/variables/DOMAIN", "title": "Domain Abbreviation", "type": "SDTM Dataset Variable"}}, "core": "Req", "description": "Two-character abbreviation for the domain.", "label": "Domain Abbreviation", "name": "DOMAIN", "ordinal": "2", "role": "Identifier", "simpleDatatype": "Char", "valueList": ["DP"]}, {"_links": {"modelClassVariable": {"href": "/mdr/sdtm/1-6/classes/GeneralObservations/variables/USUBJID", "title": "Unique Subject Identifier", "type": "Class Variable"}, "parentDataset": {"href": "/mdr/sendig/dart-1-2/datasets/DP", "title": "Developmental Milestone Test Results", "type": "SDTM Dataset"}, "parentProduct": {"href": "/mdr/sendig/dart-1-2", "title": "Standard for Exchange of Nonclinical Data Implementation Guide: Developmental and Reproductive Toxicology Version 1.2", "type": "Implementation Guide"}, "rootItem": {"href": "/mdr/root/sendig/datasets/DP/variables/USUBJID", "title": "Version-agnostic anchor resource for SENDIG variable DP.USUBJID", "type": "Root Data Element"}, "self": {"href": "/mdr/sendig/dart-1-2/datasets/DP/variables/USUBJID", "title": "Unique Subject Identifier", "type": "SDTM Dataset Variable"}}, "core": "Req", "description": "Identifier used to uniquely identify a subject across all studies for all applications or submissions involving the product.", "label": "Unique Subject Identifier", "name": "USUBJID", "ordinal": "3", "role": "Identifier", "simpleDatatype": "Char"}, {"_links": {"modelClassVariable": {"href": "/mdr/sdtm/1-6/classes/GeneralObservations/variables/--SEQ", "title": "Sequence Number", "type": "Class Variable"}, "parentDataset": {"href": "/mdr/sendig/dart-1-2/datasets/DP", "title": "Developmental Milestone Test Results", "type": "SDTM Dataset"}, "parentProduct": {"href": "/mdr/sendig/dart-1-2", "title": "Standard for Exchange of Nonclinical Data Implementation Guide: Developmental and Reproductive Toxicology Version 1.2", "type": "Implementation Guide"}, "rootItem": {"href": "/mdr/root/sendig/datasets/DP/variables/DPSEQ", "title": "Version-agnostic anchor resource for SENDIG variable DP.DPSEQ", "type": "Root Data Element"}, "self": {"href": "/mdr/sendig/dart-1-2/datasets/DP/variables/DPSEQ", "title": "Sequence Number", "type": "SDTM Dataset Variable"}}, "core": "Req", "description": "Sequence number given to ensure uniqueness of subject records within a domain. May be any valid number.", "label": "Sequence Number", "name": "DPSEQ", "ordinal": "4", "role": "Identifier", "simpleDatatype": "Num"}, {"_links": {"modelClassVariable": {"href": "/mdr/sdtm/1-6/classes/GeneralObservations/variables/--GRPID", "title": "Group ID", "type": "Class Variable"}, "parentDataset": {"href": "/mdr/sendig/dart-1-2/datasets/DP", "title": "Developmental Milestone Test Results", "type": "SDTM Dataset"}, "parentProduct": {"href": "/mdr/sendig/dart-1-2", "title": "Standard for Exchange of Nonclinical Data Implementation Guide: Developmental and Reproductive Toxicology Version 1.2", "type": "Implementation Guide"}, "rootItem": {"href": "/mdr/root/sendig/datasets/DP/variables/DPGRPID", "title": "Version-agnostic anchor resource for SENDIG variable DP.DPGRPID", "type": "Root Data Element"}, "self": {"href": "/mdr/sendig/dart-1-2/datasets/DP/variables/DPGRPID", "title": "Group ID", "type": "SDTM Dataset Variable"}}, "core": "Perm", "description": "Used to tie together a block of related records in a single domain for a subject. This is not the treatment group number.", "label": "Group ID", "name": "DPGRPID", "ordinal": "5", "role": "Identifier", "simpleDatatype": "Char"}, {"_links": {"modelClassVariable": {"href": "/mdr/sdtm/1-6/classes/Findings/variables/--TESTCD", "title": "Short Name of Measurement, Test or Examination", "type": "Class Variable"}, "parentDataset": {"href": "/mdr/sendig/dart-1-2/datasets/DP", "title": "Developmental Milestone Test Results", "type": "SDTM Dataset"}, "parentProduct": {"href": "/mdr/sendig/dart-1-2", "title": "Standard for Exchange of Nonclinical Data Implementation Guide: Developmental and Reproductive Toxicology Version 1.2", "type": "Implementation Guide"}, "rootItem": {"href": "/mdr/root/sendig/datasets/DP/variables/DPTESTCD", "title": "Version-agnostic anchor resource for SENDIG variable DP.DPTESTCD", "type": "Root Data Element"}, "self": {"href": "/mdr/sendig/dart-1-2/datasets/DP/variables/DPTESTCD", "title": "Test Short Name", "type": "SDTM Dataset Variable"}}, "codelistSubmissionValues": ["DPTESTCD"], "core": "Req", "description": "Short name of the measurement, test, or examination described in DPTEST. It can be used as a column name when converting a dataset from a vertical to a horizontal format. The value in DPTESTCD cannot be longer than 8 characters, nor can it start with a number. DPTESTCD cannot contain characters other than letters, numbers, or underscores.", "label": "Test Short Name", "name": "DPTESTCD", "ordinal": "6", "role": "Topic", "simpleDatatype": "Char"}, {"_links": {"modelClassVariable": {"href": "/mdr/sdtm/1-6/classes/Findings/variables/--TEST", "title": "Name of Measurement, Test or Examination", "type": "Class Variable"}, "parentDataset": {"href": "/mdr/sendig/dart-1-2/datasets/DP", "title": "Developmental Milestone Test Results", "type": "SDTM Dataset"}, "parentProduct": {"href": "/mdr/sendig/dart-1-2", "title": "Standard for Exchange of Nonclinical Data Implementation Guide: Developmental and Reproductive Toxicology Version 1.2", "type": "Implementation Guide"}, "rootItem": {"href": "/mdr/root/sendig/datasets/DP/variables/DPTEST", "title": "Version-agnostic anchor resource for SENDIG variable DP.DPTEST", "type": "Root Data Element"}, "self": {"href": "/mdr/sendig/dart-1-2/datasets/DP/variables/DPTEST", "title": "Developmental Milestone Test Name", "type": "SDTM Dataset Variable"}}, "codelistSubmissionValues": ["DPTEST"], "core": "Req", "description": "Long Name for DPTESTCD. The value in DPTEST cannot be longer than 40 characters. \\n", "label": "Developmental Milestone Test Name", "name": "DPTEST", "ordinal": "7", "role": "Synonym Qualifier", "simpleDatatype": "Char"}, {"_links": {"modelClassVariable": {"href": "/mdr/sdtm/1-6/classes/Findings/variables/--ORRES", "title": "Result or Finding in Original Units", "type": "Class Variable"}, "parentDataset": {"href": "/mdr/sendig/dart-1-2/datasets/DP", "title": "Developmental Milestone Test Results", "type": "SDTM Dataset"}, "parentProduct": {"href": "/mdr/sendig/dart-1-2", "title": "Standard for Exchange of Nonclinical Data Implementation Guide: Developmental and Reproductive Toxicology Version 1.2", "type": "Implementation Guide"}, "rootItem": {"href": "/mdr/root/sendig/datasets/DP/variables/DPORRES", "title": "Version-agnostic anchor resource for SENDIG variable DP.DPORRES", "type": "Root Data Element"}, "self": {"href": "/mdr/sendig/dart-1-2/datasets/DP/variables/DPORRES", "title": "Result or Findings as Collected", "type": "SDTM Dataset Variable"}}, "core": "Exp", "description": "Result of the measurement or finding as originally received or collected.", "label": "Result or Findings as Collected", "name": "DPORRES", "ordinal": "8", "role": "Result Qualifier", "simpleDatatype": "Char"}, {"_links": {"modelClassVariable": {"href": "/mdr/sdtm/1-6/classes/Findings/variables/--STRESC", "title": "Result or Finding in Standard Format", "type": "Class Variable"}, "parentDataset": {"href": "/mdr/sendig/dart-1-2/datasets/DP", "title": "Developmental Milestone Test Results", "type": "SDTM Dataset"}, "parentProduct": {"href": "/mdr/sendig/dart-1-2", "title": "Standard for Exchange of Nonclinical Data Implementation Guide: Developmental and Reproductive Toxicology Version 1.2", "type": "Implementation Guide"}, "rootItem": {"href": "/mdr/root/sendig/datasets/DP/variables/DPSTRESC", "title": "Version-agnostic anchor resource for SENDIG variable DP.DPSTRESC", "type": "Root Data Element"}, "self": {"href": "/mdr/sendig/dart-1-2/datasets/DP/variables/DPSTRESC", "title": "Standardized Results in Character Format", "type": "SDTM Dataset Variable"}}, "codelistSubmissionValues": ["DPFINDRS"], "core": "Exp", "description": "Contains the result value for all findings, copied or derived from DPORRES in a standard format or in standard units. DPSTRESC should store all results or findings in character format.", "label": "Standardized Results in Character Format", "name": "DPSTRESC", "ordinal": "9", "role": "Result Qualifier", "simpleDatatype": "Char"}, {"_links": {"codelist": [{"href": "/mdr/root/ct/sendct/codelists/C66789", "title": "Version-agnostic anchor resource for codelist C66789", "type": "Root Value Domain"}], "modelClassVariable": {"href": "/mdr/sdtm/1-6/classes/Findings/variables/--STAT", "title": "Completion Status", "type": "Class Variable"}, "parentDataset": {"href": "/mdr/sendig/dart-1-2/datasets/DP", "title": "Developmental Milestone Test Results", "type": "SDTM Dataset"}, "parentProduct": {"href": "/mdr/sendig/dart-1-2", "title": "Standard for Exchange of Nonclinical Data Implementation Guide: Developmental and Reproductive Toxicology Version 1.2", "type": "Implementation Guide"}, "rootItem": {"href": "/mdr/root/sendig/datasets/DP/variables/DPSTAT", "title": "Version-agnostic anchor resource for SENDIG variable DP.DPSTAT", "type": "Root Data Element"}, "self": {"href": "/mdr/sendig/dart-1-2/datasets/DP/variables/DPSTAT", "title": "Completion Status", "type": "SDTM Dataset Variable"}}, "codelistSubmissionValues": ["ND"], "core": "Perm", "description": "Used to indicate when a test is not done, or result is missing. Should be null if a result exists in DPORRES.", "label": "Completion Status", "name": "DPSTAT", "ordinal": "10", "role": "Record Qualifier", "simpleDatatype": "Char"}, {"_links": {"modelClassVariable": {"href": "/mdr/sdtm/1-6/classes/Findings/variables/--REASND", "title": "Reason Not Done", "type": "Class Variable"}, "parentDataset": {"href": "/mdr/sendig/dart-1-2/datasets/DP", "title": "Developmental Milestone Test Results", "type": "SDTM Dataset"}, "parentProduct": {"href": "/mdr/sendig/dart-1-2", "title": "Standard for Exchange of Nonclinical Data Implementation Guide: Developmental and Reproductive Toxicology Version 1.2", "type": "Implementation Guide"}, "rootItem": {"href": "/mdr/root/sendig/datasets/DP/variables/DPREASND", "title": "Version-agnostic anchor resource for SENDIG variable DP.DPREASND", "type": "Root Data Element"}, "self": {"href": "/mdr/sendig/dart-1-2/datasets/DP/variables/DPREASND", "title": "Reason Test Not Done", "type": "SDTM Dataset Variable"}}, "core": "Perm", "description": "Describes why DPSTAT is NOT DONE. Used only in conjunction with DPSTAT when value is NOT DONE.", "label": "Reason Test Not Done", "name": "DPREASND", "ordinal": "11", "role": "Record Qualifier", "simpleDatatype": "Char"}, {"_links": {"modelClassVariable": {"href": "/mdr/sdtm/1-6/classes/Findings/variables/--METHOD", "title": "Method of Test or Examination", "type": "Class Variable"}, "parentDataset": {"href": "/mdr/sendig/dart-1-2/datasets/DP", "title": "Developmental Milestone Test Results", "type": "SDTM Dataset"}, "parentProduct": {"href": "/mdr/sendig/dart-1-2", "title": "Standard for Exchange of Nonclinical Data Implementation Guide: Developmental and Reproductive Toxicology Version 1.2", "type": "Implementation Guide"}, "rootItem": {"href": "/mdr/root/sendig/datasets/DP/variables/DPMETHOD", "title": "Version-agnostic anchor resource for SENDIG variable DP.DPMETHOD", "type": "Root Data Element"}, "self": {"href": "/mdr/sendig/dart-1-2/datasets/DP/variables/DPMETHOD", "title": "Method of Test or Examination", "type": "SDTM Dataset Variable"}}, "core": "Perm", "description": "Method of the test or examination.", "label": "Method of Test or Examination", "name": "DPMETHOD", "ordinal": "12", "role": "Record Qualifier", "simpleDatatype": "Char"}, {"_links": {"codelist": [{"href": "/mdr/root/ct/sendct/codelists/C66742", "title": "Version-agnostic anchor resource for codelist C66742", "type": "Root Value Domain"}], "modelClassVariable": {"href": "/mdr/sdtm/1-6/classes/Findings/variables/--DRVFL", "title": "Derived Flag", "type": "Class Variable"}, "parentDataset": {"href": "/mdr/sendig/dart-1-2/datasets/DP", "title": "Developmental Milestone Test Results", "type": "SDTM Dataset"}, "parentProduct": {"href": "/mdr/sendig/dart-1-2", "title": "Standard for Exchange of Nonclinical Data Implementation Guide: Developmental and Reproductive Toxicology Version 1.2", "type": "Implementation Guide"}, "rootItem": {"href": "/mdr/root/sendig/datasets/DP/variables/DPDRVFL", "title": "Version-agnostic anchor resource for SENDIG variable DP.DPDRVFL", "type": "Root Data Element"}, "self": {"href": "/mdr/sendig/dart-1-2/datasets/DP/variables/DPDRVFL", "title": "Derived Flag", "type": "SDTM Dataset Variable"}}, "codelistSubmissionValues": ["NY"], "core": "Perm", "description": "Used to indicate a derived record. The value should be \"Y\" or null. Records that represent the average of other records or are not as originally received or collected are examples of records that might be derived for the submission datasets.", "label": "Derived Flag", "name": "DPDRVFL", "ordinal": "13", "role": "Record Qualifier", "simpleDatatype": "Char"}, {"_links": {"codelist": [{"href": "/mdr/root/ct/sendct/codelists/C66742", "title": "Version-agnostic anchor resource for codelist C66742", "type": "Root Value Domain"}], "modelClassVariable": {"href": "/mdr/sdtm/1-6/classes/Findings/variables/--EXCLFL", "title": "Exclude from Statistics", "type": "Class Variable"}, "parentDataset": {"href": "/mdr/sendig/dart-1-2/datasets/DP", "title": "Developmental Milestone Test Results", "type": "SDTM Dataset"}, "parentProduct": {"href": "/mdr/sendig/dart-1-2", "title": "Standard for Exchange of Nonclinical Data Implementation Guide: Developmental and Reproductive Toxicology Version 1.2", "type": "Implementation Guide"}, "rootItem": {"href": "/mdr/root/sendig/datasets/DP/variables/DPEXCLFL", "title": "Version-agnostic anchor resource for SENDIG variable DP.DPEXCLFL", "type": "Root Data Element"}, "self": {"href": "/mdr/sendig/dart-1-2/datasets/DP/variables/DPEXCLFL", "title": "Exclusion Flag", "type": "SDTM Dataset Variable"}}, "codelistSubmissionValues": ["NY"], "core": "Perm", "description": "Y if the result should be excluded from all calculations, otherwise null.", "label": "Exclusion Flag", "name": "DPEXCLFL", "ordinal": "14", "role": "Record Qualifier", "simpleDatatype": "Char"}, {"_links": {"modelClassVariable": {"href": "/mdr/sdtm/1-6/classes/Findings/variables/--REASEX", "title": "Reason for Exclusion from Statistics", "type": "Class Variable"}, "parentDataset": {"href": "/mdr/sendig/dart-1-2/datasets/DP", "title": "Developmental Milestone Test Results", "type": "SDTM Dataset"}, "parentProduct": {"href": "/mdr/sendig/dart-1-2", "title": "Standard for Exchange of Nonclinical Data Implementation Guide: Developmental and Reproductive Toxicology Version 1.2", "type": "Implementation Guide"}, "rootItem": {"href": "/mdr/root/sendig/datasets/DP/variables/DPREASEX", "title": "Version-agnostic anchor resource for SENDIG variable DP.DPREASEX", "type": "Root Data Element"}, "self": {"href": "/mdr/sendig/dart-1-2/datasets/DP/variables/DPREASEX", "title": "Reason for Exclusion", "type": "SDTM Dataset Variable"}}, "core": "Perm", "description": "The reason the result should be excluded from all calculations. Used only when DPEXCLFL is \"Y\".", "label": "Reason for Exclusion", "name": "DPREASEX", "ordinal": "15", "role": "Record Qualifier", "simpleDatatype": "Char"}, {"_links": {"codelist": [{"href": "/mdr/root/ct/sendct/codelists/C66742", "title": "Version-agnostic anchor resource for codelist C66742", "type": "Root Value Domain"}], "modelClassVariable": {"href": "/mdr/sdtm/1-6/classes/Findings/variables/--USCHFL", "title": "Unscheduled Flag", "type": "Class Variable"}, "parentDataset": {"href": "/mdr/sendig/dart-1-2/datasets/DP", "title": "Developmental Milestone Test Results", "type": "SDTM Dataset"}, "parentProduct": {"href": "/mdr/sendig/dart-1-2", "title": "Standard for Exchange of Nonclinical Data Implementation Guide: Developmental and Reproductive Toxicology Version 1.2", "type": "Implementation Guide"}, "rootItem": {"href": "/mdr/root/sendig/datasets/DP/variables/DPUSCHFL", "title": "Version-agnostic anchor resource for SENDIG variable DP.DPUSCHFL", "type": "Root Data Element"}, "self": {"href": "/mdr/sendig/dart-1-2/datasets/DP/variables/DPUSCHFL", "title": "Unscheduled Flag", "type": "SDTM Dataset Variable"}}, "codelistSubmissionValues": ["NY"], "core": "Perm", "description": "Indicates whether the timing of a performed test or observation was unscheduled. If a test or observation was performed based upon a schedule defined in the protocol, this flag should be null. Expected values are Y or null.", "label": "Unscheduled Flag", "name": "DPUSCHFL", "ordinal": "16", "role": "Record Qualifier", "simpleDatatype": "Char"}, {"_links": {"codelist": [{"href": "/mdr/root/ct/sendct/codelists/C124321", "title": "Version-agnostic anchor resource for codelist C124321", "type": "Root Value Domain"}], "modelClassVariable": {"href": "/mdr/sdtm/1-6/classes/GeneralObservations/variables/RPHASE", "title": "Repro Phase", "type": "Class Variable"}, "parentDataset": {"href": "/mdr/sendig/dart-1-2/datasets/DP", "title": "Developmental Milestone Test Results", "type": "SDTM Dataset"}, "parentProduct": {"href": "/mdr/sendig/dart-1-2", "title": "Standard for Exchange of Nonclinical Data Implementation Guide: Developmental and Reproductive Toxicology Version 1.2", "type": "Implementation Guide"}, "rootItem": {"href": "/mdr/root/sendig/datasets/DP/variables/RPHASE", "title": "Version-agnostic anchor resource for SENDIG variable DP.RPHASE", "type": "Root Data Element"}, "self": {"href": "/mdr/sendig/dart-1-2/datasets/DP/variables/RPHASE", "title": "Repro Phase", "type": "SDTM Dataset Variable"}}, "codelistSubmissionValues": ["NCDPHASE"], "core": "Req", "description": "Name of the Reproductive Phase associated with date/time of the observation. RPHASE is required when any Repro Phase timing variable is used.", "label": "Repro Phase", "name": "RPHASE", "ordinal": "17", "role": "Timing", "simpleDatatype": "Char"}, {"_links": {"modelClassVariable": {"href": "/mdr/sdtm/1-6/classes/GeneralObservations/variables/RPPLDY", "title": "Planned Repro Phase Day of Observation", "type": "Class Variable"}, "parentDataset": {"href": "/mdr/sendig/dart-1-2/datasets/DP", "title": "Developmental Milestone Test Results", "type": "SDTM Dataset"}, "parentProduct": {"href": "/mdr/sendig/dart-1-2", "title": "Standard for Exchange of Nonclinical Data Implementation Guide: Developmental and Reproductive Toxicology Version 1.2", "type": "Implementation Guide"}, "rootItem": {"href": "/mdr/root/sendig/datasets/DP/variables/RPPLDY", "title": "Version-agnostic anchor resource for SENDIG variable DP.RPPLDY", "type": "Root Data Element"}, "self": {"href": "/mdr/sendig/dart-1-2/datasets/DP/variables/RPPLDY", "title": "Planned Repro Phase Day of Observation", "type": "SDTM Dataset Variable"}}, "core": "Exp", "description": "The planned day within the Reproductive Phase the observation was scheduled to occur. Used in conjunction with RPHASE. Should be an integer.", "label": "Planned Repro Phase Day of Observation", "name": "RPPLDY", "ordinal": "18", "role": "Timing", "simpleDatatype": "Num"}, {"_links": {"modelClassVariable": {"href": "/mdr/sdtm/1-6/classes/GeneralObservations/variables/--DTC", "title": "Date/Time of Collection", "type": "Class Variable"}, "parentDataset": {"href": "/mdr/sendig/dart-1-2/datasets/DP", "title": "Developmental Milestone Test Results", "type": "SDTM Dataset"}, "parentProduct": {"href": "/mdr/sendig/dart-1-2", "title": "Standard for Exchange of Nonclinical Data Implementation Guide: Developmental and Reproductive Toxicology Version 1.2", "type": "Implementation Guide"}, "rootItem": {"href": "/mdr/root/sendig/datasets/DP/variables/DPDTC", "title": "Version-agnostic anchor resource for SENDIG variable DP.DPDTC", "type": "Root Data Element"}, "self": {"href": "/mdr/sendig/dart-1-2/datasets/DP/variables/DPDTC", "title": "Date/Time", "type": "SDTM Dataset Variable"}}, "core": "Exp", "describedValueDomain": "ISO 8601", "description": "Date/time of the observation represented in ISO 8601 character format.", "label": "Date/Time", "name": "DPDTC", "ordinal": "19", "role": "Timing", "simpleDatatype": "Char"}, {"_links": {"modelClassVariable": {"href": "/mdr/sdtm/1-6/classes/GeneralObservations/variables/--DY", "title": "Study Day of Visit/Collection/Exam", "type": "Class Variable"}, "parentDataset": {"href": "/mdr/sendig/dart-1-2/datasets/DP", "title": "Developmental Milestone Test Results", "type": "SDTM Dataset"}, "parentProduct": {"href": "/mdr/sendig/dart-1-2", "title": "Standard for Exchange of Nonclinical Data Implementation Guide: Developmental and Reproductive Toxicology Version 1.2", "type": "Implementation Guide"}, "rootItem": {"href": "/mdr/root/sendig/datasets/DP/variables/DPDY", "title": "Version-agnostic anchor resource for SENDIG variable DP.DPDY", "type": "Root Data Element"}, "self": {"href": "/mdr/sendig/dart-1-2/datasets/DP/variables/DPDY", "title": "Study Day", "type": "SDTM Dataset Variable"}}, "core": "Perm", "description": "Study day of the observation expressed in integer days relative to the protocol-defined RFSTDTC.", "label": "Study Day", "name": "DPDY", "ordinal": "20", "role": "Timing", "simpleDatatype": "Num"}, {"_links": {"modelClassVariable": {"href": "/mdr/sdtm/1-6/classes/GeneralObservations/variables/--RPDY", "title": "Actual Repro Phase Day of Observation", "type": "Class Variable"}, "parentDataset": {"href": "/mdr/sendig/dart-1-2/datasets/DP", "title": "Developmental Milestone Test Results", "type": "SDTM Dataset"}, "parentProduct": {"href": "/mdr/sendig/dart-1-2", "title": "Standard for Exchange of Nonclinical Data Implementation Guide: Developmental and Reproductive Toxicology Version 1.2", "type": "Implementation Guide"}, "rootItem": {"href": "/mdr/root/sendig/datasets/DP/variables/DPRPDY", "title": "Version-agnostic anchor resource for SENDIG variable DP.DPRPDY", "type": "Root Data Element"}, "self": {"href": "/mdr/sendig/dart-1-2/datasets/DP/variables/DPRPDY", "title": "Actual Repro Phase Day of Observation", "type": "SDTM Dataset Variable"}}, "core": "Exp", "description": "The actual day within the Reproductive Phase on which the observation occurred. Used in conjunction with RPHASE. Should be an integer.", "label": "Actual Repro Phase Day of Observation", "name": "DPRPDY", "ordinal": "21", "role": "Timing", "simpleDatatype": "Num"}], "label": "Developmental Milestone Test Results", "name": "DP", "ordinal": "6"}
