{"_links": {"parentClass": {"href": "/mdr/sendig/dart-1-2/classes/Events", "title": "Events Observation Class", "type": "Class"}, "parentProduct": {"href": "/mdr/sendig/dart-1-2", "title": "Standard for Exchange of Nonclinical Data Implementation Guide: Developmental and Reproductive Toxicology Version 1.2", "type": "Implementation Guide"}, "priorVersion": {"href": "/mdr/sendig/dart-1-1/datasets/DS", "title": "Disposition", "type": "SDTM Dataset"}, "self": {"href": "/mdr/sendig/dart-1-2/datasets/DS", "title": "Disposition", "type": "SDTM Dataset"}}, "datasetStructure": "One record per subject", "datasetVariables": [{"_links": {"modelClassVariable": {"href": "/mdr/sdtm/1-6/classes/GeneralObservations/variables/STUDYID", "title": "Study Identifier", "type": "Class Variable"}, "parentDataset": {"href": "/mdr/sendig/dart-1-2/datasets/DS", "title": "Disposition", "type": "SDTM Dataset"}, "parentProduct": {"href": "/mdr/sendig/dart-1-2", "title": "Standard for Exchange of Nonclinical Data Implementation Guide: Developmental and Reproductive Toxicology Version 1.2", "type": "Implementation Guide"}, "priorVersion": {"href": "/mdr/sendig/dart-1-1/datasets/DS/variables/STUDYID", "title": "Study Identifier", "type": "SDTM Dataset Variable"}, "rootItem": {"href": "/mdr/root/sendig/datasets/DS/variables/STUDYID", "title": "Version-agnostic anchor resource for SENDIG variable DS.STUDYID", "type": "Root Data Element"}, "self": {"href": "/mdr/sendig/dart-1-2/datasets/DS/variables/STUDYID", "title": "Study Identifier", "type": "SDTM Dataset Variable"}}, "core": "Req", "description": "Unique identifier for a study.", "label": "Study Identifier", "name": "STUDYID", "ordinal": "1", "role": "Identifier", "simpleDatatype": "Char"}, {"_links": {"modelClassVariable": {"href": "/mdr/sdtm/1-6/classes/GeneralObservations/variables/DOMAIN", "title": "Domain Abbreviation", "type": "Class Variable"}, "parentDataset": {"href": "/mdr/sendig/dart-1-2/datasets/DS", "title": "Disposition", "type": "SDTM Dataset"}, "parentProduct": {"href": "/mdr/sendig/dart-1-2", "title": "Standard for Exchange of Nonclinical Data Implementation Guide: Developmental and Reproductive Toxicology Version 1.2", "type": "Implementation Guide"}, "priorVersion": {"href": "/mdr/sendig/dart-1-1/datasets/DS/variables/DOMAIN", "title": "Domain Abbreviation", "type": "SDTM Dataset Variable"}, "rootItem": {"href": "/mdr/root/sendig/datasets/DS/variables/DOMAIN", "title": "Version-agnostic anchor resource for SENDIG variable DS.DOMAIN", "type": "Root Data Element"}, "self": {"href": "/mdr/sendig/dart-1-2/datasets/DS/variables/DOMAIN", "title": "Domain Abbreviation", "type": "SDTM Dataset Variable"}}, "core": "Req", "description": "Two-character abbreviation for the domain.", "label": "Domain Abbreviation", "name": "DOMAIN", "ordinal": "2", "role": "Identifier", "simpleDatatype": "Char", "valueList": ["DS"]}, {"_links": {"modelClassVariable": {"href": "/mdr/sdtm/1-6/classes/GeneralObservations/variables/USUBJID", "title": "Unique Subject Identifier", "type": "Class Variable"}, "parentDataset": {"href": "/mdr/sendig/dart-1-2/datasets/DS", "title": "Disposition", "type": "SDTM Dataset"}, "parentProduct": {"href": "/mdr/sendig/dart-1-2", "title": "Standard for Exchange of Nonclinical Data Implementation Guide: Developmental and Reproductive Toxicology Version 1.2", "type": "Implementation Guide"}, "priorVersion": {"href": "/mdr/sendig/dart-1-1/datasets/DS/variables/USUBJID", "title": "Unique Subject Identifier", "type": "SDTM Dataset Variable"}, "rootItem": {"href": "/mdr/root/sendig/datasets/DS/variables/USUBJID", "title": "Version-agnostic anchor resource for SENDIG variable DS.USUBJID", "type": "Root Data Element"}, "self": {"href": "/mdr/sendig/dart-1-2/datasets/DS/variables/USUBJID", "title": "Unique Subject Identifier", "type": "SDTM Dataset Variable"}}, "core": "Req", "description": "Identifier used to uniquely identify a subject across all studies for all applications or submissions involving the product.", "label": "Unique Subject Identifier", "name": "USUBJID", "ordinal": "3", "role": "Identifier", "simpleDatatype": "Char"}, {"_links": {"modelClassVariable": {"href": "/mdr/sdtm/1-6/classes/GeneralObservations/variables/--SEQ", "title": "Sequence Number", "type": "Class Variable"}, "parentDataset": {"href": "/mdr/sendig/dart-1-2/datasets/DS", "title": "Disposition", "type": "SDTM Dataset"}, "parentProduct": {"href": "/mdr/sendig/dart-1-2", "title": "Standard for Exchange of Nonclinical Data Implementation Guide: Developmental and Reproductive Toxicology Version 1.2", "type": "Implementation Guide"}, "priorVersion": {"href": "/mdr/sendig/dart-1-1/datasets/DS/variables/DSSEQ", "title": "Sequence Number", "type": "SDTM Dataset Variable"}, "rootItem": {"href": "/mdr/root/sendig/datasets/DS/variables/DSSEQ", "title": "Version-agnostic anchor resource for SENDIG variable DS.DSSEQ", "type": "Root Data Element"}, "self": {"href": "/mdr/sendig/dart-1-2/datasets/DS/variables/DSSEQ", "title": "Sequence Number", "type": "SDTM Dataset Variable"}}, "core": "Req", "description": "Sequence number given to ensure uniqueness of subject records within a domain. May be any valid number.", "label": "Sequence Number", "name": "DSSEQ", "ordinal": "4", "role": "Identifier", "simpleDatatype": "Num"}, {"_links": {"modelClassVariable": {"href": "/mdr/sdtm/1-6/classes/Events/variables/--TERM", "title": "Reported Term", "type": "Class Variable"}, "parentDataset": {"href": "/mdr/sendig/dart-1-2/datasets/DS", "title": "Disposition", "type": "SDTM Dataset"}, "parentProduct": {"href": "/mdr/sendig/dart-1-2", "title": "Standard for Exchange of Nonclinical Data Implementation Guide: Developmental and Reproductive Toxicology Version 1.2", "type": "Implementation Guide"}, "priorVersion": {"href": "/mdr/sendig/dart-1-1/datasets/DS/variables/DSTERM", "title": "Reported Term for the Disposition Event", "type": "SDTM Dataset Variable"}, "rootItem": {"href": "/mdr/root/sendig/datasets/DS/variables/DSTERM", "title": "Version-agnostic anchor resource for SENDIG variable DS.DSTERM", "type": "Root Data Element"}, "self": {"href": "/mdr/sendig/dart-1-2/datasets/DS/variables/DSTERM", "title": "Reported Term for the Disposition Event", "type": "SDTM Dataset Variable"}}, "core": "Req", "description": "DSTERM is the original term recorded for subject disposition. DSTERM is not under controlled terminology, but should be mapped to DSDECOD.", "label": "Reported Term for the Disposition Event", "name": "DSTERM", "ordinal": "5", "role": "Topic", "simpleDatatype": "Char"}, {"_links": {"codelist": [{"href": "/mdr/root/ct/sendct/codelists/C89968", "title": "Version-agnostic anchor resource for codelist C89968", "type": "Root Value Domain"}], "modelClassVariable": {"href": "/mdr/sdtm/1-6/classes/Events/variables/--DECOD", "title": "Dictionary-Derived Term", "type": "Class Variable"}, "parentDataset": {"href": "/mdr/sendig/dart-1-2/datasets/DS", "title": "Disposition", "type": "SDTM Dataset"}, "parentProduct": {"href": "/mdr/sendig/dart-1-2", "title": "Standard for Exchange of Nonclinical Data Implementation Guide: Developmental and Reproductive Toxicology Version 1.2", "type": "Implementation Guide"}, "priorVersion": {"href": "/mdr/sendig/dart-1-1/datasets/DS/variables/DSDECOD", "title": "Standardized Disposition Term", "type": "SDTM Dataset Variable"}, "rootItem": {"href": "/mdr/root/sendig/datasets/DS/variables/DSDECOD", "title": "Version-agnostic anchor resource for SENDIG variable DS.DSDECOD", "type": "Root Data Element"}, "self": {"href": "/mdr/sendig/dart-1-2/datasets/DS/variables/DSDECOD", "title": "Standardized Disposition Term", "type": "SDTM Dataset Variable"}}, "codelistSubmissionValues": ["DSDECOD"], "core": "Req", "description": "Contains the result in a standard format.", "label": "Standardized Disposition Term", "name": "DSDECOD", "ordinal": "6", "role": "Synonym Qualifier", "simpleDatatype": "Char"}, {"_links": {"codelist": [{"href": "/mdr/root/ct/sendct/codelists/C66742", "title": "Version-agnostic anchor resource for codelist C66742", "type": "Root Value Domain"}], "modelClassVariable": {"href": "/mdr/sdtm/1-6/classes/Events/variables/--USCHFL", "title": "Unscheduled Flag", "type": "Class Variable"}, "parentDataset": {"href": "/mdr/sendig/dart-1-2/datasets/DS", "title": "Disposition", "type": "SDTM Dataset"}, "parentProduct": {"href": "/mdr/sendig/dart-1-2", "title": "Standard for Exchange of Nonclinical Data Implementation Guide: Developmental and Reproductive Toxicology Version 1.2", "type": "Implementation Guide"}, "priorVersion": {"href": "/mdr/sendig/dart-1-1/datasets/DS/variables/DSUSCHFL", "title": "Unscheduled Flag", "type": "SDTM Dataset Variable"}, "rootItem": {"href": "/mdr/root/sendig/datasets/DS/variables/DSUSCHFL", "title": "Version-agnostic anchor resource for SENDIG variable DS.DSUSCHFL", "type": "Root Data Element"}, "self": {"href": "/mdr/sendig/dart-1-2/datasets/DS/variables/DSUSCHFL", "title": "Unscheduled Flag", "type": "SDTM Dataset Variable"}}, "codelistSubmissionValues": ["NY"], "core": "Exp", "description": "Indicates whether the subject's disposition was unscheduled. If the subject's disposition was based upon a schedule defined in the protocol, this flag should be null. Expected values are Y or null.", "label": "Unscheduled Flag", "name": "DSUSCHFL", "ordinal": "7", "role": "Record Qualifier", "simpleDatatype": "Char"}, {"_links": {"modelClassVariable": {"href": "/mdr/sdtm/1-6/classes/GeneralObservations/variables/VISITDY", "title": "Planned Study Day of Visit", "type": "Class Variable"}, "parentDataset": {"href": "/mdr/sendig/dart-1-2/datasets/DS", "title": "Disposition", "type": "SDTM Dataset"}, "parentProduct": {"href": "/mdr/sendig/dart-1-2", "title": "Standard for Exchange of Nonclinical Data Implementation Guide: Developmental and Reproductive Toxicology Version 1.2", "type": "Implementation Guide"}, "priorVersion": {"href": "/mdr/sendig/dart-1-1/datasets/DS/variables/VISITDY", "title": "Planned Study Day of Disposition", "type": "SDTM Dataset Variable"}, "rootItem": {"href": "/mdr/root/sendig/datasets/DS/variables/VISITDY", "title": "Version-agnostic anchor resource for SENDIG variable DS.VISITDY", "type": "Root Data Element"}, "self": {"href": "/mdr/sendig/dart-1-2/datasets/DS/variables/VISITDY", "title": "Planned Study Day of Disposition", "type": "SDTM Dataset Variable"}}, "core": "Perm", "description": "Planned study day of collection. Should be an integer. VISITDY should be populated only when DSTERM represents a scheduled activity.", "label": "Planned Study Day of Disposition", "name": "VISITDY", "ordinal": "8", "role": "Timing", "simpleDatatype": "Num"}, {"_links": {"modelClassVariable": {"href": "/mdr/sdtm/1-6/classes/GeneralObservations/variables/RPHASE", "title": "Repro Phase", "type": "Class Variable"}, "parentDataset": {"href": "/mdr/sendig/dart-1-2/datasets/DS", "title": "Disposition", "type": "SDTM Dataset"}, "parentProduct": {"href": "/mdr/sendig/dart-1-2", "title": "Standard for Exchange of Nonclinical Data Implementation Guide: Developmental and Reproductive Toxicology Version 1.2", "type": "Implementation Guide"}, "priorVersion": {"href": "/mdr/sendig/dart-1-1/datasets/DS/variables/RPHASE", "title": "Reproductive Phase", "type": "SDTM Dataset Variable"}, "rootItem": {"href": "/mdr/root/sendig/datasets/DS/variables/RPHASE", "title": "Version-agnostic anchor resource for SENDIG variable DS.RPHASE", "type": "Root Data Element"}, "self": {"href": "/mdr/sendig/dart-1-2/datasets/DS/variables/RPHASE", "title": "Reproductive Phase", "type": "SDTM Dataset Variable"}}, "core": "Exp", "description": "Name of the Reproductive Phase associated with the date/time of the observation. RPHASE is Required when any Repro Phase timing variable is used.", "label": "Reproductive Phase", "name": "RPHASE", "ordinal": "9", "role": "Timing", "simpleDatatype": "Char"}, {"_links": {"modelClassVariable": {"href": "/mdr/sdtm/1-6/classes/GeneralObservations/variables/RPPLSTDY", "title": "Planned Repro Phase Day of Obs Start", "type": "Class Variable"}, "parentDataset": {"href": "/mdr/sendig/dart-1-2/datasets/DS", "title": "Disposition", "type": "SDTM Dataset"}, "parentProduct": {"href": "/mdr/sendig/dart-1-2", "title": "Standard for Exchange of Nonclinical Data Implementation Guide: Developmental and Reproductive Toxicology Version 1.2", "type": "Implementation Guide"}, "priorVersion": {"href": "/mdr/sendig/dart-1-1/datasets/DS/variables/RPPLSTDY", "title": "Planned Repro Phase Day of Obs Start", "type": "SDTM Dataset Variable"}, "rootItem": {"href": "/mdr/root/sendig/datasets/DS/variables/RPPLSTDY", "title": "Version-agnostic anchor resource for SENDIG variable DS.RPPLSTDY", "type": "Root Data Element"}, "self": {"href": "/mdr/sendig/dart-1-2/datasets/DS/variables/RPPLSTDY", "title": "Planned Repro Phase Day of Obs Start", "type": "SDTM Dataset Variable"}}, "core": "Perm", "description": "The planned day within the Reproductive Phase of the start of the observation. Expressed as an integer.", "label": "Planned Repro Phase Day of Obs Start", "name": "RPPLSTDY", "ordinal": "10", "role": "Timing", "simpleDatatype": "Num"}, {"_links": {"modelClassVariable": {"href": "/mdr/sdtm/1-6/classes/GeneralObservations/variables/--STDTC", "title": "Start Date/Time of Observation", "type": "Class Variable"}, "parentDataset": {"href": "/mdr/sendig/dart-1-2/datasets/DS", "title": "Disposition", "type": "SDTM Dataset"}, "parentProduct": {"href": "/mdr/sendig/dart-1-2", "title": "Standard for Exchange of Nonclinical Data Implementation Guide: Developmental and Reproductive Toxicology Version 1.2", "type": "Implementation Guide"}, "priorVersion": {"href": "/mdr/sendig/dart-1-1/datasets/DS/variables/DSSTDTC", "title": "Date/Time of Disposition", "type": "SDTM Dataset Variable"}, "rootItem": {"href": "/mdr/root/sendig/datasets/DS/variables/DSSTDTC", "title": "Version-agnostic anchor resource for SENDIG variable DS.DSSTDTC", "type": "Root Data Element"}, "self": {"href": "/mdr/sendig/dart-1-2/datasets/DS/variables/DSSTDTC", "title": "Date/Time of Disposition", "type": "SDTM Dataset Variable"}}, "core": "Req", "describedValueDomain": "ISO 8601", "description": "Date/Time of the disposition event, in ISO 8601 format.", "label": "Date/Time of Disposition", "name": "DSSTDTC", "ordinal": "11", "role": "Timing", "simpleDatatype": "Char"}, {"_links": {"modelClassVariable": {"href": "/mdr/sdtm/1-6/classes/GeneralObservations/variables/--STDY", "title": "Study Day of Start of Observation", "type": "Class Variable"}, "parentDataset": {"href": "/mdr/sendig/dart-1-2/datasets/DS", "title": "Disposition", "type": "SDTM Dataset"}, "parentProduct": {"href": "/mdr/sendig/dart-1-2", "title": "Standard for Exchange of Nonclinical Data Implementation Guide: Developmental and Reproductive Toxicology Version 1.2", "type": "Implementation Guide"}, "priorVersion": {"href": "/mdr/sendig/dart-1-1/datasets/DS/variables/DSSTDY", "title": "Study Day of Disposition", "type": "SDTM Dataset Variable"}, "rootItem": {"href": "/mdr/root/sendig/datasets/DS/variables/DSSTDY", "title": "Version-agnostic anchor resource for SENDIG variable DS.DSSTDY", "type": "Root Data Element"}, "self": {"href": "/mdr/sendig/dart-1-2/datasets/DS/variables/DSSTDY", "title": "Study Day of Disposition", "type": "SDTM Dataset Variable"}}, "core": "Perm", "description": "Study day of the disposition event, in integer days. The algorithm for calculations must be relative to the sponsor-defined RFSTDTC variable in the Demographics (DM) domain.", "label": "Study Day of Disposition", "name": "DSSTDY", "ordinal": "12", "role": "Timing", "simpleDatatype": "Num"}, {"_links": {"modelClassVariable": {"href": "/mdr/sdtm/1-6/classes/GeneralObservations/variables/--NOMDY", "title": "Nominal Study Day for Tabulations", "type": "Class Variable"}, "parentDataset": {"href": "/mdr/sendig/dart-1-2/datasets/DS", "title": "Disposition", "type": "SDTM Dataset"}, "parentProduct": {"href": "/mdr/sendig/dart-1-2", "title": "Standard for Exchange of Nonclinical Data Implementation Guide: Developmental and Reproductive Toxicology Version 1.2", "type": "Implementation Guide"}, "priorVersion": {"href": "/mdr/sendig/dart-1-1/datasets/DS/variables/DSNOMDY", "title": "Nominal Study Day for Tabulations", "type": "SDTM Dataset Variable"}, "rootItem": {"href": "/mdr/root/sendig/datasets/DS/variables/DSNOMDY", "title": "Version-agnostic anchor resource for SENDIG variable DS.DSNOMDY", "type": "Root Data Element"}, "self": {"href": "/mdr/sendig/dart-1-2/datasets/DS/variables/DSNOMDY", "title": "Nominal Study Day for Tabulations", "type": "SDTM Dataset Variable"}}, "core": "Perm", "description": "Nominal study day used for grouping records for observations that may occur on different days into a single reported study day. Should be an integer.", "label": "Nominal Study Day for Tabulations", "name": "DSNOMDY", "ordinal": "13", "role": "Timing", "simpleDatatype": "Num"}, {"_links": {"modelClassVariable": {"href": "/mdr/sdtm/1-6/classes/GeneralObservations/variables/--NOMLBL", "title": "Label for Nominal Study Day", "type": "Class Variable"}, "parentDataset": {"href": "/mdr/sendig/dart-1-2/datasets/DS", "title": "Disposition", "type": "SDTM Dataset"}, "parentProduct": {"href": "/mdr/sendig/dart-1-2", "title": "Standard for Exchange of Nonclinical Data Implementation Guide: Developmental and Reproductive Toxicology Version 1.2", "type": "Implementation Guide"}, "priorVersion": {"href": "/mdr/sendig/dart-1-1/datasets/DS/variables/DSNOMLBL", "title": "Label for Nominal Study Day", "type": "SDTM Dataset Variable"}, "rootItem": {"href": "/mdr/root/sendig/datasets/DS/variables/DSNOMLBL", "title": "Version-agnostic anchor resource for SENDIG variable DS.DSNOMLBL", "type": "Root Data Element"}, "self": {"href": "/mdr/sendig/dart-1-2/datasets/DS/variables/DSNOMLBL", "title": "Label for Nominal Study Day", "type": "SDTM Dataset Variable"}}, "core": "Perm", "description": "A label for a given value of DSNOMDY as presented in the study report. Examples: Week 4, Day 28, Terminal Sac.", "label": "Label for Nominal Study Day", "name": "DSNOMLBL", "ordinal": "14", "role": "Timing", "simpleDatatype": "Char"}, {"_links": {"modelClassVariable": {"href": "/mdr/sdtm/1-6/classes/GeneralObservations/variables/--RPSTDY", "title": "Actual Repro Phase Day of Obs Start", "type": "Class Variable"}, "parentDataset": {"href": "/mdr/sendig/dart-1-2/datasets/DS", "title": "Disposition", "type": "SDTM Dataset"}, "parentProduct": {"href": "/mdr/sendig/dart-1-2", "title": "Standard for Exchange of Nonclinical Data Implementation Guide: Developmental and Reproductive Toxicology Version 1.2", "type": "Implementation Guide"}, "priorVersion": {"href": "/mdr/sendig/dart-1-1/datasets/DS/variables/DSRPSTDY", "title": "Actual Repro Phase Day of Obs Start", "type": "SDTM Dataset Variable"}, "rootItem": {"href": "/mdr/root/sendig/datasets/DS/variables/DSRPSTDY", "title": "Version-agnostic anchor resource for SENDIG variable DS.DSRPSTDY", "type": "Root Data Element"}, "self": {"href": "/mdr/sendig/dart-1-2/datasets/DS/variables/DSRPSTDY", "title": "Actual Repro Phase Day of Obs Start", "type": "SDTM Dataset Variable"}}, "core": "Exp", "description": "The actual day within the Reproductive Phase of the start of the observation. Expressed as an integer.", "label": "Actual Repro Phase Day of Obs Start", "name": "DSRPSTDY", "ordinal": "15", "role": "Timing", "simpleDatatype": "Num"}], "label": "Disposition", "name": "DS", "ordinal": "1"}
