{"_links": {"parentClass": {"href": "/mdr/sendig/dart-1-2/classes/Findings", "title": "Findings Observation Class", "type": "Class"}, "parentProduct": {"href": "/mdr/sendig/dart-1-2", "title": "Standard for Exchange of Nonclinical Data Implementation Guide: Developmental and Reproductive Toxicology Version 1.2", "type": "Implementation Guide"}, "priorVersion": {"href": "/mdr/sendig/dart-1-1/datasets/FM", "title": "Fetal Measurements", "type": "SDTM Dataset"}, "self": {"href": "/mdr/sendig/dart-1-2/datasets/FM", "title": "Fetal Measurements", "type": "SDTM Dataset"}}, "datasetStructure": "One record per finding per fetus per subject", "datasetVariables": [{"_links": {"modelClassVariable": {"href": "/mdr/sdtm/1-6/classes/GeneralObservations/variables/STUDYID", "title": "Study Identifier", "type": "Class Variable"}, "parentDataset": {"href": "/mdr/sendig/dart-1-2/datasets/FM", "title": "Fetal Measurements", "type": "SDTM Dataset"}, "parentProduct": {"href": "/mdr/sendig/dart-1-2", "title": "Standard for Exchange of Nonclinical Data Implementation Guide: Developmental and Reproductive Toxicology Version 1.2", "type": "Implementation Guide"}, "priorVersion": {"href": "/mdr/sendig/dart-1-1/datasets/FM/variables/STUDYID", "title": "Study Identifier", "type": "SDTM Dataset Variable"}, "rootItem": {"href": "/mdr/root/sendig/datasets/FM/variables/STUDYID", "title": "Version-agnostic anchor resource for SENDIG variable FM.STUDYID", "type": "Root Data Element"}, "self": {"href": "/mdr/sendig/dart-1-2/datasets/FM/variables/STUDYID", "title": "Study Identifier", "type": "SDTM Dataset Variable"}}, "core": "Req", "description": "Unique identifier for a study within the submission.", "label": "Study Identifier", "name": "STUDYID", "ordinal": "1", "role": "Identifier", "simpleDatatype": "Char"}, {"_links": {"modelClassVariable": {"href": "/mdr/sdtm/1-6/classes/GeneralObservations/variables/DOMAIN", "title": "Domain Abbreviation", "type": "Class Variable"}, "parentDataset": {"href": "/mdr/sendig/dart-1-2/datasets/FM", "title": "Fetal Measurements", "type": "SDTM Dataset"}, "parentProduct": {"href": "/mdr/sendig/dart-1-2", "title": "Standard for Exchange of Nonclinical Data Implementation Guide: Developmental and Reproductive Toxicology Version 1.2", "type": "Implementation Guide"}, "priorVersion": {"href": "/mdr/sendig/dart-1-1/datasets/FM/variables/DOMAIN", "title": "Domain Abbreviation", "type": "SDTM Dataset Variable"}, "rootItem": {"href": "/mdr/root/sendig/datasets/FM/variables/DOMAIN", "title": "Version-agnostic anchor resource for SENDIG variable FM.DOMAIN", "type": "Root Data Element"}, "self": {"href": "/mdr/sendig/dart-1-2/datasets/FM/variables/DOMAIN", "title": "Domain Abbreviation", "type": "SDTM Dataset Variable"}}, "core": "Req", "description": "Two-character code for the domain.", "label": "Domain Abbreviation", "name": "DOMAIN", "ordinal": "2", "role": "Identifier", "simpleDatatype": "Char", "valueList": ["FM"]}, {"_links": {"modelClassVariable": {"href": "/mdr/sdtm/1-6/classes/GeneralObservations/variables/USUBJID", "title": "Unique Subject Identifier", "type": "Class Variable"}, "parentDataset": {"href": "/mdr/sendig/dart-1-2/datasets/FM", "title": "Fetal Measurements", "type": "SDTM Dataset"}, "parentProduct": {"href": "/mdr/sendig/dart-1-2", "title": "Standard for Exchange of Nonclinical Data Implementation Guide: Developmental and Reproductive Toxicology Version 1.2", "type": "Implementation Guide"}, "priorVersion": {"href": "/mdr/sendig/dart-1-1/datasets/FM/variables/USUBJID", "title": "Unique Subject Identifier", "type": "SDTM Dataset Variable"}, "rootItem": {"href": "/mdr/root/sendig/datasets/FM/variables/USUBJID", "title": "Version-agnostic anchor resource for SENDIG variable FM.USUBJID", "type": "Root Data Element"}, "self": {"href": "/mdr/sendig/dart-1-2/datasets/FM/variables/USUBJID", "title": "Unique Subject Identifier", "type": "SDTM Dataset Variable"}}, "core": "Req", "description": "Identifier used to uniquely identify a subject across all studies for all applications or submissions involving the product.", "label": "Unique Subject Identifier", "name": "USUBJID", "ordinal": "3", "role": "Identifier", "simpleDatatype": "Char"}, {"_links": {"modelClassVariable": {"href": "/mdr/sdtm/1-6/classes/GeneralObservations/variables/FETUSID", "title": "Fetus Identifier", "type": "Class Variable"}, "parentDataset": {"href": "/mdr/sendig/dart-1-2/datasets/FM", "title": "Fetal Measurements", "type": "SDTM Dataset"}, "parentProduct": {"href": "/mdr/sendig/dart-1-2", "title": "Standard for Exchange of Nonclinical Data Implementation Guide: Developmental and Reproductive Toxicology Version 1.2", "type": "Implementation Guide"}, "priorVersion": {"href": "/mdr/sendig/dart-1-1/datasets/FM/variables/FETUSID", "title": "Unique Fetus Identifier", "type": "SDTM Dataset Variable"}, "rootItem": {"href": "/mdr/root/sendig/datasets/FM/variables/FETUSID", "title": "Version-agnostic anchor resource for SENDIG variable FM.FETUSID", "type": "Root Data Element"}, "self": {"href": "/mdr/sendig/dart-1-2/datasets/FM/variables/FETUSID", "title": "Unique Fetus Identifier", "type": "SDTM Dataset Variable"}}, "core": "Exp", "description": "Identifier used to identify a fetus from a maternal subject for prenatal evaluations. Unique per USUBJID across a study.", "label": "Unique Fetus Identifier", "name": "FETUSID", "ordinal": "4", "role": "Identifier", "simpleDatatype": "Char"}, {"_links": {"modelClassVariable": {"href": "/mdr/sdtm/1-6/classes/GeneralObservations/variables/--SEQ", "title": "Sequence Number", "type": "Class Variable"}, "parentDataset": {"href": "/mdr/sendig/dart-1-2/datasets/FM", "title": "Fetal Measurements", "type": "SDTM Dataset"}, "parentProduct": {"href": "/mdr/sendig/dart-1-2", "title": "Standard for Exchange of Nonclinical Data Implementation Guide: Developmental and Reproductive Toxicology Version 1.2", "type": "Implementation Guide"}, "priorVersion": {"href": "/mdr/sendig/dart-1-1/datasets/FM/variables/FMSEQ", "title": "Sequence Number", "type": "SDTM Dataset Variable"}, "rootItem": {"href": "/mdr/root/sendig/datasets/FM/variables/FMSEQ", "title": "Version-agnostic anchor resource for SENDIG variable FM.FMSEQ", "type": "Root Data Element"}, "self": {"href": "/mdr/sendig/dart-1-2/datasets/FM/variables/FMSEQ", "title": "Sequence Number", "type": "SDTM Dataset Variable"}}, "core": "Req", "description": "Sequence number given to ensure uniqueness of subject records within a domain. May be any valid number.", "label": "Sequence Number", "name": "FMSEQ", "ordinal": "5", "role": "Identifier", "simpleDatatype": "Num"}, {"_links": {"modelClassVariable": {"href": "/mdr/sdtm/1-6/classes/GeneralObservations/variables/--GRPID", "title": "Group ID", "type": "Class Variable"}, "parentDataset": {"href": "/mdr/sendig/dart-1-2/datasets/FM", "title": "Fetal Measurements", "type": "SDTM Dataset"}, "parentProduct": {"href": "/mdr/sendig/dart-1-2", "title": "Standard for Exchange of Nonclinical Data Implementation Guide: Developmental and Reproductive Toxicology Version 1.2", "type": "Implementation Guide"}, "priorVersion": {"href": "/mdr/sendig/dart-1-1/datasets/FM/variables/FMGRPID", "title": "Group Identifier", "type": "SDTM Dataset Variable"}, "rootItem": {"href": "/mdr/root/sendig/datasets/FM/variables/FMGRPID", "title": "Version-agnostic anchor resource for SENDIG variable FM.FMGRPID", "type": "Root Data Element"}, "self": {"href": "/mdr/sendig/dart-1-2/datasets/FM/variables/FMGRPID", "title": "Group Identifier", "type": "SDTM Dataset Variable"}}, "core": "Perm", "description": "Optional group identifier, used to link together a block of related records within a subject in a domain. This is not the treatment group number.", "label": "Group Identifier", "name": "FMGRPID", "ordinal": "6", "role": "Identifier", "simpleDatatype": "Char"}, {"_links": {"codelist": [{"href": "/mdr/root/ct/sendct/codelists/C124311", "title": "Version-agnostic anchor resource for codelist C124311", "type": "Root Value Domain"}], "modelClassVariable": {"href": "/mdr/sdtm/1-6/classes/Findings/variables/--TESTCD", "title": "Short Name of Measurement, Test or Examination", "type": "Class Variable"}, "parentDataset": {"href": "/mdr/sendig/dart-1-2/datasets/FM", "title": "Fetal Measurements", "type": "SDTM Dataset"}, "parentProduct": {"href": "/mdr/sendig/dart-1-2", "title": "Standard for Exchange of Nonclinical Data Implementation Guide: Developmental and Reproductive Toxicology Version 1.2", "type": "Implementation Guide"}, "priorVersion": {"href": "/mdr/sendig/dart-1-1/datasets/FM/variables/FMTESTCD", "title": "Test Short Name", "type": "SDTM Dataset Variable"}, "rootItem": {"href": "/mdr/root/sendig/datasets/FM/variables/FMTESTCD", "title": "Version-agnostic anchor resource for SENDIG variable FM.FMTESTCD", "type": "Root Data Element"}, "self": {"href": "/mdr/sendig/dart-1-2/datasets/FM/variables/FMTESTCD", "title": "Test Short Name", "type": "SDTM Dataset Variable"}}, "codelistSubmissionValues": ["FMTESTCD"], "core": "Req", "description": "Short name of the test described in FMTEST. The value in FMTESTCD cannot be longer than 8 characters, nor can it start with a number (e.g. \"1TEST\"). FMTESTCD cannot contain characters other than letters, numbers, or underscores.", "label": "Test Short Name", "name": "FMTESTCD", "ordinal": "7", "role": "Topic", "simpleDatatype": "Char"}, {"_links": {"codelist": [{"href": "/mdr/root/ct/sendct/codelists/C124312", "title": "Version-agnostic anchor resource for codelist C124312", "type": "Root Value Domain"}], "modelClassVariable": {"href": "/mdr/sdtm/1-6/classes/Findings/variables/--TEST", "title": "Name of Measurement, Test or Examination", "type": "Class Variable"}, "parentDataset": {"href": "/mdr/sendig/dart-1-2/datasets/FM", "title": "Fetal Measurements", "type": "SDTM Dataset"}, "parentProduct": {"href": "/mdr/sendig/dart-1-2", "title": "Standard for Exchange of Nonclinical Data Implementation Guide: Developmental and Reproductive Toxicology Version 1.2", "type": "Implementation Guide"}, "priorVersion": {"href": "/mdr/sendig/dart-1-1/datasets/FM/variables/FMTEST", "title": "Fetal Measurement Name", "type": "SDTM Dataset Variable"}, "rootItem": {"href": "/mdr/root/sendig/datasets/FM/variables/FMTEST", "title": "Version-agnostic anchor resource for SENDIG variable FM.FMTEST", "type": "Root Data Element"}, "self": {"href": "/mdr/sendig/dart-1-2/datasets/FM/variables/FMTEST", "title": "Fetal Measurement Name", "type": "SDTM Dataset Variable"}}, "codelistSubmissionValues": ["FMTEST"], "core": "Req", "description": "Long name for FMTESTCD. The value in FMTEST cannot be longer than 40 characters. Example: Body Weight.", "label": "Fetal Measurement Name", "name": "FMTEST", "ordinal": "8", "role": "Synonym Qualifier", "simpleDatatype": "Char"}, {"_links": {"modelClassVariable": {"href": "/mdr/sdtm/1-6/classes/Findings/variables/--ORRES", "title": "Result or Finding in Original Units", "type": "Class Variable"}, "parentDataset": {"href": "/mdr/sendig/dart-1-2/datasets/FM", "title": "Fetal Measurements", "type": "SDTM Dataset"}, "parentProduct": {"href": "/mdr/sendig/dart-1-2", "title": "Standard for Exchange of Nonclinical Data Implementation Guide: Developmental and Reproductive Toxicology Version 1.2", "type": "Implementation Guide"}, "priorVersion": {"href": "/mdr/sendig/dart-1-1/datasets/FM/variables/FMORRES", "title": "Result or Findings as Collected", "type": "SDTM Dataset Variable"}, "rootItem": {"href": "/mdr/root/sendig/datasets/FM/variables/FMORRES", "title": "Version-agnostic anchor resource for SENDIG variable FM.FMORRES", "type": "Root Data Element"}, "self": {"href": "/mdr/sendig/dart-1-2/datasets/FM/variables/FMORRES", "title": "Result or Findings as Collected", "type": "SDTM Dataset Variable"}}, "core": "Exp", "description": "Result of the finding or measurement as originally received or collected. Should be null if examination or measurement was not done.", "label": "Result or Findings as Collected", "name": "FMORRES", "ordinal": "9", "role": "Result Qualifier", "simpleDatatype": "Char"}, {"_links": {"codelist": [{"href": "/mdr/root/ct/sendct/codelists/C71620", "title": "Version-agnostic anchor resource for codelist C71620", "type": "Root Value Domain"}], "modelClassVariable": {"href": "/mdr/sdtm/1-6/classes/Findings/variables/--ORRESU", "title": "Original Units", "type": "Class Variable"}, "parentDataset": {"href": "/mdr/sendig/dart-1-2/datasets/FM", "title": "Fetal Measurements", "type": "SDTM Dataset"}, "parentProduct": {"href": "/mdr/sendig/dart-1-2", "title": "Standard for Exchange of Nonclinical Data Implementation Guide: Developmental and Reproductive Toxicology Version 1.2", "type": "Implementation Guide"}, "priorVersion": {"href": "/mdr/sendig/dart-1-1/datasets/FM/variables/FMORRESU", "title": "Unit of the Original Result", "type": "SDTM Dataset Variable"}, "rootItem": {"href": "/mdr/root/sendig/datasets/FM/variables/FMORRESU", "title": "Version-agnostic anchor resource for SENDIG variable FM.FMORRESU", "type": "Root Data Element"}, "self": {"href": "/mdr/sendig/dart-1-2/datasets/FM/variables/FMORRESU", "title": "Unit of the Original Result", "type": "SDTM Dataset Variable"}}, "codelistSubmissionValues": ["UNIT"], "core": "Exp", "description": "The unit of the original result if applicable for a numeric result. The unit of the original result should be mapped to a synonymous unit on the Controlled Terminology list.", "label": "Unit of the Original Result", "name": "FMORRESU", "ordinal": "10", "role": "Variable Qualifier", "simpleDatatype": "Char"}, {"_links": {"codelist": [{"href": "/mdr/root/ct/sendct/codelists/C124320", "title": "Version-agnostic anchor resource for codelist C124320", "type": "Root Value Domain"}], "modelClassVariable": {"href": "/mdr/sdtm/1-6/classes/Findings/variables/--STRESC", "title": "Result or Finding in Standard Format", "type": "Class Variable"}, "parentDataset": {"href": "/mdr/sendig/dart-1-2/datasets/FM", "title": "Fetal Measurements", "type": "SDTM Dataset"}, "parentProduct": {"href": "/mdr/sendig/dart-1-2", "title": "Standard for Exchange of Nonclinical Data Implementation Guide: Developmental and Reproductive Toxicology Version 1.2", "type": "Implementation Guide"}, "priorVersion": {"href": "/mdr/sendig/dart-1-1/datasets/FM/variables/FMSTRESC", "title": "Standardized Results in Character Format", "type": "SDTM Dataset Variable"}, "rootItem": {"href": "/mdr/root/sendig/datasets/FM/variables/FMSTRESC", "title": "Version-agnostic anchor resource for SENDIG variable FM.FMSTRESC", "type": "Root Data Element"}, "self": {"href": "/mdr/sendig/dart-1-2/datasets/FM/variables/FMSTRESC", "title": "Standardized Result in Character Format", "type": "SDTM Dataset Variable"}}, "codelistSubmissionValues": ["NCDSEX"], "core": "Exp", "description": "Contains the result value for all findings, copied or derived from FMORRES in a standard format or standard unit. If results are numeric, they should also be stored in numeric format in FMSTRESN. When FMTESTCD is SEXFETAL, FMSTRESC must use the controlled terminology list NCDSEX.", "label": "Standardized Result in Character Format", "name": "FMSTRESC", "ordinal": "11", "role": "Result Qualifier", "simpleDatatype": "Char"}, {"_links": {"modelClassVariable": {"href": "/mdr/sdtm/1-6/classes/Findings/variables/--STRESN", "title": "Numeric Result/Finding in Standard Units", "type": "Class Variable"}, "parentDataset": {"href": "/mdr/sendig/dart-1-2/datasets/FM", "title": "Fetal Measurements", "type": "SDTM Dataset"}, "parentProduct": {"href": "/mdr/sendig/dart-1-2", "title": "Standard for Exchange of Nonclinical Data Implementation Guide: Developmental and Reproductive Toxicology Version 1.2", "type": "Implementation Guide"}, "priorVersion": {"href": "/mdr/sendig/dart-1-1/datasets/FM/variables/FMSTRESN", "title": "Standardized Results in Numeric Format", "type": "SDTM Dataset Variable"}, "rootItem": {"href": "/mdr/root/sendig/datasets/FM/variables/FMSTRESN", "title": "Version-agnostic anchor resource for SENDIG variable FM.FMSTRESN", "type": "Root Data Element"}, "self": {"href": "/mdr/sendig/dart-1-2/datasets/FM/variables/FMSTRESN", "title": "Standardized Result in Numeric Format", "type": "SDTM Dataset Variable"}}, "core": "Exp", "description": "Used for results or findings in standard format; contains the numeric form of FMSTRESC. FMSTRESN should store all numeric test results or findings.", "label": "Standardized Result in Numeric Format", "name": "FMSTRESN", "ordinal": "12", "role": "Result Qualifier", "simpleDatatype": "Num"}, {"_links": {"codelist": [{"href": "/mdr/root/ct/sendct/codelists/C71620", "title": "Version-agnostic anchor resource for codelist C71620", "type": "Root Value Domain"}], "modelClassVariable": {"href": "/mdr/sdtm/1-6/classes/Findings/variables/--STRESU", "title": "Standard Units", "type": "Class Variable"}, "parentDataset": {"href": "/mdr/sendig/dart-1-2/datasets/FM", "title": "Fetal Measurements", "type": "SDTM Dataset"}, "parentProduct": {"href": "/mdr/sendig/dart-1-2", "title": "Standard for Exchange of Nonclinical Data Implementation Guide: Developmental and Reproductive Toxicology Version 1.2", "type": "Implementation Guide"}, "priorVersion": {"href": "/mdr/sendig/dart-1-1/datasets/FM/variables/FMSTRESU", "title": "Unit of the Standardized Result", "type": "SDTM Dataset Variable"}, "rootItem": {"href": "/mdr/root/sendig/datasets/FM/variables/FMSTRESU", "title": "Version-agnostic anchor resource for SENDIG variable FM.FMSTRESU", "type": "Root Data Element"}, "self": {"href": "/mdr/sendig/dart-1-2/datasets/FM/variables/FMSTRESU", "title": "Unit of the Standardized Result", "type": "SDTM Dataset Variable"}}, "codelistSubmissionValues": ["UNIT"], "core": "Exp", "description": "Standardized unit used for FMSTRESC or FMSTRESN.", "label": "Unit of the Standardized Result", "name": "FMSTRESU", "ordinal": "13", "role": "Variable Qualifier", "simpleDatatype": "Char"}, {"_links": {"codelist": [{"href": "/mdr/root/ct/sendct/codelists/C66789", "title": "Version-agnostic anchor resource for codelist C66789", "type": "Root Value Domain"}], "modelClassVariable": {"href": "/mdr/sdtm/1-6/classes/Findings/variables/--STAT", "title": "Completion Status", "type": "Class Variable"}, "parentDataset": {"href": "/mdr/sendig/dart-1-2/datasets/FM", "title": "Fetal Measurements", "type": "SDTM Dataset"}, "parentProduct": {"href": "/mdr/sendig/dart-1-2", "title": "Standard for Exchange of Nonclinical Data Implementation Guide: Developmental and Reproductive Toxicology Version 1.2", "type": "Implementation Guide"}, "priorVersion": {"href": "/mdr/sendig/dart-1-1/datasets/FM/variables/FMSTAT", "title": "Completion Status", "type": "SDTM Dataset Variable"}, "rootItem": {"href": "/mdr/root/sendig/datasets/FM/variables/FMSTAT", "title": "Version-agnostic anchor resource for SENDIG variable FM.FMSTAT", "type": "Root Data Element"}, "self": {"href": "/mdr/sendig/dart-1-2/datasets/FM/variables/FMSTAT", "title": "Completion Status", "type": "SDTM Dataset Variable"}}, "codelistSubmissionValues": ["ND"], "core": "Perm", "description": "Used to indicate when a test or examination was not done or a result is missing. Should be null if a result exists in FMORRES.", "label": "Completion Status", "name": "FMSTAT", "ordinal": "14", "role": "Record Qualifier", "simpleDatatype": "Char"}, {"_links": {"modelClassVariable": {"href": "/mdr/sdtm/1-6/classes/Findings/variables/--REASND", "title": "Reason Not Done", "type": "Class Variable"}, "parentDataset": {"href": "/mdr/sendig/dart-1-2/datasets/FM", "title": "Fetal Measurements", "type": "SDTM Dataset"}, "parentProduct": {"href": "/mdr/sendig/dart-1-2", "title": "Standard for Exchange of Nonclinical Data Implementation Guide: Developmental and Reproductive Toxicology Version 1.2", "type": "Implementation Guide"}, "priorVersion": {"href": "/mdr/sendig/dart-1-1/datasets/FM/variables/FMREASND", "title": "Reason Not Done", "type": "SDTM Dataset Variable"}, "rootItem": {"href": "/mdr/root/sendig/datasets/FM/variables/FMREASND", "title": "Version-agnostic anchor resource for SENDIG variable FM.FMREASND", "type": "Root Data Element"}, "self": {"href": "/mdr/sendig/dart-1-2/datasets/FM/variables/FMREASND", "title": "Reason Not Done", "type": "SDTM Dataset Variable"}}, "core": "Perm", "description": "Describes why FMSTAT is NOT DONE. Use only in conjunction with FMSTAT when value is NOT DONE.", "label": "Reason Not Done", "name": "FMREASND", "ordinal": "15", "role": "Record Qualifier", "simpleDatatype": "Char"}, {"_links": {"modelClassVariable": {"href": "/mdr/sdtm/1-6/classes/Findings/variables/--ANTREG", "title": "Anatomical Region", "type": "Class Variable"}, "parentDataset": {"href": "/mdr/sendig/dart-1-2/datasets/FM", "title": "Fetal Measurements", "type": "SDTM Dataset"}, "parentProduct": {"href": "/mdr/sendig/dart-1-2", "title": "Standard for Exchange of Nonclinical Data Implementation Guide: Developmental and Reproductive Toxicology Version 1.2", "type": "Implementation Guide"}, "priorVersion": {"href": "/mdr/sendig/dart-1-1/datasets/FM/variables/FMANTREG", "title": "Anatomical Region", "type": "SDTM Dataset Variable"}, "rootItem": {"href": "/mdr/root/sendig/datasets/FM/variables/FMANTREG", "title": "Version-agnostic anchor resource for SENDIG variable FM.FMANTREG", "type": "Root Data Element"}, "self": {"href": "/mdr/sendig/dart-1-2/datasets/FM/variables/FMANTREG", "title": "Anatomical Region", "type": "SDTM Dataset Variable"}}, "core": "Perm", "description": "Defines the specific anatomical or biological region of a tissue, organ specimen or the region from which the specimen is obtained, as defined in the protocol, such as a section or part of what is described in the FMLOC variable. Examples: CORTEX, MEDULLA, MUCOSA.", "label": "Anatomical Region", "name": "FMANTREG", "ordinal": "16", "role": "Variable Qualifier", "simpleDatatype": "Char"}, {"_links": {"codelist": [{"href": "/mdr/root/ct/sendct/codelists/C74456", "title": "Version-agnostic anchor resource for codelist C74456", "type": "Root Value Domain"}], "modelClassVariable": {"href": "/mdr/sdtm/1-6/classes/Findings/variables/--LOC", "title": "Location Used for the Measurement", "type": "Class Variable"}, "parentDataset": {"href": "/mdr/sendig/dart-1-2/datasets/FM", "title": "Fetal Measurements", "type": "SDTM Dataset"}, "parentProduct": {"href": "/mdr/sendig/dart-1-2", "title": "Standard for Exchange of Nonclinical Data Implementation Guide: Developmental and Reproductive Toxicology Version 1.2", "type": "Implementation Guide"}, "priorVersion": {"href": "/mdr/sendig/dart-1-1/datasets/FM/variables/FMLOC", "title": "Location Used for the Measurement", "type": "SDTM Dataset Variable"}, "rootItem": {"href": "/mdr/root/sendig/datasets/FM/variables/FMLOC", "title": "Version-agnostic anchor resource for SENDIG variable FM.FMLOC", "type": "Root Data Element"}, "self": {"href": "/mdr/sendig/dart-1-2/datasets/FM/variables/FMLOC", "title": "Location Used for the Measurement", "type": "SDTM Dataset Variable"}}, "codelistSubmissionValues": ["LOC"], "core": "Exp", "description": "Anatomical location of the fetus relevant to the collection of the measurement. The protocol or procedural location targeted for examination. Examples: CAUDAL VERTEBRA, BODY.", "label": "Location Used for the Measurement", "name": "FMLOC", "ordinal": "17", "role": "Record Qualifier", "simpleDatatype": "Char"}, {"_links": {"codelist": [{"href": "/mdr/root/ct/sendct/codelists/C99073", "title": "Version-agnostic anchor resource for codelist C99073", "type": "Root Value Domain"}], "modelClassVariable": {"href": "/mdr/sdtm/1-6/classes/Findings/variables/--LAT", "title": "Laterality", "type": "Class Variable"}, "parentDataset": {"href": "/mdr/sendig/dart-1-2/datasets/FM", "title": "Fetal Measurements", "type": "SDTM Dataset"}, "parentProduct": {"href": "/mdr/sendig/dart-1-2", "title": "Standard for Exchange of Nonclinical Data Implementation Guide: Developmental and Reproductive Toxicology Version 1.2", "type": "Implementation Guide"}, "priorVersion": {"href": "/mdr/sendig/dart-1-1/datasets/FM/variables/FMLAT", "title": "Laterality", "type": "SDTM Dataset Variable"}, "rootItem": {"href": "/mdr/root/sendig/datasets/FM/variables/FMLAT", "title": "Version-agnostic anchor resource for SENDIG variable FM.FMLAT", "type": "Root Data Element"}, "self": {"href": "/mdr/sendig/dart-1-2/datasets/FM/variables/FMLAT", "title": "Laterality", "type": "SDTM Dataset Variable"}}, "codelistSubmissionValues": ["LAT"], "core": "Perm", "description": "Qualifier for laterality of the test location (FMLOC). Example: LEFT, RIGHT, BILATERAL.", "label": "Laterality", "name": "FMLAT", "ordinal": "18", "role": "Record Qualifier", "simpleDatatype": "Char"}, {"_links": {"codelist": [{"href": "/mdr/root/ct/sendct/codelists/C66742", "title": "Version-agnostic anchor resource for codelist C66742", "type": "Root Value Domain"}], "modelClassVariable": {"href": "/mdr/sdtm/1-6/classes/Findings/variables/--EXCLFL", "title": "Exclude from Statistics", "type": "Class Variable"}, "parentDataset": {"href": "/mdr/sendig/dart-1-2/datasets/FM", "title": "Fetal Measurements", "type": "SDTM Dataset"}, "parentProduct": {"href": "/mdr/sendig/dart-1-2", "title": "Standard for Exchange of Nonclinical Data Implementation Guide: Developmental and Reproductive Toxicology Version 1.2", "type": "Implementation Guide"}, "priorVersion": {"href": "/mdr/sendig/dart-1-1/datasets/FM/variables/FMEXCLFL", "title": "Exclusion Flag", "type": "SDTM Dataset Variable"}, "rootItem": {"href": "/mdr/root/sendig/datasets/FM/variables/FMEXCLFL", "title": "Version-agnostic anchor resource for SENDIG variable FM.FMEXCLFL", "type": "Root Data Element"}, "self": {"href": "/mdr/sendig/dart-1-2/datasets/FM/variables/FMEXCLFL", "title": "Exclusion Flag", "type": "SDTM Dataset Variable"}}, "codelistSubmissionValues": ["NY"], "core": "Perm", "description": "Indicates whether the \"result\" value for a record should be excluded from summary statistical calculations. Expected to be Y or Null. FMEXCLFL should not be used when FMSTAT is ND (Not Done).", "label": "Exclusion Flag", "name": "FMEXCLFL", "ordinal": "19", "role": "Record Qualifier", "simpleDatatype": "Char"}, {"_links": {"modelClassVariable": {"href": "/mdr/sdtm/1-6/classes/Findings/variables/--REASEX", "title": "Reason for Exclusion from Statistics", "type": "Class Variable"}, "parentDataset": {"href": "/mdr/sendig/dart-1-2/datasets/FM", "title": "Fetal Measurements", "type": "SDTM Dataset"}, "parentProduct": {"href": "/mdr/sendig/dart-1-2", "title": "Standard for Exchange of Nonclinical Data Implementation Guide: Developmental and Reproductive Toxicology Version 1.2", "type": "Implementation Guide"}, "priorVersion": {"href": "/mdr/sendig/dart-1-1/datasets/FM/variables/FMREASEX", "title": "Reason for Exclusion", "type": "SDTM Dataset Variable"}, "rootItem": {"href": "/mdr/root/sendig/datasets/FM/variables/FMREASEX", "title": "Version-agnostic anchor resource for SENDIG variable FM.FMREASEX", "type": "Root Data Element"}, "self": {"href": "/mdr/sendig/dart-1-2/datasets/FM/variables/FMREASEX", "title": "Reason for Exclusion", "type": "SDTM Dataset Variable"}}, "core": "Perm", "description": "The reason the result should be excluded from all calculations. Used only when FMEXCLFL value is Y.", "label": "Reason for Exclusion", "name": "FMREASEX", "ordinal": "20", "role": "Record Qualifier", "simpleDatatype": "Char"}, {"_links": {"codelist": [{"href": "/mdr/root/ct/sendct/codelists/C124321", "title": "Version-agnostic anchor resource for codelist C124321", "type": "Root Value Domain"}], "modelClassVariable": {"href": "/mdr/sdtm/1-6/classes/GeneralObservations/variables/RPHASE", "title": "Repro Phase", "type": "Class Variable"}, "parentDataset": {"href": "/mdr/sendig/dart-1-2/datasets/FM", "title": "Fetal Measurements", "type": "SDTM Dataset"}, "parentProduct": {"href": "/mdr/sendig/dart-1-2", "title": "Standard for Exchange of Nonclinical Data Implementation Guide: Developmental and Reproductive Toxicology Version 1.2", "type": "Implementation Guide"}, "priorVersion": {"href": "/mdr/sendig/dart-1-1/datasets/FM/variables/RPHASE", "title": "Repro Phase", "type": "SDTM Dataset Variable"}, "rootItem": {"href": "/mdr/root/sendig/datasets/FM/variables/RPHASE", "title": "Version-agnostic anchor resource for SENDIG variable FM.RPHASE", "type": "Root Data Element"}, "self": {"href": "/mdr/sendig/dart-1-2/datasets/FM/variables/RPHASE", "title": "Repro Phase", "type": "SDTM Dataset Variable"}}, "codelistSubmissionValues": ["NCDPHASE"], "core": "Perm", "description": "Name of the Reproductive Phase associated with date/time of the observation. RPHASE is required when any Repro Phase timing variable is used.", "label": "Repro Phase", "name": "RPHASE", "ordinal": "21", "role": "Timing", "simpleDatatype": "Char"}, {"_links": {"modelClassVariable": {"href": "/mdr/sdtm/1-6/classes/GeneralObservations/variables/RPPLDY", "title": "Planned Repro Phase Day of Observation", "type": "Class Variable"}, "parentDataset": {"href": "/mdr/sendig/dart-1-2/datasets/FM", "title": "Fetal Measurements", "type": "SDTM Dataset"}, "parentProduct": {"href": "/mdr/sendig/dart-1-2", "title": "Standard for Exchange of Nonclinical Data Implementation Guide: Developmental and Reproductive Toxicology Version 1.2", "type": "Implementation Guide"}, "priorVersion": {"href": "/mdr/sendig/dart-1-1/datasets/FM/variables/RPPLDY", "title": "Planned Repro Phase Day", "type": "SDTM Dataset Variable"}, "rootItem": {"href": "/mdr/root/sendig/datasets/FM/variables/RPPLDY", "title": "Version-agnostic anchor resource for SENDIG variable FM.RPPLDY", "type": "Root Data Element"}, "self": {"href": "/mdr/sendig/dart-1-2/datasets/FM/variables/RPPLDY", "title": "Planned Repro Phase Day of Observation", "type": "SDTM Dataset Variable"}}, "core": "Perm", "description": "Planned day within the Reproductive Phase on which the measurement was scheduled to occur. Used in conjunction with RPHASE. Should be an integer.", "label": "Planned Repro Phase Day of Observation", "name": "RPPLDY", "ordinal": "22", "role": "Timing", "simpleDatatype": "Num"}, {"_links": {"modelClassVariable": {"href": "/mdr/sdtm/1-6/classes/GeneralObservations/variables/--DTC", "title": "Date/Time of Collection", "type": "Class Variable"}, "parentDataset": {"href": "/mdr/sendig/dart-1-2/datasets/FM", "title": "Fetal Measurements", "type": "SDTM Dataset"}, "parentProduct": {"href": "/mdr/sendig/dart-1-2", "title": "Standard for Exchange of Nonclinical Data Implementation Guide: Developmental and Reproductive Toxicology Version 1.2", "type": "Implementation Guide"}, "priorVersion": {"href": "/mdr/sendig/dart-1-1/datasets/FM/variables/FMDTC", "title": "Date/Time", "type": "SDTM Dataset Variable"}, "rootItem": {"href": "/mdr/root/sendig/datasets/FM/variables/FMDTC", "title": "Version-agnostic anchor resource for SENDIG variable FM.FMDTC", "type": "Root Data Element"}, "self": {"href": "/mdr/sendig/dart-1-2/datasets/FM/variables/FMDTC", "title": "Date/Time", "type": "SDTM Dataset Variable"}}, "core": "Perm", "describedValueDomain": "ISO 8601", "description": "Collection date and time of the measurement represented in ISO 8601 format. For post mortem observations, this is the date/time of subject disposition in ISO 8601 format.", "label": "Date/Time", "name": "FMDTC", "ordinal": "23", "role": "Timing", "simpleDatatype": "Char"}, {"_links": {"modelClassVariable": {"href": "/mdr/sdtm/1-6/classes/GeneralObservations/variables/--DY", "title": "Study Day of Visit/Collection/Exam", "type": "Class Variable"}, "parentDataset": {"href": "/mdr/sendig/dart-1-2/datasets/FM", "title": "Fetal Measurements", "type": "SDTM Dataset"}, "parentProduct": {"href": "/mdr/sendig/dart-1-2", "title": "Standard for Exchange of Nonclinical Data Implementation Guide: Developmental and Reproductive Toxicology Version 1.2", "type": "Implementation Guide"}, "priorVersion": {"href": "/mdr/sendig/dart-1-1/datasets/FM/variables/FMDY", "title": "Study Day", "type": "SDTM Dataset Variable"}, "rootItem": {"href": "/mdr/root/sendig/datasets/FM/variables/FMDY", "title": "Version-agnostic anchor resource for SENDIG variable FM.FMDY", "type": "Root Data Element"}, "self": {"href": "/mdr/sendig/dart-1-2/datasets/FM/variables/FMDY", "title": "Study Day", "type": "SDTM Dataset Variable"}}, "core": "Perm", "description": "Study day of the measurement expressed in integer days relative to the protocol-defined RFSTDTC.", "label": "Study Day", "name": "FMDY", "ordinal": "24", "role": "Timing", "simpleDatatype": "Num"}, {"_links": {"modelClassVariable": {"href": "/mdr/sdtm/1-6/classes/GeneralObservations/variables/--RPDY", "title": "Actual Repro Phase Day of Observation", "type": "Class Variable"}, "parentDataset": {"href": "/mdr/sendig/dart-1-2/datasets/FM", "title": "Fetal Measurements", "type": "SDTM Dataset"}, "parentProduct": {"href": "/mdr/sendig/dart-1-2", "title": "Standard for Exchange of Nonclinical Data Implementation Guide: Developmental and Reproductive Toxicology Version 1.2", "type": "Implementation Guide"}, "priorVersion": {"href": "/mdr/sendig/dart-1-1/datasets/FM/variables/FMRPDY", "title": "Actual Repro Phase Day", "type": "SDTM Dataset Variable"}, "rootItem": {"href": "/mdr/root/sendig/datasets/FM/variables/FMRPDY", "title": "Version-agnostic anchor resource for SENDIG variable FM.FMRPDY", "type": "Root Data Element"}, "self": {"href": "/mdr/sendig/dart-1-2/datasets/FM/variables/FMRPDY", "title": "Actual Repro Phase Day of Observation", "type": "SDTM Dataset Variable"}}, "core": "Perm", "description": "Actual day within the Reproductive Phase on which the measurement occurred. Used in conjunction with RPHASE. Should be an integer.", "label": "Actual Repro Phase Day of Observation", "name": "FMRPDY", "ordinal": "25", "role": "Timing", "simpleDatatype": "Num"}], "label": "Fetal Measurements", "name": "FM", "ordinal": "7"}
