{"_links": {"parentClass": {"href": "/mdr/sendig/dart-1-2/classes/Findings", "title": "Findings Observation Class", "type": "Class"}, "parentProduct": {"href": "/mdr/sendig/dart-1-2", "title": "Standard for Exchange of Nonclinical Data Implementation Guide: Developmental and Reproductive Toxicology Version 1.2", "type": "Implementation Guide"}, "priorVersion": {"href": "/mdr/sendig/dart-1-1/datasets/FX", "title": "Fetal Pathology Findings", "type": "SDTM Dataset"}, "self": {"href": "/mdr/sendig/dart-1-2/datasets/FX", "title": "Fetal Pathology Findings", "type": "SDTM Dataset"}}, "datasetStructure": "One record per category per finding per specimen per fetus per subject", "datasetVariables": [{"_links": {"modelClassVariable": {"href": "/mdr/sdtm/1-6/classes/GeneralObservations/variables/STUDYID", "title": "Study Identifier", "type": "Class Variable"}, "parentDataset": {"href": "/mdr/sendig/dart-1-2/datasets/FX", "title": "Fetal Pathology Findings", "type": "SDTM Dataset"}, "parentProduct": {"href": "/mdr/sendig/dart-1-2", "title": "Standard for Exchange of Nonclinical Data Implementation Guide: Developmental and Reproductive Toxicology Version 1.2", "type": "Implementation Guide"}, "priorVersion": {"href": "/mdr/sendig/dart-1-1/datasets/FX/variables/STUDYID", "title": "Study Identifier", "type": "SDTM Dataset Variable"}, "rootItem": {"href": "/mdr/root/sendig/datasets/FX/variables/STUDYID", "title": "Version-agnostic anchor resource for SENDIG variable FX.STUDYID", "type": "Root Data Element"}, "self": {"href": "/mdr/sendig/dart-1-2/datasets/FX/variables/STUDYID", "title": "Study Identifier", "type": "SDTM Dataset Variable"}}, "core": "Req", "description": "Unique identifier for a study.", "label": "Study Identifier", "name": "STUDYID", "ordinal": "1", "role": "Identifier", "simpleDatatype": "Char"}, {"_links": {"modelClassVariable": {"href": "/mdr/sdtm/1-6/classes/GeneralObservations/variables/DOMAIN", "title": "Domain Abbreviation", "type": "Class Variable"}, "parentDataset": {"href": "/mdr/sendig/dart-1-2/datasets/FX", "title": "Fetal Pathology Findings", "type": "SDTM Dataset"}, "parentProduct": {"href": "/mdr/sendig/dart-1-2", "title": "Standard for Exchange of Nonclinical Data Implementation Guide: Developmental and Reproductive Toxicology Version 1.2", "type": "Implementation Guide"}, "priorVersion": {"href": "/mdr/sendig/dart-1-1/datasets/FX/variables/DOMAIN", "title": "Domain Abbreviation", "type": "SDTM Dataset Variable"}, "rootItem": {"href": "/mdr/root/sendig/datasets/FX/variables/DOMAIN", "title": "Version-agnostic anchor resource for SENDIG variable FX.DOMAIN", "type": "Root Data Element"}, "self": {"href": "/mdr/sendig/dart-1-2/datasets/FX/variables/DOMAIN", "title": "Domain Abbreviation", "type": "SDTM Dataset Variable"}}, "core": "Req", "description": "Two-character abbreviation for the domain.", "label": "Domain Abbreviation", "name": "DOMAIN", "ordinal": "2", "role": "Identifier", "simpleDatatype": "Char", "valueList": ["FX"]}, {"_links": {"modelClassVariable": {"href": "/mdr/sdtm/1-6/classes/GeneralObservations/variables/USUBJID", "title": "Unique Subject Identifier", "type": "Class Variable"}, "parentDataset": {"href": "/mdr/sendig/dart-1-2/datasets/FX", "title": "Fetal Pathology Findings", "type": "SDTM Dataset"}, "parentProduct": {"href": "/mdr/sendig/dart-1-2", "title": "Standard for Exchange of Nonclinical Data Implementation Guide: Developmental and Reproductive Toxicology Version 1.2", "type": "Implementation Guide"}, "priorVersion": {"href": "/mdr/sendig/dart-1-1/datasets/FX/variables/USUBJID", "title": "Unique Subject Identifier", "type": "SDTM Dataset Variable"}, "rootItem": {"href": "/mdr/root/sendig/datasets/FX/variables/USUBJID", "title": "Version-agnostic anchor resource for SENDIG variable FX.USUBJID", "type": "Root Data Element"}, "self": {"href": "/mdr/sendig/dart-1-2/datasets/FX/variables/USUBJID", "title": "Unique Subject Identifier", "type": "SDTM Dataset Variable"}}, "core": "Req", "description": "Identifier used to uniquely identify a subject across all studies for all applications or submissions involving the product.", "label": "Unique Subject Identifier", "name": "USUBJID", "ordinal": "3", "role": "Identifier", "simpleDatatype": "Char"}, {"_links": {"modelClassVariable": {"href": "/mdr/sdtm/1-6/classes/GeneralObservations/variables/FETUSID", "title": "Fetus Identifier", "type": "Class Variable"}, "parentDataset": {"href": "/mdr/sendig/dart-1-2/datasets/FX", "title": "Fetal Pathology Findings", "type": "SDTM Dataset"}, "parentProduct": {"href": "/mdr/sendig/dart-1-2", "title": "Standard for Exchange of Nonclinical Data Implementation Guide: Developmental and Reproductive Toxicology Version 1.2", "type": "Implementation Guide"}, "priorVersion": {"href": "/mdr/sendig/dart-1-1/datasets/FX/variables/FETUSID", "title": "Unique Fetus Identifier", "type": "SDTM Dataset Variable"}, "rootItem": {"href": "/mdr/root/sendig/datasets/FX/variables/FETUSID", "title": "Version-agnostic anchor resource for SENDIG variable FX.FETUSID", "type": "Root Data Element"}, "self": {"href": "/mdr/sendig/dart-1-2/datasets/FX/variables/FETUSID", "title": "Unique Fetus Identifier", "type": "SDTM Dataset Variable"}}, "core": "Req", "description": "Identifier used to identify a fetus from a maternal subject for prenatal evaluations. Unique per USUBJID across a study.", "label": "Unique Fetus Identifier", "name": "FETUSID", "ordinal": "4", "role": "Identifier", "simpleDatatype": "Char"}, {"_links": {"modelClassVariable": {"href": "/mdr/sdtm/1-6/classes/GeneralObservations/variables/--SEQ", "title": "Sequence Number", "type": "Class Variable"}, "parentDataset": {"href": "/mdr/sendig/dart-1-2/datasets/FX", "title": "Fetal Pathology Findings", "type": "SDTM Dataset"}, "parentProduct": {"href": "/mdr/sendig/dart-1-2", "title": "Standard for Exchange of Nonclinical Data Implementation Guide: Developmental and Reproductive Toxicology Version 1.2", "type": "Implementation Guide"}, "priorVersion": {"href": "/mdr/sendig/dart-1-1/datasets/FX/variables/FXSEQ", "title": "Sequence Number", "type": "SDTM Dataset Variable"}, "rootItem": {"href": "/mdr/root/sendig/datasets/FX/variables/FXSEQ", "title": "Version-agnostic anchor resource for SENDIG variable FX.FXSEQ", "type": "Root Data Element"}, "self": {"href": "/mdr/sendig/dart-1-2/datasets/FX/variables/FXSEQ", "title": "Sequence Number", "type": "SDTM Dataset Variable"}}, "core": "Req", "description": "Sequence number given to ensure uniqueness of subject records within a domain. May be any valid number.", "label": "Sequence Number", "name": "FXSEQ", "ordinal": "5", "role": "Identifier", "simpleDatatype": "Num"}, {"_links": {"modelClassVariable": {"href": "/mdr/sdtm/1-6/classes/GeneralObservations/variables/--GRPID", "title": "Group ID", "type": "Class Variable"}, "parentDataset": {"href": "/mdr/sendig/dart-1-2/datasets/FX", "title": "Fetal Pathology Findings", "type": "SDTM Dataset"}, "parentProduct": {"href": "/mdr/sendig/dart-1-2", "title": "Standard for Exchange of Nonclinical Data Implementation Guide: Developmental and Reproductive Toxicology Version 1.2", "type": "Implementation Guide"}, "priorVersion": {"href": "/mdr/sendig/dart-1-1/datasets/FX/variables/FXGRPID", "title": "Group Identifier", "type": "SDTM Dataset Variable"}, "rootItem": {"href": "/mdr/root/sendig/datasets/FX/variables/FXGRPID", "title": "Version-agnostic anchor resource for SENDIG variable FX.FXGRPID", "type": "Root Data Element"}, "self": {"href": "/mdr/sendig/dart-1-2/datasets/FX/variables/FXGRPID", "title": "Group Identifier", "type": "SDTM Dataset Variable"}}, "core": "Perm", "description": "Optional group identifier, used to link together a block of related records within a subject in a domain. This is not the treatment group number.", "label": "Group Identifier", "name": "FXGRPID", "ordinal": "6", "role": "Identifier", "simpleDatatype": "Char"}, {"_links": {"modelClassVariable": {"href": "/mdr/sdtm/1-6/classes/GeneralObservations/variables/--REFID", "title": "Reference ID", "type": "Class Variable"}, "parentDataset": {"href": "/mdr/sendig/dart-1-2/datasets/FX", "title": "Fetal Pathology Findings", "type": "SDTM Dataset"}, "parentProduct": {"href": "/mdr/sendig/dart-1-2", "title": "Standard for Exchange of Nonclinical Data Implementation Guide: Developmental and Reproductive Toxicology Version 1.2", "type": "Implementation Guide"}, "priorVersion": {"href": "/mdr/sendig/dart-1-1/datasets/FX/variables/FXREFID", "title": "Reference ID", "type": "SDTM Dataset Variable"}, "rootItem": {"href": "/mdr/root/sendig/datasets/FX/variables/FXREFID", "title": "Version-agnostic anchor resource for SENDIG variable FX.FXREFID", "type": "Root Data Element"}, "self": {"href": "/mdr/sendig/dart-1-2/datasets/FX/variables/FXREFID", "title": "Reference ID", "type": "SDTM Dataset Variable"}}, "core": "Perm", "description": "Optional internal or external identifier such as lab specimen ID.", "label": "Reference ID", "name": "FXREFID", "ordinal": "7", "role": "Identifier", "simpleDatatype": "Char"}, {"_links": {"codelist": [{"href": "/mdr/root/ct/sendct/codelists/C124314", "title": "Version-agnostic anchor resource for codelist C124314", "type": "Root Value Domain"}], "modelClassVariable": {"href": "/mdr/sdtm/1-6/classes/Findings/variables/--TESTCD", "title": "Short Name of Measurement, Test or Examination", "type": "Class Variable"}, "parentDataset": {"href": "/mdr/sendig/dart-1-2/datasets/FX", "title": "Fetal Pathology Findings", "type": "SDTM Dataset"}, "parentProduct": {"href": "/mdr/sendig/dart-1-2", "title": "Standard for Exchange of Nonclinical Data Implementation Guide: Developmental and Reproductive Toxicology Version 1.2", "type": "Implementation Guide"}, "priorVersion": {"href": "/mdr/sendig/dart-1-1/datasets/FX/variables/FXTESTCD", "title": "Test Short Name", "type": "SDTM Dataset Variable"}, "rootItem": {"href": "/mdr/root/sendig/datasets/FX/variables/FXTESTCD", "title": "Version-agnostic anchor resource for SENDIG variable FX.FXTESTCD", "type": "Root Data Element"}, "self": {"href": "/mdr/sendig/dart-1-2/datasets/FX/variables/FXTESTCD", "title": "Test Short Name", "type": "SDTM Dataset Variable"}}, "codelistSubmissionValues": ["FXTESTCD"], "core": "Req", "description": "Short name of the test described in FXTEST. The value in FXTESTCD cannot be longer than 8 characters, nor can it start with a number (e.g. \"1TEST\"). FXTESTCD cannot contain characters other than letters, numbers, or underscores.", "label": "Test Short Name", "name": "FXTESTCD", "ordinal": "8", "role": "Topic", "simpleDatatype": "Char"}, {"_links": {"codelist": [{"href": "/mdr/root/ct/sendct/codelists/C124315", "title": "Version-agnostic anchor resource for codelist C124315", "type": "Root Value Domain"}], "modelClassVariable": {"href": "/mdr/sdtm/1-6/classes/Findings/variables/--TEST", "title": "Name of Measurement, Test or Examination", "type": "Class Variable"}, "parentDataset": {"href": "/mdr/sendig/dart-1-2/datasets/FX", "title": "Fetal Pathology Findings", "type": "SDTM Dataset"}, "parentProduct": {"href": "/mdr/sendig/dart-1-2", "title": "Standard for Exchange of Nonclinical Data Implementation Guide: Developmental and Reproductive Toxicology Version 1.2", "type": "Implementation Guide"}, "priorVersion": {"href": "/mdr/sendig/dart-1-1/datasets/FX/variables/FXTEST", "title": "Fetal Exam Name", "type": "SDTM Dataset Variable"}, "rootItem": {"href": "/mdr/root/sendig/datasets/FX/variables/FXTEST", "title": "Version-agnostic anchor resource for SENDIG variable FX.FXTEST", "type": "Root Data Element"}, "self": {"href": "/mdr/sendig/dart-1-2/datasets/FX/variables/FXTEST", "title": "Fetal Exam Name", "type": "SDTM Dataset Variable"}}, "codelistSubmissionValues": ["FXTEST"], "core": "Req", "description": "Long name for FXTESTCD. The value in FXTEST cannot be longer than 40 characters.", "label": "Fetal Exam Name", "name": "FXTEST", "ordinal": "9", "role": "Synonym Qualifier", "simpleDatatype": "Char"}, {"_links": {"modelClassVariable": {"href": "/mdr/sdtm/1-6/classes/Findings/variables/--ORRES", "title": "Result or Finding in Original Units", "type": "Class Variable"}, "parentDataset": {"href": "/mdr/sendig/dart-1-2/datasets/FX", "title": "Fetal Pathology Findings", "type": "SDTM Dataset"}, "parentProduct": {"href": "/mdr/sendig/dart-1-2", "title": "Standard for Exchange of Nonclinical Data Implementation Guide: Developmental and Reproductive Toxicology Version 1.2", "type": "Implementation Guide"}, "priorVersion": {"href": "/mdr/sendig/dart-1-1/datasets/FX/variables/FXORRES", "title": "Result or Findings as Collected", "type": "SDTM Dataset Variable"}, "rootItem": {"href": "/mdr/root/sendig/datasets/FX/variables/FXORRES", "title": "Version-agnostic anchor resource for SENDIG variable FX.FXORRES", "type": "Root Data Element"}, "self": {"href": "/mdr/sendig/dart-1-2/datasets/FX/variables/FXORRES", "title": "Result or Findings as Collected", "type": "SDTM Dataset Variable"}}, "core": "Exp", "description": "Result of the finding or measurement as originally received or collected including the morphological change observed and all modifiers.", "label": "Result or Findings as Collected", "name": "FXORRES", "ordinal": "10", "role": "Result Qualifier", "simpleDatatype": "Char"}, {"_links": {"codelist": [{"href": "/mdr/root/ct/sendct/codelists/C124310", "title": "Version-agnostic anchor resource for codelist C124310", "type": "Root Value Domain"}], "modelClassVariable": {"href": "/mdr/sdtm/1-6/classes/Findings/variables/--STRESC", "title": "Result or Finding in Standard Format", "type": "Class Variable"}, "parentDataset": {"href": "/mdr/sendig/dart-1-2/datasets/FX", "title": "Fetal Pathology Findings", "type": "SDTM Dataset"}, "parentProduct": {"href": "/mdr/sendig/dart-1-2", "title": "Standard for Exchange of Nonclinical Data Implementation Guide: Developmental and Reproductive Toxicology Version 1.2", "type": "Implementation Guide"}, "priorVersion": {"href": "/mdr/sendig/dart-1-1/datasets/FX/variables/FXSTRESC", "title": "Standardized Results in Character Format", "type": "SDTM Dataset Variable"}, "rootItem": {"href": "/mdr/root/sendig/datasets/FX/variables/FXSTRESC", "title": "Version-agnostic anchor resource for SENDIG variable FX.FXSTRESC", "type": "Root Data Element"}, "self": {"href": "/mdr/sendig/dart-1-2/datasets/FX/variables/FXSTRESC", "title": "Standardized Result in Character Format", "type": "SDTM Dataset Variable"}}, "codelistSubmissionValues": ["FXFINDRS"], "core": "Exp", "description": "Contains the morphological change observed from FXORRES in a standard format without modifiers. Or, if the examination was completed and there were no findings, the value must be UNREMARKABLE.", "label": "Standardized Result in Character Format", "name": "FXSTRESC", "ordinal": "11", "role": "Result Qualifier", "simpleDatatype": "Char"}, {"_links": {"codelist": [{"href": "/mdr/root/ct/sendct/codelists/C124313", "title": "Version-agnostic anchor resource for codelist C124313", "type": "Root Value Domain"}], "modelClassVariable": {"href": "/mdr/sdtm/1-6/classes/Findings/variables/--RESCAT", "title": "Result Category", "type": "Class Variable"}, "parentDataset": {"href": "/mdr/sendig/dart-1-2/datasets/FX", "title": "Fetal Pathology Findings", "type": "SDTM Dataset"}, "parentProduct": {"href": "/mdr/sendig/dart-1-2", "title": "Standard for Exchange of Nonclinical Data Implementation Guide: Developmental and Reproductive Toxicology Version 1.2", "type": "Implementation Guide"}, "priorVersion": {"href": "/mdr/sendig/dart-1-1/datasets/FX/variables/FXRESCAT", "title": "Result Category", "type": "SDTM Dataset Variable"}, "rootItem": {"href": "/mdr/root/sendig/datasets/FX/variables/FXRESCAT", "title": "Version-agnostic anchor resource for SENDIG variable FX.FXRESCAT", "type": "Root Data Element"}, "self": {"href": "/mdr/sendig/dart-1-2/datasets/FX/variables/FXRESCAT", "title": "Result Category", "type": "SDTM Dataset Variable"}}, "codelistSubmissionValues": ["FXRESCAT"], "core": "Exp", "description": "Used to categorize the result of a finding. Examples: MALFORMATION, VARIATION.", "label": "Result Category", "name": "FXRESCAT", "ordinal": "12", "role": "Variable Qualifier", "simpleDatatype": "Char"}, {"_links": {"codelist": [{"href": "/mdr/root/ct/sendct/codelists/C120530", "title": "Version-agnostic anchor resource for codelist C120530", "type": "Root Value Domain"}], "modelClassVariable": {"href": "/mdr/sdtm/1-6/classes/Findings/variables/--DISTR", "title": "Distribution Pattern of Finding", "type": "Class Variable"}, "parentDataset": {"href": "/mdr/sendig/dart-1-2/datasets/FX", "title": "Fetal Pathology Findings", "type": "SDTM Dataset"}, "parentProduct": {"href": "/mdr/sendig/dart-1-2", "title": "Standard for Exchange of Nonclinical Data Implementation Guide: Developmental and Reproductive Toxicology Version 1.2", "type": "Implementation Guide"}, "priorVersion": {"href": "/mdr/sendig/dart-1-1/datasets/FX/variables/FXDISTR", "title": "Distribution Pattern of Finding", "type": "SDTM Dataset Variable"}, "rootItem": {"href": "/mdr/root/sendig/datasets/FX/variables/FXDISTR", "title": "Version-agnostic anchor resource for SENDIG variable FX.FXDISTR", "type": "Root Data Element"}, "self": {"href": "/mdr/sendig/dart-1-2/datasets/FX/variables/FXDISTR", "title": "Distribution Pattern of Finding", "type": "SDTM Dataset Variable"}}, "codelistSubmissionValues": ["DSTRBN"], "core": "Perm", "description": "Distribution of a particular finding within the tissue or anatomical location affected. Multiple terms are not allowed for this variable. Examples: FOCAL, DIFFUSE, LOCALLY EXTENSIVE.", "label": "Distribution Pattern of Finding", "name": "FXDISTR", "ordinal": "13", "role": "Variable Qualifier", "simpleDatatype": "Char"}, {"_links": {"modelClassVariable": {"href": "/mdr/sdtm/1-6/classes/Findings/variables/--RESLOC", "title": "Result Location of Finding", "type": "Class Variable"}, "parentDataset": {"href": "/mdr/sendig/dart-1-2/datasets/FX", "title": "Fetal Pathology Findings", "type": "SDTM Dataset"}, "parentProduct": {"href": "/mdr/sendig/dart-1-2", "title": "Standard for Exchange of Nonclinical Data Implementation Guide: Developmental and Reproductive Toxicology Version 1.2", "type": "Implementation Guide"}, "priorVersion": {"href": "/mdr/sendig/dart-1-1/datasets/FX/variables/FXRESLOC", "title": "Result Location of Finding", "type": "SDTM Dataset Variable"}, "rootItem": {"href": "/mdr/root/sendig/datasets/FX/variables/FXRESLOC", "title": "Version-agnostic anchor resource for SENDIG variable FX.FXRESLOC", "type": "Root Data Element"}, "self": {"href": "/mdr/sendig/dart-1-2/datasets/FX/variables/FXRESLOC", "title": "Result Location of Finding", "type": "SDTM Dataset Variable"}}, "core": "Exp", "description": "Location where the result was observed (as opposed to the location specified for examination). This location may have a higher degree of specificity than the location specified for examination (FXLOC). \\n Example: if FXLOC is EAR and FXSTRESC is Absent, FXRESLOC may be \"Pinna\". \\n This field can be a combination of terms where needed. Multiple terms should be separated by a semicolon unless they only make sense together. Example: if FXLOC is SKULL and FXSTRESC is FUSED, FXRESLOC may include (if collected as the base location) \"Multiple Skull Bones\" or \"Parietal; Frontal; Supraoccipital\".", "label": "Result Location of Finding", "name": "FXRESLOC", "ordinal": "14", "role": "Result Qualifier", "simpleDatatype": "Char"}, {"_links": {"codelist": [{"href": "/mdr/root/ct/sendct/codelists/C66789", "title": "Version-agnostic anchor resource for codelist C66789", "type": "Root Value Domain"}], "modelClassVariable": {"href": "/mdr/sdtm/1-6/classes/Findings/variables/--STAT", "title": "Completion Status", "type": "Class Variable"}, "parentDataset": {"href": "/mdr/sendig/dart-1-2/datasets/FX", "title": "Fetal Pathology Findings", "type": "SDTM Dataset"}, "parentProduct": {"href": "/mdr/sendig/dart-1-2", "title": "Standard for Exchange of Nonclinical Data Implementation Guide: Developmental and Reproductive Toxicology Version 1.2", "type": "Implementation Guide"}, "priorVersion": {"href": "/mdr/sendig/dart-1-1/datasets/FX/variables/FXSTAT", "title": "Completion Status", "type": "SDTM Dataset Variable"}, "rootItem": {"href": "/mdr/root/sendig/datasets/FX/variables/FXSTAT", "title": "Version-agnostic anchor resource for SENDIG variable FX.FXSTAT", "type": "Root Data Element"}, "self": {"href": "/mdr/sendig/dart-1-2/datasets/FX/variables/FXSTAT", "title": "Completion Status", "type": "SDTM Dataset Variable"}}, "codelistSubmissionValues": ["ND"], "core": "Perm", "description": "Used to indicate when a test or examination is not done or a result is missing. Should be null if a result exists in FXORRES.", "label": "Completion Status", "name": "FXSTAT", "ordinal": "15", "role": "Record Qualifier", "simpleDatatype": "Char"}, {"_links": {"modelClassVariable": {"href": "/mdr/sdtm/1-6/classes/Findings/variables/--REASND", "title": "Reason Not Done", "type": "Class Variable"}, "parentDataset": {"href": "/mdr/sendig/dart-1-2/datasets/FX", "title": "Fetal Pathology Findings", "type": "SDTM Dataset"}, "parentProduct": {"href": "/mdr/sendig/dart-1-2", "title": "Standard for Exchange of Nonclinical Data Implementation Guide: Developmental and Reproductive Toxicology Version 1.2", "type": "Implementation Guide"}, "priorVersion": {"href": "/mdr/sendig/dart-1-1/datasets/FX/variables/FXREASND", "title": "Reason Not Done", "type": "SDTM Dataset Variable"}, "rootItem": {"href": "/mdr/root/sendig/datasets/FX/variables/FXREASND", "title": "Version-agnostic anchor resource for SENDIG variable FX.FXREASND", "type": "Root Data Element"}, "self": {"href": "/mdr/sendig/dart-1-2/datasets/FX/variables/FXREASND", "title": "Reason Not Done", "type": "SDTM Dataset Variable"}}, "core": "Perm", "description": "Describes why FXSTAT is NOT DONE. Used only in conjunction with FXSTAT when value is NOT DONE.", "label": "Reason Not Done", "name": "FXREASND", "ordinal": "16", "role": "Record Qualifier", "simpleDatatype": "Char"}, {"_links": {"modelClassVariable": {"href": "/mdr/sdtm/1-6/classes/Findings/variables/--ANTREG", "title": "Anatomical Region", "type": "Class Variable"}, "parentDataset": {"href": "/mdr/sendig/dart-1-2/datasets/FX", "title": "Fetal Pathology Findings", "type": "SDTM Dataset"}, "parentProduct": {"href": "/mdr/sendig/dart-1-2", "title": "Standard for Exchange of Nonclinical Data Implementation Guide: Developmental and Reproductive Toxicology Version 1.2", "type": "Implementation Guide"}, "priorVersion": {"href": "/mdr/sendig/dart-1-1/datasets/FX/variables/FXANTREG", "title": "Anatomical Region", "type": "SDTM Dataset Variable"}, "rootItem": {"href": "/mdr/root/sendig/datasets/FX/variables/FXANTREG", "title": "Version-agnostic anchor resource for SENDIG variable FX.FXANTREG", "type": "Root Data Element"}, "self": {"href": "/mdr/sendig/dart-1-2/datasets/FX/variables/FXANTREG", "title": "Anatomical Region", "type": "SDTM Dataset Variable"}}, "core": "Perm", "description": "Defines the specific anatomical or biological region of the measurement location (FXLOC), as defined in the protocol. Example: Coronal Sections, when FXLOC is Head for a Visceral Examination.", "label": "Anatomical Region", "name": "FXANTREG", "ordinal": "17", "role": "Variable Qualifier", "simpleDatatype": "Char"}, {"_links": {"codelist": [{"href": "/mdr/root/ct/sendct/codelists/C74456", "title": "Version-agnostic anchor resource for codelist C74456", "type": "Root Value Domain"}], "modelClassVariable": {"href": "/mdr/sdtm/1-6/classes/Findings/variables/--LOC", "title": "Location Used for the Measurement", "type": "Class Variable"}, "parentDataset": {"href": "/mdr/sendig/dart-1-2/datasets/FX", "title": "Fetal Pathology Findings", "type": "SDTM Dataset"}, "parentProduct": {"href": "/mdr/sendig/dart-1-2", "title": "Standard for Exchange of Nonclinical Data Implementation Guide: Developmental and Reproductive Toxicology Version 1.2", "type": "Implementation Guide"}, "priorVersion": {"href": "/mdr/sendig/dart-1-1/datasets/FX/variables/FXLOC", "title": "Location Used for the Measurement", "type": "SDTM Dataset Variable"}, "rootItem": {"href": "/mdr/root/sendig/datasets/FX/variables/FXLOC", "title": "Version-agnostic anchor resource for SENDIG variable FX.FXLOC", "type": "Root Data Element"}, "self": {"href": "/mdr/sendig/dart-1-2/datasets/FX/variables/FXLOC", "title": "Location Used for the Measurement", "type": "SDTM Dataset Variable"}}, "codelistSubmissionValues": ["LOC"], "core": "Exp", "description": "Anatomical location of the fetus relevant to the collection of the measurement. The protocol or procedural location targeted for examination.", "label": "Location Used for the Measurement", "name": "FXLOC", "ordinal": "18", "role": "Record Qualifier", "simpleDatatype": "Char"}, {"_links": {"codelist": [{"href": "/mdr/root/ct/sendct/codelists/C99073", "title": "Version-agnostic anchor resource for codelist C99073", "type": "Root Value Domain"}], "modelClassVariable": {"href": "/mdr/sdtm/1-6/classes/Findings/variables/--LAT", "title": "Laterality", "type": "Class Variable"}, "parentDataset": {"href": "/mdr/sendig/dart-1-2/datasets/FX", "title": "Fetal Pathology Findings", "type": "SDTM Dataset"}, "parentProduct": {"href": "/mdr/sendig/dart-1-2", "title": "Standard for Exchange of Nonclinical Data Implementation Guide: Developmental and Reproductive Toxicology Version 1.2", "type": "Implementation Guide"}, "priorVersion": {"href": "/mdr/sendig/dart-1-1/datasets/FX/variables/FXLAT", "title": "Laterality", "type": "SDTM Dataset Variable"}, "rootItem": {"href": "/mdr/root/sendig/datasets/FX/variables/FXLAT", "title": "Version-agnostic anchor resource for SENDIG variable FX.FXLAT", "type": "Root Data Element"}, "self": {"href": "/mdr/sendig/dart-1-2/datasets/FX/variables/FXLAT", "title": "Laterality", "type": "SDTM Dataset Variable"}}, "codelistSubmissionValues": ["LAT"], "core": "Perm", "description": "Qualifier for anatomical location (FXLOC) further detailing laterality. Examples: RIGHT, LEFT, BILATERAL.", "label": "Laterality", "name": "FXLAT", "ordinal": "19", "role": "Variable Qualifier", "simpleDatatype": "Char"}, {"_links": {"codelist": [{"href": "/mdr/root/ct/sendct/codelists/C99074", "title": "Version-agnostic anchor resource for codelist C99074", "type": "Root Value Domain"}], "modelClassVariable": {"href": "/mdr/sdtm/1-6/classes/Findings/variables/--DIR", "title": "Directionality", "type": "Class Variable"}, "parentDataset": {"href": "/mdr/sendig/dart-1-2/datasets/FX", "title": "Fetal Pathology Findings", "type": "SDTM Dataset"}, "parentProduct": {"href": "/mdr/sendig/dart-1-2", "title": "Standard for Exchange of Nonclinical Data Implementation Guide: Developmental and Reproductive Toxicology Version 1.2", "type": "Implementation Guide"}, "rootItem": {"href": "/mdr/root/sendig/datasets/FX/variables/FXDIR", "title": "Version-agnostic anchor resource for SENDIG variable FX.FXDIR", "type": "Root Data Element"}, "self": {"href": "/mdr/sendig/dart-1-2/datasets/FX/variables/FXDIR", "title": "Directionality", "type": "SDTM Dataset Variable"}}, "codelistSubmissionValues": ["DIR"], "core": "Perm", "description": "Qualifier for directionality of the anatomical location (FXLOC). Examples: ANTERIOR, LOWER, PROXIMAL.", "label": "Directionality", "name": "FXDIR", "ordinal": "20", "role": "Variable Qualifier", "simpleDatatype": "Char"}, {"_links": {"modelClassVariable": {"href": "/mdr/sdtm/1-6/classes/Findings/variables/--METHOD", "title": "Method of Test or Examination", "type": "Class Variable"}, "parentDataset": {"href": "/mdr/sendig/dart-1-2/datasets/FX", "title": "Fetal Pathology Findings", "type": "SDTM Dataset"}, "parentProduct": {"href": "/mdr/sendig/dart-1-2", "title": "Standard for Exchange of Nonclinical Data Implementation Guide: Developmental and Reproductive Toxicology Version 1.2", "type": "Implementation Guide"}, "priorVersion": {"href": "/mdr/sendig/dart-1-1/datasets/FX/variables/FXMETHOD", "title": "Method of Test or Examination", "type": "SDTM Dataset Variable"}, "rootItem": {"href": "/mdr/root/sendig/datasets/FX/variables/FXMETHOD", "title": "Version-agnostic anchor resource for SENDIG variable FX.FXMETHOD", "type": "Root Data Element"}, "self": {"href": "/mdr/sendig/dart-1-2/datasets/FX/variables/FXMETHOD", "title": "Method of Test or Examination", "type": "SDTM Dataset Variable"}}, "core": "Perm", "description": "Method of the test or examination. This could be type of stain or technique. Examples: Bouin's, Alizarin Red.", "label": "Method of Test or Examination", "name": "FXMETHOD", "ordinal": "21", "role": "Record Qualifier", "simpleDatatype": "Char"}, {"_links": {"codelist": [{"href": "/mdr/root/ct/sendct/codelists/C90000", "title": "Version-agnostic anchor resource for codelist C90000", "type": "Root Value Domain"}], "modelClassVariable": {"href": "/mdr/sdtm/1-6/classes/Findings/variables/--SEV", "title": "Severity", "type": "Class Variable"}, "parentDataset": {"href": "/mdr/sendig/dart-1-2/datasets/FX", "title": "Fetal Pathology Findings", "type": "SDTM Dataset"}, "parentProduct": {"href": "/mdr/sendig/dart-1-2", "title": "Standard for Exchange of Nonclinical Data Implementation Guide: Developmental and Reproductive Toxicology Version 1.2", "type": "Implementation Guide"}, "priorVersion": {"href": "/mdr/sendig/dart-1-1/datasets/FX/variables/FXSEV", "title": "Severity", "type": "SDTM Dataset Variable"}, "rootItem": {"href": "/mdr/root/sendig/datasets/FX/variables/FXSEV", "title": "Version-agnostic anchor resource for SENDIG variable FX.FXSEV", "type": "Root Data Element"}, "self": {"href": "/mdr/sendig/dart-1-2/datasets/FX/variables/FXSEV", "title": "Severity", "type": "SDTM Dataset Variable"}}, "codelistSubmissionValues": ["SEV"], "core": "Perm", "description": "Modifier describing the severity or degree of a particular finding. Use only if collected. Example: 1 OF 3.", "label": "Severity", "name": "FXSEV", "ordinal": "22", "role": "Record Qualifier", "simpleDatatype": "Char"}, {"_links": {"codelist": [{"href": "/mdr/root/ct/sendct/codelists/C124321", "title": "Version-agnostic anchor resource for codelist C124321", "type": "Root Value Domain"}], "modelClassVariable": {"href": "/mdr/sdtm/1-6/classes/GeneralObservations/variables/RPHASE", "title": "Repro Phase", "type": "Class Variable"}, "parentDataset": {"href": "/mdr/sendig/dart-1-2/datasets/FX", "title": "Fetal Pathology Findings", "type": "SDTM Dataset"}, "parentProduct": {"href": "/mdr/sendig/dart-1-2", "title": "Standard for Exchange of Nonclinical Data Implementation Guide: Developmental and Reproductive Toxicology Version 1.2", "type": "Implementation Guide"}, "priorVersion": {"href": "/mdr/sendig/dart-1-1/datasets/FX/variables/RPHASE", "title": "Reproductive Phase", "type": "SDTM Dataset Variable"}, "rootItem": {"href": "/mdr/root/sendig/datasets/FX/variables/RPHASE", "title": "Version-agnostic anchor resource for SENDIG variable FX.RPHASE", "type": "Root Data Element"}, "self": {"href": "/mdr/sendig/dart-1-2/datasets/FX/variables/RPHASE", "title": "Repro Phase", "type": "SDTM Dataset Variable"}}, "codelistSubmissionValues": ["NCDPHASE"], "core": "Perm", "description": "Name of the Reproductive Phase associated with date/time of the observation. RPHASE is required when any Repro Phase timing variable is used.", "label": "Repro Phase", "name": "RPHASE", "ordinal": "23", "role": "Timing", "simpleDatatype": "Char"}, {"_links": {"modelClassVariable": {"href": "/mdr/sdtm/1-6/classes/GeneralObservations/variables/RPPLDY", "title": "Planned Repro Phase Day of Observation", "type": "Class Variable"}, "parentDataset": {"href": "/mdr/sendig/dart-1-2/datasets/FX", "title": "Fetal Pathology Findings", "type": "SDTM Dataset"}, "parentProduct": {"href": "/mdr/sendig/dart-1-2", "title": "Standard for Exchange of Nonclinical Data Implementation Guide: Developmental and Reproductive Toxicology Version 1.2", "type": "Implementation Guide"}, "priorVersion": {"href": "/mdr/sendig/dart-1-1/datasets/FX/variables/RPPLDY", "title": "Planned Phase Day", "type": "SDTM Dataset Variable"}, "rootItem": {"href": "/mdr/root/sendig/datasets/FX/variables/RPPLDY", "title": "Version-agnostic anchor resource for SENDIG variable FX.RPPLDY", "type": "Root Data Element"}, "self": {"href": "/mdr/sendig/dart-1-2/datasets/FX/variables/RPPLDY", "title": "Planned Repro Phase Day of Observation", "type": "SDTM Dataset Variable"}}, "core": "Perm", "description": "Planned day within the Reproductive Phase on which the observation was scheduled to occur. Used in conjunction with RPHASE. Should be an integer.", "label": "Planned Repro Phase Day of Observation", "name": "RPPLDY", "ordinal": "24", "role": "Timing", "simpleDatatype": "Num"}, {"_links": {"modelClassVariable": {"href": "/mdr/sdtm/1-6/classes/GeneralObservations/variables/--DTC", "title": "Date/Time of Collection", "type": "Class Variable"}, "parentDataset": {"href": "/mdr/sendig/dart-1-2/datasets/FX", "title": "Fetal Pathology Findings", "type": "SDTM Dataset"}, "parentProduct": {"href": "/mdr/sendig/dart-1-2", "title": "Standard for Exchange of Nonclinical Data Implementation Guide: Developmental and Reproductive Toxicology Version 1.2", "type": "Implementation Guide"}, "priorVersion": {"href": "/mdr/sendig/dart-1-1/datasets/FX/variables/FXDTC", "title": "Date/Time", "type": "SDTM Dataset Variable"}, "rootItem": {"href": "/mdr/root/sendig/datasets/FX/variables/FXDTC", "title": "Version-agnostic anchor resource for SENDIG variable FX.FXDTC", "type": "Root Data Element"}, "self": {"href": "/mdr/sendig/dart-1-2/datasets/FX/variables/FXDTC", "title": "Date/Time", "type": "SDTM Dataset Variable"}}, "core": "Perm", "describedValueDomain": "ISO 8601", "description": "Collection date and time of the observation represented in ISO 8601 character format. For post mortem observations, this is the date/time of subject disposition in ISO 8601 format.", "label": "Date/Time", "name": "FXDTC", "ordinal": "25", "role": "Timing", "simpleDatatype": "Char"}, {"_links": {"modelClassVariable": {"href": "/mdr/sdtm/1-6/classes/GeneralObservations/variables/--DY", "title": "Study Day of Visit/Collection/Exam", "type": "Class Variable"}, "parentDataset": {"href": "/mdr/sendig/dart-1-2/datasets/FX", "title": "Fetal Pathology Findings", "type": "SDTM Dataset"}, "parentProduct": {"href": "/mdr/sendig/dart-1-2", "title": "Standard for Exchange of Nonclinical Data Implementation Guide: Developmental and Reproductive Toxicology Version 1.2", "type": "Implementation Guide"}, "priorVersion": {"href": "/mdr/sendig/dart-1-1/datasets/FX/variables/FXDY", "title": "Study Day", "type": "SDTM Dataset Variable"}, "rootItem": {"href": "/mdr/root/sendig/datasets/FX/variables/FXDY", "title": "Version-agnostic anchor resource for SENDIG variable FX.FXDY", "type": "Root Data Element"}, "self": {"href": "/mdr/sendig/dart-1-2/datasets/FX/variables/FXDY", "title": "Study Day", "type": "SDTM Dataset Variable"}}, "core": "Perm", "description": "Actual study day of the observation expressed in integer days relative to the protocol-defined RFSTDTC.", "label": "Study Day", "name": "FXDY", "ordinal": "26", "role": "Timing", "simpleDatatype": "Num"}, {"_links": {"modelClassVariable": {"href": "/mdr/sdtm/1-6/classes/GeneralObservations/variables/--RPDY", "title": "Actual Repro Phase Day of Observation", "type": "Class Variable"}, "parentDataset": {"href": "/mdr/sendig/dart-1-2/datasets/FX", "title": "Fetal Pathology Findings", "type": "SDTM Dataset"}, "parentProduct": {"href": "/mdr/sendig/dart-1-2", "title": "Standard for Exchange of Nonclinical Data Implementation Guide: Developmental and Reproductive Toxicology Version 1.2", "type": "Implementation Guide"}, "priorVersion": {"href": "/mdr/sendig/dart-1-1/datasets/FX/variables/FXRPDY", "title": "Actual Phase Day", "type": "SDTM Dataset Variable"}, "rootItem": {"href": "/mdr/root/sendig/datasets/FX/variables/FXRPDY", "title": "Version-agnostic anchor resource for SENDIG variable FX.FXRPDY", "type": "Root Data Element"}, "self": {"href": "/mdr/sendig/dart-1-2/datasets/FX/variables/FXRPDY", "title": "Actual Repro Phase Day of Observation", "type": "SDTM Dataset Variable"}}, "core": "Perm", "description": "Actual day within the Reproductive Phase on which the observation occurred. Used in conjunction with RPHASE. Should be an integer.", "label": "Actual Repro Phase Day of Observation", "name": "FXRPDY", "ordinal": "27", "role": "Timing", "simpleDatatype": "Num"}], "label": "Fetal Pathology Findings", "name": "FX", "ordinal": "9"}
