{"_links": {"parentClass": {"href": "/mdr/sendig/dart-1-2/classes/Findings", "title": "Findings Observation Class", "type": "Class"}, "parentProduct": {"href": "/mdr/sendig/dart-1-2", "title": "Standard for Exchange of Nonclinical Data Implementation Guide: Developmental and Reproductive Toxicology Version 1.2", "type": "Implementation Guide"}, "priorVersion": {"href": "/mdr/sendig/dart-1-1/datasets/IC", "title": "Implantation Classification", "type": "SDTM Dataset"}, "self": {"href": "/mdr/sendig/dart-1-2/datasets/IC", "title": "Implantation Classification", "type": "SDTM Dataset"}}, "datasetStructure": "One record per implantation site per fetus per subject", "datasetVariables": [{"_links": {"modelClassVariable": {"href": "/mdr/sdtm/1-6/classes/GeneralObservations/variables/STUDYID", "title": "Study Identifier", "type": "Class Variable"}, "parentDataset": {"href": "/mdr/sendig/dart-1-2/datasets/IC", "title": "Implantation Classification", "type": "SDTM Dataset"}, "parentProduct": {"href": "/mdr/sendig/dart-1-2", "title": "Standard for Exchange of Nonclinical Data Implementation Guide: Developmental and Reproductive Toxicology Version 1.2", "type": "Implementation Guide"}, "priorVersion": {"href": "/mdr/sendig/dart-1-1/datasets/IC/variables/STUDYID", "title": "Study Identifier", "type": "SDTM Dataset Variable"}, "rootItem": {"href": "/mdr/root/sendig/datasets/IC/variables/STUDYID", "title": "Version-agnostic anchor resource for SENDIG variable IC.STUDYID", "type": "Root Data Element"}, "self": {"href": "/mdr/sendig/dart-1-2/datasets/IC/variables/STUDYID", "title": "Study Identifier", "type": "SDTM Dataset Variable"}}, "core": "Req", "description": "Unique identifier for a study.", "label": "Study Identifier", "name": "STUDYID", "ordinal": "1", "role": "Identifier", "simpleDatatype": "Char"}, {"_links": {"modelClassVariable": {"href": "/mdr/sdtm/1-6/classes/GeneralObservations/variables/DOMAIN", "title": "Domain Abbreviation", "type": "Class Variable"}, "parentDataset": {"href": "/mdr/sendig/dart-1-2/datasets/IC", "title": "Implantation Classification", "type": "SDTM Dataset"}, "parentProduct": {"href": "/mdr/sendig/dart-1-2", "title": "Standard for Exchange of Nonclinical Data Implementation Guide: Developmental and Reproductive Toxicology Version 1.2", "type": "Implementation Guide"}, "priorVersion": {"href": "/mdr/sendig/dart-1-1/datasets/IC/variables/DOMAIN", "title": "Domain Abbreviation", "type": "SDTM Dataset Variable"}, "rootItem": {"href": "/mdr/root/sendig/datasets/IC/variables/DOMAIN", "title": "Version-agnostic anchor resource for SENDIG variable IC.DOMAIN", "type": "Root Data Element"}, "self": {"href": "/mdr/sendig/dart-1-2/datasets/IC/variables/DOMAIN", "title": "Domain Abbreviation", "type": "SDTM Dataset Variable"}}, "core": "Req", "description": "Two-character abbreviation for the domain.", "label": "Domain Abbreviation", "name": "DOMAIN", "ordinal": "2", "role": "Identifier", "simpleDatatype": "Char", "valueList": ["IC"]}, {"_links": {"modelClassVariable": {"href": "/mdr/sdtm/1-6/classes/GeneralObservations/variables/USUBJID", "title": "Unique Subject Identifier", "type": "Class Variable"}, "parentDataset": {"href": "/mdr/sendig/dart-1-2/datasets/IC", "title": "Implantation Classification", "type": "SDTM Dataset"}, "parentProduct": {"href": "/mdr/sendig/dart-1-2", "title": "Standard for Exchange of Nonclinical Data Implementation Guide: Developmental and Reproductive Toxicology Version 1.2", "type": "Implementation Guide"}, "priorVersion": {"href": "/mdr/sendig/dart-1-1/datasets/IC/variables/USUBJID", "title": "Unique Subject Identifier", "type": "SDTM Dataset Variable"}, "rootItem": {"href": "/mdr/root/sendig/datasets/IC/variables/USUBJID", "title": "Version-agnostic anchor resource for SENDIG variable IC.USUBJID", "type": "Root Data Element"}, "self": {"href": "/mdr/sendig/dart-1-2/datasets/IC/variables/USUBJID", "title": "Unique Subject Identifier", "type": "SDTM Dataset Variable"}}, "core": "Req", "description": "Identifier used to uniquely identify a subject across all studies for all applications or submissions involving the product.", "label": "Unique Subject Identifier", "name": "USUBJID", "ordinal": "3", "role": "Identifier", "simpleDatatype": "Char"}, {"_links": {"modelClassVariable": {"href": "/mdr/sdtm/1-6/classes/GeneralObservations/variables/FETUSID", "title": "Fetus Identifier", "type": "Class Variable"}, "parentDataset": {"href": "/mdr/sendig/dart-1-2/datasets/IC", "title": "Implantation Classification", "type": "SDTM Dataset"}, "parentProduct": {"href": "/mdr/sendig/dart-1-2", "title": "Standard for Exchange of Nonclinical Data Implementation Guide: Developmental and Reproductive Toxicology Version 1.2", "type": "Implementation Guide"}, "priorVersion": {"href": "/mdr/sendig/dart-1-1/datasets/IC/variables/FETUSID", "title": "Unique Fetus Identifier", "type": "SDTM Dataset Variable"}, "rootItem": {"href": "/mdr/root/sendig/datasets/IC/variables/FETUSID", "title": "Version-agnostic anchor resource for SENDIG variable IC.FETUSID", "type": "Root Data Element"}, "self": {"href": "/mdr/sendig/dart-1-2/datasets/IC/variables/FETUSID", "title": "Unique Fetus Identifier", "type": "SDTM Dataset Variable"}}, "core": "Exp", "description": "Identifier used to identify a fetus from a maternal subject for prenatal evaluations. Unique per USUBJID across a study.", "label": "Unique Fetus Identifier", "name": "FETUSID", "ordinal": "4", "role": "Identifier", "simpleDatatype": "Char"}, {"_links": {"modelClassVariable": {"href": "/mdr/sdtm/1-6/classes/GeneralObservations/variables/--SEQ", "title": "Sequence Number", "type": "Class Variable"}, "parentDataset": {"href": "/mdr/sendig/dart-1-2/datasets/IC", "title": "Implantation Classification", "type": "SDTM Dataset"}, "parentProduct": {"href": "/mdr/sendig/dart-1-2", "title": "Standard for Exchange of Nonclinical Data Implementation Guide: Developmental and Reproductive Toxicology Version 1.2", "type": "Implementation Guide"}, "priorVersion": {"href": "/mdr/sendig/dart-1-1/datasets/IC/variables/ICSEQ", "title": "Sequence Number", "type": "SDTM Dataset Variable"}, "rootItem": {"href": "/mdr/root/sendig/datasets/IC/variables/ICSEQ", "title": "Version-agnostic anchor resource for SENDIG variable IC.ICSEQ", "type": "Root Data Element"}, "self": {"href": "/mdr/sendig/dart-1-2/datasets/IC/variables/ICSEQ", "title": "Sequence Number", "type": "SDTM Dataset Variable"}}, "core": "Req", "description": "Sequence number given to ensure uniqueness of subject records within a domain. May be any valid number.", "label": "Sequence Number", "name": "ICSEQ", "ordinal": "5", "role": "Identifier", "simpleDatatype": "Num"}, {"_links": {"codelist": [{"href": "/mdr/root/ct/sendct/codelists/C124318", "title": "Version-agnostic anchor resource for codelist C124318", "type": "Root Value Domain"}], "modelClassVariable": {"href": "/mdr/sdtm/1-6/classes/Findings/variables/--TESTCD", "title": "Short Name of Measurement, Test or Examination", "type": "Class Variable"}, "parentDataset": {"href": "/mdr/sendig/dart-1-2/datasets/IC", "title": "Implantation Classification", "type": "SDTM Dataset"}, "parentProduct": {"href": "/mdr/sendig/dart-1-2", "title": "Standard for Exchange of Nonclinical Data Implementation Guide: Developmental and Reproductive Toxicology Version 1.2", "type": "Implementation Guide"}, "priorVersion": {"href": "/mdr/sendig/dart-1-1/datasets/IC/variables/ICTESTCD", "title": "Test Short Name", "type": "SDTM Dataset Variable"}, "rootItem": {"href": "/mdr/root/sendig/datasets/IC/variables/ICTESTCD", "title": "Version-agnostic anchor resource for SENDIG variable IC.ICTESTCD", "type": "Root Data Element"}, "self": {"href": "/mdr/sendig/dart-1-2/datasets/IC/variables/ICTESTCD", "title": "Test Short Name", "type": "SDTM Dataset Variable"}}, "codelistSubmissionValues": ["ICTESTCD"], "core": "Req", "description": "Short name of the measurement, test, or examination described in ICTEST. It can be used as a column name when converting a dataset from a vertical format to a horizontal format. The value in ICTESTCD cannot be longer than 8 characters, nor can it start with a number.", "label": "Test Short Name", "name": "ICTESTCD", "ordinal": "6", "role": "Topic", "simpleDatatype": "Char"}, {"_links": {"codelist": [{"href": "/mdr/root/ct/sendct/codelists/C124319", "title": "Version-agnostic anchor resource for codelist C124319", "type": "Root Value Domain"}], "modelClassVariable": {"href": "/mdr/sdtm/1-6/classes/Findings/variables/--TEST", "title": "Name of Measurement, Test or Examination", "type": "Class Variable"}, "parentDataset": {"href": "/mdr/sendig/dart-1-2/datasets/IC", "title": "Implantation Classification", "type": "SDTM Dataset"}, "parentProduct": {"href": "/mdr/sendig/dart-1-2", "title": "Standard for Exchange of Nonclinical Data Implementation Guide: Developmental and Reproductive Toxicology Version 1.2", "type": "Implementation Guide"}, "priorVersion": {"href": "/mdr/sendig/dart-1-1/datasets/IC/variables/ICTEST", "title": "Implantation Exam Name", "type": "SDTM Dataset Variable"}, "rootItem": {"href": "/mdr/root/sendig/datasets/IC/variables/ICTEST", "title": "Version-agnostic anchor resource for SENDIG variable IC.ICTEST", "type": "Root Data Element"}, "self": {"href": "/mdr/sendig/dart-1-2/datasets/IC/variables/ICTEST", "title": "Implantation Exam Name", "type": "SDTM Dataset Variable"}}, "codelistSubmissionValues": ["ICTEST"], "core": "Req", "description": "Name for ICTESTCD (e.g., Implantation Site Characterization). The value in ICTEST cannot be longer than 40 characters.", "label": "Implantation Exam Name", "name": "ICTEST", "ordinal": "7", "role": "Synonym Qualifier", "simpleDatatype": "Char"}, {"_links": {"modelClassVariable": {"href": "/mdr/sdtm/1-6/classes/Findings/variables/--ORRES", "title": "Result or Finding in Original Units", "type": "Class Variable"}, "parentDataset": {"href": "/mdr/sendig/dart-1-2/datasets/IC", "title": "Implantation Classification", "type": "SDTM Dataset"}, "parentProduct": {"href": "/mdr/sendig/dart-1-2", "title": "Standard for Exchange of Nonclinical Data Implementation Guide: Developmental and Reproductive Toxicology Version 1.2", "type": "Implementation Guide"}, "priorVersion": {"href": "/mdr/sendig/dart-1-1/datasets/IC/variables/ICORRES", "title": "Result or Findings as Collected", "type": "SDTM Dataset Variable"}, "rootItem": {"href": "/mdr/root/sendig/datasets/IC/variables/ICORRES", "title": "Version-agnostic anchor resource for SENDIG variable IC.ICORRES", "type": "Root Data Element"}, "self": {"href": "/mdr/sendig/dart-1-2/datasets/IC/variables/ICORRES", "title": "Result or Findings as Collected", "type": "SDTM Dataset Variable"}}, "core": "Exp", "description": "Implantation Classification finding or observation as originally received or collected.", "label": "Result or Findings as Collected", "name": "ICORRES", "ordinal": "8", "role": "Result Qualifier", "simpleDatatype": "Char"}, {"_links": {"codelist": [{"href": "/mdr/root/ct/sendct/codelists/C124317", "title": "Version-agnostic anchor resource for codelist C124317", "type": "Root Value Domain"}], "modelClassVariable": {"href": "/mdr/sdtm/1-6/classes/Findings/variables/--STRESC", "title": "Result or Finding in Standard Format", "type": "Class Variable"}, "parentDataset": {"href": "/mdr/sendig/dart-1-2/datasets/IC", "title": "Implantation Classification", "type": "SDTM Dataset"}, "parentProduct": {"href": "/mdr/sendig/dart-1-2", "title": "Standard for Exchange of Nonclinical Data Implementation Guide: Developmental and Reproductive Toxicology Version 1.2", "type": "Implementation Guide"}, "priorVersion": {"href": "/mdr/sendig/dart-1-1/datasets/IC/variables/ICSTRESC", "title": "Standardized Results in Character Format", "type": "SDTM Dataset Variable"}, "rootItem": {"href": "/mdr/root/sendig/datasets/IC/variables/ICSTRESC", "title": "Version-agnostic anchor resource for SENDIG variable IC.ICSTRESC", "type": "Root Data Element"}, "self": {"href": "/mdr/sendig/dart-1-2/datasets/IC/variables/ICSTRESC", "title": "Standardized Result in Character Format", "type": "SDTM Dataset Variable"}}, "codelistSubmissionValues": ["ICFINDRS"], "core": "Exp", "description": "Contains the result value for all findings, copied or derived from ICORRES in a standard format. ICSTRESC should store all results or findings in character format.", "label": "Standardized Result in Character Format", "name": "ICSTRESC", "ordinal": "9", "role": "Result Qualifier", "simpleDatatype": "Char"}, {"_links": {"parentDataset": {"href": "/mdr/sendig/dart-1-2/datasets/IC", "title": "Implantation Classification", "type": "SDTM Dataset"}, "parentProduct": {"href": "/mdr/sendig/dart-1-2", "title": "Standard for Exchange of Nonclinical Data Implementation Guide: Developmental and Reproductive Toxicology Version 1.2", "type": "Implementation Guide"}, "priorVersion": {"href": "/mdr/sendig/dart-1-1/datasets/IC/variables/ICIMPLBL", "title": "Implantation Site Label", "type": "SDTM Dataset Variable"}, "rootItem": {"href": "/mdr/root/sendig/datasets/IC/variables/ICIMPLBL", "title": "Version-agnostic anchor resource for SENDIG variable IC.ICIMPLBL", "type": "Root Data Element"}, "self": {"href": "/mdr/sendig/dart-1-2/datasets/IC/variables/ICIMPLBL", "title": "Implantation Site Label", "type": "SDTM Dataset Variable"}}, "core": "Req", "description": "Label or identifier that describes the location or position of an implantation site in the uterus (or uterine horn). \\n e.g., Sponsor 1: 1L, 2L, 3L, 1R, 2R \\n e.g., Sponsor 2: 1L, 2L, 3L, 4R, 5R \\n e.g., Sponsor 3: 1, 2, 3, 4, 5. \\n Should match the implantation labels presented in the report.", "label": "Implantation Site Label", "name": "ICIMPLBL", "ordinal": "10", "role": "Record Qualifier", "simpleDatatype": "Char"}, {"_links": {"codelist": [{"href": "/mdr/root/ct/sendct/codelists/C124316", "title": "Version-agnostic anchor resource for codelist C124316", "type": "Root Value Domain"}], "modelClassVariable": {"href": "/mdr/sdtm/1-6/classes/Findings/variables/--RESCAT", "title": "Result Category", "type": "Class Variable"}, "parentDataset": {"href": "/mdr/sendig/dart-1-2/datasets/IC", "title": "Implantation Classification", "type": "SDTM Dataset"}, "parentProduct": {"href": "/mdr/sendig/dart-1-2", "title": "Standard for Exchange of Nonclinical Data Implementation Guide: Developmental and Reproductive Toxicology Version 1.2", "type": "Implementation Guide"}, "priorVersion": {"href": "/mdr/sendig/dart-1-1/datasets/IC/variables/ICRESCAT", "title": "Result Category", "type": "SDTM Dataset Variable"}, "rootItem": {"href": "/mdr/root/sendig/datasets/IC/variables/ICRESCAT", "title": "Version-agnostic anchor resource for SENDIG variable IC.ICRESCAT", "type": "Root Data Element"}, "self": {"href": "/mdr/sendig/dart-1-2/datasets/IC/variables/ICRESCAT", "title": "Result Category", "type": "SDTM Dataset Variable"}}, "codelistSubmissionValues": ["ICRESCAT"], "core": "Exp", "description": "Used to categorize the result of the finding (e.g., FETUS, RESORPTION, EMBRYO).", "label": "Result Category", "name": "ICRESCAT", "ordinal": "11", "role": "Variable Qualifier", "simpleDatatype": "Char"}, {"_links": {"modelClassVariable": {"href": "/mdr/sdtm/1-6/classes/Findings/variables/--RESLOC", "title": "Result Location of Finding", "type": "Class Variable"}, "parentDataset": {"href": "/mdr/sendig/dart-1-2/datasets/IC", "title": "Implantation Classification", "type": "SDTM Dataset"}, "parentProduct": {"href": "/mdr/sendig/dart-1-2", "title": "Standard for Exchange of Nonclinical Data Implementation Guide: Developmental and Reproductive Toxicology Version 1.2", "type": "Implementation Guide"}, "priorVersion": {"href": "/mdr/sendig/dart-1-1/datasets/IC/variables/ICRESLOC", "title": "Result Location of Finding", "type": "SDTM Dataset Variable"}, "rootItem": {"href": "/mdr/root/sendig/datasets/IC/variables/ICRESLOC", "title": "Version-agnostic anchor resource for SENDIG variable IC.ICRESLOC", "type": "Root Data Element"}, "self": {"href": "/mdr/sendig/dart-1-2/datasets/IC/variables/ICRESLOC", "title": "Result Location of Finding", "type": "SDTM Dataset Variable"}}, "core": "Exp", "description": "Location where the result was observed (as opposed to the tissue specified for examination), if collected. This location may have a higher degree of specificity than the tissue specified for examination (ICSPEC). This is the uterine horn location of the observed implantation site in species that have a Left and Right Uterine Horn. Should be populated if ICIMPLBL is unique per horn but not unique per subject. If there are duplicate ICIMPLBL values within a single USUBJID then ICRESLOC needs to be populated.", "label": "Result Location of Finding", "name": "ICRESLOC", "ordinal": "12", "role": "Result Qualifier", "simpleDatatype": "Char"}, {"_links": {"codelist": [{"href": "/mdr/root/ct/sendct/codelists/C66789", "title": "Version-agnostic anchor resource for codelist C66789", "type": "Root Value Domain"}], "modelClassVariable": {"href": "/mdr/sdtm/1-6/classes/Findings/variables/--STAT", "title": "Completion Status", "type": "Class Variable"}, "parentDataset": {"href": "/mdr/sendig/dart-1-2/datasets/IC", "title": "Implantation Classification", "type": "SDTM Dataset"}, "parentProduct": {"href": "/mdr/sendig/dart-1-2", "title": "Standard for Exchange of Nonclinical Data Implementation Guide: Developmental and Reproductive Toxicology Version 1.2", "type": "Implementation Guide"}, "priorVersion": {"href": "/mdr/sendig/dart-1-1/datasets/IC/variables/ICSTAT", "title": "Completion Status", "type": "SDTM Dataset Variable"}, "rootItem": {"href": "/mdr/root/sendig/datasets/IC/variables/ICSTAT", "title": "Version-agnostic anchor resource for SENDIG variable IC.ICSTAT", "type": "Root Data Element"}, "self": {"href": "/mdr/sendig/dart-1-2/datasets/IC/variables/ICSTAT", "title": "Completion Status", "type": "SDTM Dataset Variable"}}, "codelistSubmissionValues": ["ND"], "core": "Perm", "description": "Used to indicate when a test or examination was not done or result is missing. Should be null if a result exists in ICORRES.", "label": "Completion Status", "name": "ICSTAT", "ordinal": "13", "role": "Record Qualifier", "simpleDatatype": "Char"}, {"_links": {"modelClassVariable": {"href": "/mdr/sdtm/1-6/classes/Findings/variables/--REASND", "title": "Reason Not Done", "type": "Class Variable"}, "parentDataset": {"href": "/mdr/sendig/dart-1-2/datasets/IC", "title": "Implantation Classification", "type": "SDTM Dataset"}, "parentProduct": {"href": "/mdr/sendig/dart-1-2", "title": "Standard for Exchange of Nonclinical Data Implementation Guide: Developmental and Reproductive Toxicology Version 1.2", "type": "Implementation Guide"}, "priorVersion": {"href": "/mdr/sendig/dart-1-1/datasets/IC/variables/ICREASND", "title": "Reason Not Done", "type": "SDTM Dataset Variable"}, "rootItem": {"href": "/mdr/root/sendig/datasets/IC/variables/ICREASND", "title": "Version-agnostic anchor resource for SENDIG variable IC.ICREASND", "type": "Root Data Element"}, "self": {"href": "/mdr/sendig/dart-1-2/datasets/IC/variables/ICREASND", "title": "Reason Not Done", "type": "SDTM Dataset Variable"}}, "core": "Perm", "description": "Describes why ICSTAT is NOT DONE. Use only in conjunction with ICSTAT when value is NOT DONE.", "label": "Reason Not Done", "name": "ICREASND", "ordinal": "14", "role": "Record Qualifier", "simpleDatatype": "Char"}, {"_links": {"codelist": [{"href": "/mdr/root/ct/sendct/codelists/C77529", "title": "Version-agnostic anchor resource for codelist C77529", "type": "Root Value Domain"}], "modelClassVariable": {"href": "/mdr/sdtm/1-6/classes/Findings/variables/--SPEC", "title": "Specimen Material Type", "type": "Class Variable"}, "parentDataset": {"href": "/mdr/sendig/dart-1-2/datasets/IC", "title": "Implantation Classification", "type": "SDTM Dataset"}, "parentProduct": {"href": "/mdr/sendig/dart-1-2", "title": "Standard for Exchange of Nonclinical Data Implementation Guide: Developmental and Reproductive Toxicology Version 1.2", "type": "Implementation Guide"}, "priorVersion": {"href": "/mdr/sendig/dart-1-1/datasets/IC/variables/ICSPEC", "title": "Specimen Material Type", "type": "SDTM Dataset Variable"}, "rootItem": {"href": "/mdr/root/sendig/datasets/IC/variables/ICSPEC", "title": "Version-agnostic anchor resource for SENDIG variable IC.ICSPEC", "type": "Root Data Element"}, "self": {"href": "/mdr/sendig/dart-1-2/datasets/IC/variables/ICSPEC", "title": "Specimen Material Type", "type": "SDTM Dataset Variable"}}, "codelistSubmissionValues": ["SPEC"], "core": "Perm", "description": "Should always be the controlled term for Uterus when used.", "label": "Specimen Material Type", "name": "ICSPEC", "ordinal": "15", "role": "Record Qualifier", "simpleDatatype": "Char"}, {"_links": {"codelist": [{"href": "/mdr/root/ct/sendct/codelists/C124321", "title": "Version-agnostic anchor resource for codelist C124321", "type": "Root Value Domain"}], "modelClassVariable": {"href": "/mdr/sdtm/1-6/classes/GeneralObservations/variables/RPHASE", "title": "Repro Phase", "type": "Class Variable"}, "parentDataset": {"href": "/mdr/sendig/dart-1-2/datasets/IC", "title": "Implantation Classification", "type": "SDTM Dataset"}, "parentProduct": {"href": "/mdr/sendig/dart-1-2", "title": "Standard for Exchange of Nonclinical Data Implementation Guide: Developmental and Reproductive Toxicology Version 1.2", "type": "Implementation Guide"}, "priorVersion": {"href": "/mdr/sendig/dart-1-1/datasets/IC/variables/RPHASE", "title": "Repro Phase", "type": "SDTM Dataset Variable"}, "rootItem": {"href": "/mdr/root/sendig/datasets/IC/variables/RPHASE", "title": "Version-agnostic anchor resource for SENDIG variable IC.RPHASE", "type": "Root Data Element"}, "self": {"href": "/mdr/sendig/dart-1-2/datasets/IC/variables/RPHASE", "title": "Repro Phase", "type": "SDTM Dataset Variable"}}, "codelistSubmissionValues": ["NCDPHASE"], "core": "Exp", "description": "Name of the Reproductive Phase associated with date/time of the observation. RPHASE is required when any Repro Phase timing variable is used.", "label": "Repro Phase", "name": "RPHASE", "ordinal": "16", "role": "Timing", "simpleDatatype": "Char"}, {"_links": {"modelClassVariable": {"href": "/mdr/sdtm/1-6/classes/GeneralObservations/variables/RPPLDY", "title": "Planned Repro Phase Day of Observation", "type": "Class Variable"}, "parentDataset": {"href": "/mdr/sendig/dart-1-2/datasets/IC", "title": "Implantation Classification", "type": "SDTM Dataset"}, "parentProduct": {"href": "/mdr/sendig/dart-1-2", "title": "Standard for Exchange of Nonclinical Data Implementation Guide: Developmental and Reproductive Toxicology Version 1.2", "type": "Implementation Guide"}, "priorVersion": {"href": "/mdr/sendig/dart-1-1/datasets/IC/variables/RPPLDY", "title": "Planned Repro Phase Day of Observation", "type": "SDTM Dataset Variable"}, "rootItem": {"href": "/mdr/root/sendig/datasets/IC/variables/RPPLDY", "title": "Version-agnostic anchor resource for SENDIG variable IC.RPPLDY", "type": "Root Data Element"}, "self": {"href": "/mdr/sendig/dart-1-2/datasets/IC/variables/RPPLDY", "title": "Planned Repro Phase Day of Observation", "type": "SDTM Dataset Variable"}}, "core": "Exp", "description": "Planned day within the Reproductive Phase the uterine examination was scheduled to occur. Used in conjunction with RPHASE. Should be an integer.", "label": "Planned Repro Phase Day of Observation", "name": "RPPLDY", "ordinal": "17", "role": "Timing", "simpleDatatype": "Num"}, {"_links": {"modelClassVariable": {"href": "/mdr/sdtm/1-6/classes/GeneralObservations/variables/--DTC", "title": "Date/Time of Collection", "type": "Class Variable"}, "parentDataset": {"href": "/mdr/sendig/dart-1-2/datasets/IC", "title": "Implantation Classification", "type": "SDTM Dataset"}, "parentProduct": {"href": "/mdr/sendig/dart-1-2", "title": "Standard for Exchange of Nonclinical Data Implementation Guide: Developmental and Reproductive Toxicology Version 1.2", "type": "Implementation Guide"}, "priorVersion": {"href": "/mdr/sendig/dart-1-1/datasets/IC/variables/ICDTC", "title": "Date/Time", "type": "SDTM Dataset Variable"}, "rootItem": {"href": "/mdr/root/sendig/datasets/IC/variables/ICDTC", "title": "Version-agnostic anchor resource for SENDIG variable IC.ICDTC", "type": "Root Data Element"}, "self": {"href": "/mdr/sendig/dart-1-2/datasets/IC/variables/ICDTC", "title": "Date/Time", "type": "SDTM Dataset Variable"}}, "core": "Exp", "describedValueDomain": "ISO 8601", "description": "Collection date and time of the uterine examination represented in ISO 8601 character format.", "label": "Date/Time", "name": "ICDTC", "ordinal": "18", "role": "Timing", "simpleDatatype": "Char"}, {"_links": {"modelClassVariable": {"href": "/mdr/sdtm/1-6/classes/GeneralObservations/variables/--DY", "title": "Study Day of Visit/Collection/Exam", "type": "Class Variable"}, "parentDataset": {"href": "/mdr/sendig/dart-1-2/datasets/IC", "title": "Implantation Classification", "type": "SDTM Dataset"}, "parentProduct": {"href": "/mdr/sendig/dart-1-2", "title": "Standard for Exchange of Nonclinical Data Implementation Guide: Developmental and Reproductive Toxicology Version 1.2", "type": "Implementation Guide"}, "priorVersion": {"href": "/mdr/sendig/dart-1-1/datasets/IC/variables/ICDY", "title": "Study Day", "type": "SDTM Dataset Variable"}, "rootItem": {"href": "/mdr/root/sendig/datasets/IC/variables/ICDY", "title": "Version-agnostic anchor resource for SENDIG variable IC.ICDY", "type": "Root Data Element"}, "self": {"href": "/mdr/sendig/dart-1-2/datasets/IC/variables/ICDY", "title": "Study Day", "type": "SDTM Dataset Variable"}}, "core": "Perm", "description": "Study day of the uterine examination expressed in integer days relative to the protocol-defined RFSTDTC.", "label": "Study Day", "name": "ICDY", "ordinal": "19", "role": "Timing", "simpleDatatype": "Num"}, {"_links": {"modelClassVariable": {"href": "/mdr/sdtm/1-6/classes/GeneralObservations/variables/--RPDY", "title": "Actual Repro Phase Day of Observation", "type": "Class Variable"}, "parentDataset": {"href": "/mdr/sendig/dart-1-2/datasets/IC", "title": "Implantation Classification", "type": "SDTM Dataset"}, "parentProduct": {"href": "/mdr/sendig/dart-1-2", "title": "Standard for Exchange of Nonclinical Data Implementation Guide: Developmental and Reproductive Toxicology Version 1.2", "type": "Implementation Guide"}, "priorVersion": {"href": "/mdr/sendig/dart-1-1/datasets/IC/variables/ICRPDY", "title": "Actual Repro Phase Day of Observation", "type": "SDTM Dataset Variable"}, "rootItem": {"href": "/mdr/root/sendig/datasets/IC/variables/ICRPDY", "title": "Version-agnostic anchor resource for SENDIG variable IC.ICRPDY", "type": "Root Data Element"}, "self": {"href": "/mdr/sendig/dart-1-2/datasets/IC/variables/ICRPDY", "title": "Actual Repro Phase Day of Observation", "type": "SDTM Dataset Variable"}}, "core": "Exp", "description": "Actual day within the Reproductive Phase the uterine examination occurred. Used in conjunction with RPHASE. Should be an integer.", "label": "Actual Repro Phase Day of Observation", "name": "ICRPDY", "ordinal": "20", "role": "Timing", "simpleDatatype": "Num"}], "label": "Implantation Classification", "name": "IC", "ordinal": "10"}
