{"_links": {"parentClass": {"href": "/mdr/sendig/dart-1-2/classes/Findings", "title": "Findings Observation Class", "type": "Class"}, "parentProduct": {"href": "/mdr/sendig/dart-1-2", "title": "Standard for Exchange of Nonclinical Data Implementation Guide: Developmental and Reproductive Toxicology Version 1.2", "type": "Implementation Guide"}, "priorVersion": {"href": "/mdr/sendig/dart-1-1/datasets/OM", "title": "Organ Measurements", "type": "SDTM Dataset"}, "self": {"href": "/mdr/sendig/dart-1-2/datasets/OM", "title": "Organ Measurements", "type": "SDTM Dataset"}}, "datasetStructure": "One record per test per specimen per subject", "datasetVariables": [{"_links": {"modelClassVariable": {"href": "/mdr/sdtm/1-6/classes/GeneralObservations/variables/STUDYID", "title": "Study Identifier", "type": "Class Variable"}, "parentDataset": {"href": "/mdr/sendig/dart-1-2/datasets/OM", "title": "Organ Measurements", "type": "SDTM Dataset"}, "parentProduct": {"href": "/mdr/sendig/dart-1-2", "title": "Standard for Exchange of Nonclinical Data Implementation Guide: Developmental and Reproductive Toxicology Version 1.2", "type": "Implementation Guide"}, "priorVersion": {"href": "/mdr/sendig/dart-1-1/datasets/OM/variables/STUDYID", "title": "Study Identifier", "type": "SDTM Dataset Variable"}, "rootItem": {"href": "/mdr/root/sendig/datasets/OM/variables/STUDYID", "title": "Version-agnostic anchor resource for SENDIG variable OM.STUDYID", "type": "Root Data Element"}, "self": {"href": "/mdr/sendig/dart-1-2/datasets/OM/variables/STUDYID", "title": "Study Identifier", "type": "SDTM Dataset Variable"}}, "core": "Req", "description": "Unique identifier for a study.", "label": "Study Identifier", "name": "STUDYID", "ordinal": "1", "role": "Identifier", "simpleDatatype": "Char"}, {"_links": {"modelClassVariable": {"href": "/mdr/sdtm/1-6/classes/GeneralObservations/variables/DOMAIN", "title": "Domain Abbreviation", "type": "Class Variable"}, "parentDataset": {"href": "/mdr/sendig/dart-1-2/datasets/OM", "title": "Organ Measurements", "type": "SDTM Dataset"}, "parentProduct": {"href": "/mdr/sendig/dart-1-2", "title": "Standard for Exchange of Nonclinical Data Implementation Guide: Developmental and Reproductive Toxicology Version 1.2", "type": "Implementation Guide"}, "priorVersion": {"href": "/mdr/sendig/dart-1-1/datasets/OM/variables/DOMAIN", "title": "Domain Abbreviation", "type": "SDTM Dataset Variable"}, "rootItem": {"href": "/mdr/root/sendig/datasets/OM/variables/DOMAIN", "title": "Version-agnostic anchor resource for SENDIG variable OM.DOMAIN", "type": "Root Data Element"}, "self": {"href": "/mdr/sendig/dart-1-2/datasets/OM/variables/DOMAIN", "title": "Domain Abbreviation", "type": "SDTM Dataset Variable"}}, "core": "Req", "description": "Two-character abbreviation for the domain.", "label": "Domain Abbreviation", "name": "DOMAIN", "ordinal": "2", "role": "Identifier", "simpleDatatype": "Char", "valueList": ["OM"]}, {"_links": {"modelClassVariable": {"href": "/mdr/sdtm/1-6/classes/GeneralObservations/variables/USUBJID", "title": "Unique Subject Identifier", "type": "Class Variable"}, "parentDataset": {"href": "/mdr/sendig/dart-1-2/datasets/OM", "title": "Organ Measurements", "type": "SDTM Dataset"}, "parentProduct": {"href": "/mdr/sendig/dart-1-2", "title": "Standard for Exchange of Nonclinical Data Implementation Guide: Developmental and Reproductive Toxicology Version 1.2", "type": "Implementation Guide"}, "priorVersion": {"href": "/mdr/sendig/dart-1-1/datasets/OM/variables/USUBJID", "title": "Unique Subject Identifier", "type": "SDTM Dataset Variable"}, "rootItem": {"href": "/mdr/root/sendig/datasets/OM/variables/USUBJID", "title": "Version-agnostic anchor resource for SENDIG variable OM.USUBJID", "type": "Root Data Element"}, "self": {"href": "/mdr/sendig/dart-1-2/datasets/OM/variables/USUBJID", "title": "Unique Subject Identifier", "type": "SDTM Dataset Variable"}}, "core": "Req", "description": "Identifier used to uniquely identify a subject across all studies for all applications or submissions involving the product.", "label": "Unique Subject Identifier", "name": "USUBJID", "ordinal": "3", "role": "Identifier", "simpleDatatype": "Char"}, {"_links": {"modelClassVariable": {"href": "/mdr/sdtm/1-6/classes/GeneralObservations/variables/--SEQ", "title": "Sequence Number", "type": "Class Variable"}, "parentDataset": {"href": "/mdr/sendig/dart-1-2/datasets/OM", "title": "Organ Measurements", "type": "SDTM Dataset"}, "parentProduct": {"href": "/mdr/sendig/dart-1-2", "title": "Standard for Exchange of Nonclinical Data Implementation Guide: Developmental and Reproductive Toxicology Version 1.2", "type": "Implementation Guide"}, "priorVersion": {"href": "/mdr/sendig/dart-1-1/datasets/OM/variables/OMSEQ", "title": "Sequence Number", "type": "SDTM Dataset Variable"}, "rootItem": {"href": "/mdr/root/sendig/datasets/OM/variables/OMSEQ", "title": "Version-agnostic anchor resource for SENDIG variable OM.OMSEQ", "type": "Root Data Element"}, "self": {"href": "/mdr/sendig/dart-1-2/datasets/OM/variables/OMSEQ", "title": "Sequence Number", "type": "SDTM Dataset Variable"}}, "core": "Req", "description": "Sequence number given to ensure uniqueness of subject records within a domain. May be any valid number.", "label": "Sequence Number", "name": "OMSEQ", "ordinal": "4", "role": "Identifier", "simpleDatatype": "Num"}, {"_links": {"codelist": [{"href": "/mdr/root/ct/sendct/codelists/C89977", "title": "Version-agnostic anchor resource for codelist C89977", "type": "Root Value Domain"}], "modelClassVariable": {"href": "/mdr/sdtm/1-6/classes/Findings/variables/--TESTCD", "title": "Short Name of Measurement, Test or Examination", "type": "Class Variable"}, "parentDataset": {"href": "/mdr/sendig/dart-1-2/datasets/OM", "title": "Organ Measurements", "type": "SDTM Dataset"}, "parentProduct": {"href": "/mdr/sendig/dart-1-2", "title": "Standard for Exchange of Nonclinical Data Implementation Guide: Developmental and Reproductive Toxicology Version 1.2", "type": "Implementation Guide"}, "priorVersion": {"href": "/mdr/sendig/dart-1-1/datasets/OM/variables/OMTESTCD", "title": "Test Short Name", "type": "SDTM Dataset Variable"}, "rootItem": {"href": "/mdr/root/sendig/datasets/OM/variables/OMTESTCD", "title": "Version-agnostic anchor resource for SENDIG variable OM.OMTESTCD", "type": "Root Data Element"}, "self": {"href": "/mdr/sendig/dart-1-2/datasets/OM/variables/OMTESTCD", "title": "Test Short Name", "type": "SDTM Dataset Variable"}}, "codelistSubmissionValues": ["OMTESTCD"], "core": "Req", "description": "Short name of the measurement, test, or examination described in OMTEST. It can be used as a column name when converting a dataset from a vertical to a horizontal format. The value in OMTESTCD cannot be longer than 8 characters, nor can it start with a number (e.g., \"1TEST\" is not valid). OMTESTCD cannot contain characters other than letters, numbers, or underscores.", "label": "Test Short Name", "name": "OMTESTCD", "ordinal": "5", "role": "Topic", "simpleDatatype": "Char"}, {"_links": {"codelist": [{"href": "/mdr/root/ct/sendct/codelists/C89976", "title": "Version-agnostic anchor resource for codelist C89976", "type": "Root Value Domain"}], "modelClassVariable": {"href": "/mdr/sdtm/1-6/classes/Findings/variables/--TEST", "title": "Name of Measurement, Test or Examination", "type": "Class Variable"}, "parentDataset": {"href": "/mdr/sendig/dart-1-2/datasets/OM", "title": "Organ Measurements", "type": "SDTM Dataset"}, "parentProduct": {"href": "/mdr/sendig/dart-1-2", "title": "Standard for Exchange of Nonclinical Data Implementation Guide: Developmental and Reproductive Toxicology Version 1.2", "type": "Implementation Guide"}, "priorVersion": {"href": "/mdr/sendig/dart-1-1/datasets/OM/variables/OMTEST", "title": "Test Name", "type": "SDTM Dataset Variable"}, "rootItem": {"href": "/mdr/root/sendig/datasets/OM/variables/OMTEST", "title": "Version-agnostic anchor resource for SENDIG variable OM.OMTEST", "type": "Root Data Element"}, "self": {"href": "/mdr/sendig/dart-1-2/datasets/OM/variables/OMTEST", "title": "Test Name", "type": "SDTM Dataset Variable"}}, "codelistSubmissionValues": ["OMTEST"], "core": "Req", "description": "Long name for OMTESTCD. The value in OMTEST cannot be longer than 40 characters.", "label": "Test Name", "name": "OMTEST", "ordinal": "6", "role": "Synonym Qualifier", "simpleDatatype": "Char"}, {"_links": {"modelClassVariable": {"href": "/mdr/sdtm/1-6/classes/Findings/variables/--ORRES", "title": "Result or Finding in Original Units", "type": "Class Variable"}, "parentDataset": {"href": "/mdr/sendig/dart-1-2/datasets/OM", "title": "Organ Measurements", "type": "SDTM Dataset"}, "parentProduct": {"href": "/mdr/sendig/dart-1-2", "title": "Standard for Exchange of Nonclinical Data Implementation Guide: Developmental and Reproductive Toxicology Version 1.2", "type": "Implementation Guide"}, "priorVersion": {"href": "/mdr/sendig/dart-1-1/datasets/OM/variables/OMORRES", "title": "Result or Findings as Collected", "type": "SDTM Dataset Variable"}, "rootItem": {"href": "/mdr/root/sendig/datasets/OM/variables/OMORRES", "title": "Version-agnostic anchor resource for SENDIG variable OM.OMORRES", "type": "Root Data Element"}, "self": {"href": "/mdr/sendig/dart-1-2/datasets/OM/variables/OMORRES", "title": "Result or Findings as Collected", "type": "SDTM Dataset Variable"}}, "core": "Exp", "description": "Result of the measurement or finding as originally received or collected.", "label": "Result or Findings as Collected", "name": "OMORRES", "ordinal": "7", "role": "Result Qualifier", "simpleDatatype": "Char"}, {"_links": {"codelist": [{"href": "/mdr/root/ct/sendct/codelists/C71620", "title": "Version-agnostic anchor resource for codelist C71620", "type": "Root Value Domain"}], "modelClassVariable": {"href": "/mdr/sdtm/1-6/classes/Findings/variables/--ORRESU", "title": "Original Units", "type": "Class Variable"}, "parentDataset": {"href": "/mdr/sendig/dart-1-2/datasets/OM", "title": "Organ Measurements", "type": "SDTM Dataset"}, "parentProduct": {"href": "/mdr/sendig/dart-1-2", "title": "Standard for Exchange of Nonclinical Data Implementation Guide: Developmental and Reproductive Toxicology Version 1.2", "type": "Implementation Guide"}, "priorVersion": {"href": "/mdr/sendig/dart-1-1/datasets/OM/variables/OMORRESU", "title": "Unit of the Original Result", "type": "SDTM Dataset Variable"}, "rootItem": {"href": "/mdr/root/sendig/datasets/OM/variables/OMORRESU", "title": "Version-agnostic anchor resource for SENDIG variable OM.OMORRESU", "type": "Root Data Element"}, "self": {"href": "/mdr/sendig/dart-1-2/datasets/OM/variables/OMORRESU", "title": "Unit of the Original Result", "type": "SDTM Dataset Variable"}}, "codelistSubmissionValues": ["UNIT"], "core": "Exp", "description": "The unit for the original result. The unit of the original result should be mapped to a synonymous unit on the Controlled Terminology (http://www.cdisc.org/terminology) list.", "label": "Unit of the Original Result", "name": "OMORRESU", "ordinal": "8", "role": "Variable Qualifier", "simpleDatatype": "Char"}, {"_links": {"modelClassVariable": {"href": "/mdr/sdtm/1-6/classes/Findings/variables/--STRESC", "title": "Result or Finding in Standard Format", "type": "Class Variable"}, "parentDataset": {"href": "/mdr/sendig/dart-1-2/datasets/OM", "title": "Organ Measurements", "type": "SDTM Dataset"}, "parentProduct": {"href": "/mdr/sendig/dart-1-2", "title": "Standard for Exchange of Nonclinical Data Implementation Guide: Developmental and Reproductive Toxicology Version 1.2", "type": "Implementation Guide"}, "priorVersion": {"href": "/mdr/sendig/dart-1-1/datasets/OM/variables/OMSTRESC", "title": "Standardized Result in Character Format", "type": "SDTM Dataset Variable"}, "rootItem": {"href": "/mdr/root/sendig/datasets/OM/variables/OMSTRESC", "title": "Version-agnostic anchor resource for SENDIG variable OM.OMSTRESC", "type": "Root Data Element"}, "self": {"href": "/mdr/sendig/dart-1-2/datasets/OM/variables/OMSTRESC", "title": "Standardized Result in Character Format", "type": "SDTM Dataset Variable"}}, "core": "Exp", "description": "Contains the result value for all findings, copied or derived from OMORRES in a standard format or in standard units. OMSTRESC should store all results or findings in character format; if results are numeric, they should also be submitted in numeric format in OMSTRESN.", "label": "Standardized Result in Character Format", "name": "OMSTRESC", "ordinal": "9", "role": "Result Qualifier", "simpleDatatype": "Char"}, {"_links": {"modelClassVariable": {"href": "/mdr/sdtm/1-6/classes/Findings/variables/--STRESN", "title": "Numeric Result/Finding in Standard Units", "type": "Class Variable"}, "parentDataset": {"href": "/mdr/sendig/dart-1-2/datasets/OM", "title": "Organ Measurements", "type": "SDTM Dataset"}, "parentProduct": {"href": "/mdr/sendig/dart-1-2", "title": "Standard for Exchange of Nonclinical Data Implementation Guide: Developmental and Reproductive Toxicology Version 1.2", "type": "Implementation Guide"}, "priorVersion": {"href": "/mdr/sendig/dart-1-1/datasets/OM/variables/OMSTRESN", "title": "Standardized Result in Numeric Format", "type": "SDTM Dataset Variable"}, "rootItem": {"href": "/mdr/root/sendig/datasets/OM/variables/OMSTRESN", "title": "Version-agnostic anchor resource for SENDIG variable OM.OMSTRESN", "type": "Root Data Element"}, "self": {"href": "/mdr/sendig/dart-1-2/datasets/OM/variables/OMSTRESN", "title": "Standardized Result in Numeric Format", "type": "SDTM Dataset Variable"}}, "core": "Exp", "description": "Used for numeric results or findings in standard format; contains the numeric form of OMSTRESC. OMSTRESN should store all numeric test results or findings.", "label": "Standardized Result in Numeric Format", "name": "OMSTRESN", "ordinal": "10", "role": "Result Qualifier", "simpleDatatype": "Num"}, {"_links": {"codelist": [{"href": "/mdr/root/ct/sendct/codelists/C71620", "title": "Version-agnostic anchor resource for codelist C71620", "type": "Root Value Domain"}], "modelClassVariable": {"href": "/mdr/sdtm/1-6/classes/Findings/variables/--STRESU", "title": "Standard Units", "type": "Class Variable"}, "parentDataset": {"href": "/mdr/sendig/dart-1-2/datasets/OM", "title": "Organ Measurements", "type": "SDTM Dataset"}, "parentProduct": {"href": "/mdr/sendig/dart-1-2", "title": "Standard for Exchange of Nonclinical Data Implementation Guide: Developmental and Reproductive Toxicology Version 1.2", "type": "Implementation Guide"}, "priorVersion": {"href": "/mdr/sendig/dart-1-1/datasets/OM/variables/OMSTRESU", "title": "Unit of the Standardized Result", "type": "SDTM Dataset Variable"}, "rootItem": {"href": "/mdr/root/sendig/datasets/OM/variables/OMSTRESU", "title": "Version-agnostic anchor resource for SENDIG variable OM.OMSTRESU", "type": "Root Data Element"}, "self": {"href": "/mdr/sendig/dart-1-2/datasets/OM/variables/OMSTRESU", "title": "Unit of the Standardized Result", "type": "SDTM Dataset Variable"}}, "codelistSubmissionValues": ["UNIT"], "core": "Exp", "description": "Standardized unit used for OMSTRESC and OMSTRESN.", "label": "Unit of the Standardized Result", "name": "OMSTRESU", "ordinal": "11", "role": "Variable Qualifier", "simpleDatatype": "Char"}, {"_links": {"codelist": [{"href": "/mdr/root/ct/sendct/codelists/C66789", "title": "Version-agnostic anchor resource for codelist C66789", "type": "Root Value Domain"}], "modelClassVariable": {"href": "/mdr/sdtm/1-6/classes/Findings/variables/--STAT", "title": "Completion Status", "type": "Class Variable"}, "parentDataset": {"href": "/mdr/sendig/dart-1-2/datasets/OM", "title": "Organ Measurements", "type": "SDTM Dataset"}, "parentProduct": {"href": "/mdr/sendig/dart-1-2", "title": "Standard for Exchange of Nonclinical Data Implementation Guide: Developmental and Reproductive Toxicology Version 1.2", "type": "Implementation Guide"}, "priorVersion": {"href": "/mdr/sendig/dart-1-1/datasets/OM/variables/OMSTAT", "title": "Completion Status", "type": "SDTM Dataset Variable"}, "rootItem": {"href": "/mdr/root/sendig/datasets/OM/variables/OMSTAT", "title": "Version-agnostic anchor resource for SENDIG variable OM.OMSTAT", "type": "Root Data Element"}, "self": {"href": "/mdr/sendig/dart-1-2/datasets/OM/variables/OMSTAT", "title": "Completion Status", "type": "SDTM Dataset Variable"}}, "codelistSubmissionValues": ["ND"], "core": "Perm", "description": "Used to indicate when a test is not done or result is missing. Should be null if a result exists in OMORRES.", "label": "Completion Status", "name": "OMSTAT", "ordinal": "12", "role": "Record Qualifier", "simpleDatatype": "Char"}, {"_links": {"modelClassVariable": {"href": "/mdr/sdtm/1-6/classes/Findings/variables/--REASND", "title": "Reason Not Done", "type": "Class Variable"}, "parentDataset": {"href": "/mdr/sendig/dart-1-2/datasets/OM", "title": "Organ Measurements", "type": "SDTM Dataset"}, "parentProduct": {"href": "/mdr/sendig/dart-1-2", "title": "Standard for Exchange of Nonclinical Data Implementation Guide: Developmental and Reproductive Toxicology Version 1.2", "type": "Implementation Guide"}, "priorVersion": {"href": "/mdr/sendig/dart-1-1/datasets/OM/variables/OMREASND", "title": "Reason Not Done", "type": "SDTM Dataset Variable"}, "rootItem": {"href": "/mdr/root/sendig/datasets/OM/variables/OMREASND", "title": "Version-agnostic anchor resource for SENDIG variable OM.OMREASND", "type": "Root Data Element"}, "self": {"href": "/mdr/sendig/dart-1-2/datasets/OM/variables/OMREASND", "title": "Reason Not Done", "type": "SDTM Dataset Variable"}}, "core": "Perm", "description": "Describes why OMSTAT is NOT DONE, such as BROKEN EQUIPMENT or TECHNICIAN OVERSIGHT.", "label": "Reason Not Done", "name": "OMREASND", "ordinal": "13", "role": "Record Qualifier", "simpleDatatype": "Char"}, {"_links": {"codelist": [{"href": "/mdr/root/ct/sendct/codelists/C77529", "title": "Version-agnostic anchor resource for codelist C77529", "type": "Root Value Domain"}], "modelClassVariable": {"href": "/mdr/sdtm/1-6/classes/Findings/variables/--SPEC", "title": "Specimen Material Type", "type": "Class Variable"}, "parentDataset": {"href": "/mdr/sendig/dart-1-2/datasets/OM", "title": "Organ Measurements", "type": "SDTM Dataset"}, "parentProduct": {"href": "/mdr/sendig/dart-1-2", "title": "Standard for Exchange of Nonclinical Data Implementation Guide: Developmental and Reproductive Toxicology Version 1.2", "type": "Implementation Guide"}, "priorVersion": {"href": "/mdr/sendig/dart-1-1/datasets/OM/variables/OMSPEC", "title": "Specimen Material Type", "type": "SDTM Dataset Variable"}, "rootItem": {"href": "/mdr/root/sendig/datasets/OM/variables/OMSPEC", "title": "Version-agnostic anchor resource for SENDIG variable OM.OMSPEC", "type": "Root Data Element"}, "self": {"href": "/mdr/sendig/dart-1-2/datasets/OM/variables/OMSPEC", "title": "Specimen Material Type", "type": "SDTM Dataset Variable"}}, "codelistSubmissionValues": ["SPEC"], "core": "Req", "description": "Defines the type of tissue, organ, or fluid specimen used as the object for the finding. Examples: GLAND, ADRENAL, KIDNEY, VESSEL, LYMPHATIC.", "label": "Specimen Material Type", "name": "OMSPEC", "ordinal": "14", "role": "Record Qualifier", "simpleDatatype": "Char"}, {"_links": {"modelClassVariable": {"href": "/mdr/sdtm/1-6/classes/Findings/variables/--ANTREG", "title": "Anatomical Region", "type": "Class Variable"}, "parentDataset": {"href": "/mdr/sendig/dart-1-2/datasets/OM", "title": "Organ Measurements", "type": "SDTM Dataset"}, "parentProduct": {"href": "/mdr/sendig/dart-1-2", "title": "Standard for Exchange of Nonclinical Data Implementation Guide: Developmental and Reproductive Toxicology Version 1.2", "type": "Implementation Guide"}, "priorVersion": {"href": "/mdr/sendig/dart-1-1/datasets/OM/variables/OMANTREG", "title": "Anatomical Region of Specimen", "type": "SDTM Dataset Variable"}, "rootItem": {"href": "/mdr/root/sendig/datasets/OM/variables/OMANTREG", "title": "Version-agnostic anchor resource for SENDIG variable OM.OMANTREG", "type": "Root Data Element"}, "self": {"href": "/mdr/sendig/dart-1-2/datasets/OM/variables/OMANTREG", "title": "Anatomical Region of Specimen", "type": "SDTM Dataset Variable"}}, "core": "Perm", "description": "Defines the specific anatomical or biological region of a tissue, organ specimen, or the region from which the specimen was obtained, such as a section or part of what is defined in the OMSPEC variable. If the anatomical region is not included in the specimen description OMSPEC, it may be included in this variable. This field can be a combination of terms where needed. This field can be blank if not applicable. Examples: CORTEX, MEDULLA, MUCOSA, SEROSA, ISLET, ZONA FASICULATA, ZONA RETICULARIS, CRANIAL, MEDIAN, ACCESSORY, SPINAL, LUMBAR, FRONTAL.", "label": "Anatomical Region of Specimen", "name": "OMANTREG", "ordinal": "15", "role": "Variable Qualifier", "simpleDatatype": "Char"}, {"_links": {"modelClassVariable": {"href": "/mdr/sdtm/1-6/classes/Findings/variables/--SPCCND", "title": "Specimen Condition", "type": "Class Variable"}, "parentDataset": {"href": "/mdr/sendig/dart-1-2/datasets/OM", "title": "Organ Measurements", "type": "SDTM Dataset"}, "parentProduct": {"href": "/mdr/sendig/dart-1-2", "title": "Standard for Exchange of Nonclinical Data Implementation Guide: Developmental and Reproductive Toxicology Version 1.2", "type": "Implementation Guide"}, "priorVersion": {"href": "/mdr/sendig/dart-1-1/datasets/OM/variables/OMSPCCND", "title": "Specimen Condition", "type": "SDTM Dataset Variable"}, "rootItem": {"href": "/mdr/root/sendig/datasets/OM/variables/OMSPCCND", "title": "Version-agnostic anchor resource for SENDIG variable OM.OMSPCCND", "type": "Root Data Element"}, "self": {"href": "/mdr/sendig/dart-1-2/datasets/OM/variables/OMSPCCND", "title": "Specimen Condition", "type": "SDTM Dataset Variable"}}, "core": "Perm", "description": "Free or standardized text describing the condition of the specimen. Example: FIXED.", "label": "Specimen Condition", "name": "OMSPCCND", "ordinal": "16", "role": "Record Qualifier", "simpleDatatype": "Char"}, {"_links": {"codelist": [{"href": "/mdr/root/ct/sendct/codelists/C66742", "title": "Version-agnostic anchor resource for codelist C66742", "type": "Root Value Domain"}], "modelClassVariable": {"href": "/mdr/sdtm/1-6/classes/Findings/variables/--SPCUFL", "title": "Specimen Usability for the Test", "type": "Class Variable"}, "parentDataset": {"href": "/mdr/sendig/dart-1-2/datasets/OM", "title": "Organ Measurements", "type": "SDTM Dataset"}, "parentProduct": {"href": "/mdr/sendig/dart-1-2", "title": "Standard for Exchange of Nonclinical Data Implementation Guide: Developmental and Reproductive Toxicology Version 1.2", "type": "Implementation Guide"}, "priorVersion": {"href": "/mdr/sendig/dart-1-1/datasets/OM/variables/OMSPCUFL", "title": "Specimen Usability for the Test", "type": "SDTM Dataset Variable"}, "rootItem": {"href": "/mdr/root/sendig/datasets/OM/variables/OMSPCUFL", "title": "Version-agnostic anchor resource for SENDIG variable OM.OMSPCUFL", "type": "Root Data Element"}, "self": {"href": "/mdr/sendig/dart-1-2/datasets/OM/variables/OMSPCUFL", "title": "Specimen Usability for the Test", "type": "SDTM Dataset Variable"}}, "codelistSubmissionValues": ["NY"], "core": "Perm", "description": "Describes the usability of the specimen for the test. Should be \"N\" if the specimen is not usable; otherwise it should be null.", "label": "Specimen Usability for the Test", "name": "OMSPCUFL", "ordinal": "17", "role": "Record Qualifier", "simpleDatatype": "Char"}, {"_links": {"codelist": [{"href": "/mdr/root/ct/sendct/codelists/C99073", "title": "Version-agnostic anchor resource for codelist C99073", "type": "Root Value Domain"}], "modelClassVariable": {"href": "/mdr/sdtm/1-6/classes/Findings/variables/--LAT", "title": "Laterality", "type": "Class Variable"}, "parentDataset": {"href": "/mdr/sendig/dart-1-2/datasets/OM", "title": "Organ Measurements", "type": "SDTM Dataset"}, "parentProduct": {"href": "/mdr/sendig/dart-1-2", "title": "Standard for Exchange of Nonclinical Data Implementation Guide: Developmental and Reproductive Toxicology Version 1.2", "type": "Implementation Guide"}, "priorVersion": {"href": "/mdr/sendig/dart-1-1/datasets/OM/variables/OMLAT", "title": "Specimen Laterality within Subject", "type": "SDTM Dataset Variable"}, "rootItem": {"href": "/mdr/root/sendig/datasets/OM/variables/OMLAT", "title": "Version-agnostic anchor resource for SENDIG variable OM.OMLAT", "type": "Root Data Element"}, "self": {"href": "/mdr/sendig/dart-1-2/datasets/OM/variables/OMLAT", "title": "Specimen Laterality within Subject", "type": "SDTM Dataset Variable"}}, "codelistSubmissionValues": ["LAT"], "core": "Perm", "description": "Qualifier for laterality of the specimen within the subject for paired specimens. Examples: LEFT, RIGHT, BILATERAL.", "label": "Specimen Laterality within Subject", "name": "OMLAT", "ordinal": "18", "role": "Variable Qualifier", "simpleDatatype": "Char"}, {"_links": {"codelist": [{"href": "/mdr/root/ct/sendct/codelists/C99074", "title": "Version-agnostic anchor resource for codelist C99074", "type": "Root Value Domain"}], "modelClassVariable": {"href": "/mdr/sdtm/1-6/classes/Findings/variables/--DIR", "title": "Directionality", "type": "Class Variable"}, "parentDataset": {"href": "/mdr/sendig/dart-1-2/datasets/OM", "title": "Organ Measurements", "type": "SDTM Dataset"}, "parentProduct": {"href": "/mdr/sendig/dart-1-2", "title": "Standard for Exchange of Nonclinical Data Implementation Guide: Developmental and Reproductive Toxicology Version 1.2", "type": "Implementation Guide"}, "priorVersion": {"href": "/mdr/sendig/dart-1-1/datasets/OM/variables/OMDIR", "title": "Specimen Directionality within Subject", "type": "SDTM Dataset Variable"}, "rootItem": {"href": "/mdr/root/sendig/datasets/OM/variables/OMDIR", "title": "Version-agnostic anchor resource for SENDIG variable OM.OMDIR", "type": "Root Data Element"}, "self": {"href": "/mdr/sendig/dart-1-2/datasets/OM/variables/OMDIR", "title": "Specimen Directionality within Subject", "type": "SDTM Dataset Variable"}}, "codelistSubmissionValues": ["DIR"], "core": "Perm", "description": "Qualifier for directionality of the specimen within the subject. Examples: DORSAL, PROXIMAL.", "label": "Specimen Directionality within Subject", "name": "OMDIR", "ordinal": "19", "role": "Variable Qualifier", "simpleDatatype": "Char"}, {"_links": {"codelist": [{"href": "/mdr/root/ct/sendct/codelists/C99075", "title": "Version-agnostic anchor resource for codelist C99075", "type": "Root Value Domain"}], "modelClassVariable": {"href": "/mdr/sdtm/1-6/classes/Findings/variables/--PORTOT", "title": "Portion or Totality", "type": "Class Variable"}, "parentDataset": {"href": "/mdr/sendig/dart-1-2/datasets/OM", "title": "Organ Measurements", "type": "SDTM Dataset"}, "parentProduct": {"href": "/mdr/sendig/dart-1-2", "title": "Standard for Exchange of Nonclinical Data Implementation Guide: Developmental and Reproductive Toxicology Version 1.2", "type": "Implementation Guide"}, "priorVersion": {"href": "/mdr/sendig/dart-1-1/datasets/OM/variables/OMPORTOT", "title": "Portion or Totality", "type": "SDTM Dataset Variable"}, "rootItem": {"href": "/mdr/root/sendig/datasets/OM/variables/OMPORTOT", "title": "Version-agnostic anchor resource for SENDIG variable OM.OMPORTOT", "type": "Root Data Element"}, "self": {"href": "/mdr/sendig/dart-1-2/datasets/OM/variables/OMPORTOT", "title": "Portion or Totality", "type": "SDTM Dataset Variable"}}, "codelistSubmissionValues": ["PORTOT"], "core": "Perm", "description": "Qualifier for anatomical location or specimen further detailing the portion or totality, which means arrangement of, or apportioning of. Examples: ENTIRE, SINGLE, SEGMENT, MANY.", "label": "Portion or Totality", "name": "OMPORTOT", "ordinal": "20", "role": "Variable Qualifier", "simpleDatatype": "Char"}, {"_links": {"codelist": [{"href": "/mdr/root/ct/sendct/codelists/C66742", "title": "Version-agnostic anchor resource for codelist C66742", "type": "Root Value Domain"}], "modelClassVariable": {"href": "/mdr/sdtm/1-6/classes/Findings/variables/--EXCLFL", "title": "Exclude from Statistics", "type": "Class Variable"}, "parentDataset": {"href": "/mdr/sendig/dart-1-2/datasets/OM", "title": "Organ Measurements", "type": "SDTM Dataset"}, "parentProduct": {"href": "/mdr/sendig/dart-1-2", "title": "Standard for Exchange of Nonclinical Data Implementation Guide: Developmental and Reproductive Toxicology Version 1.2", "type": "Implementation Guide"}, "priorVersion": {"href": "/mdr/sendig/dart-1-1/datasets/OM/variables/OMEXCLFL", "title": "Exclusion Flag", "type": "SDTM Dataset Variable"}, "rootItem": {"href": "/mdr/root/sendig/datasets/OM/variables/OMEXCLFL", "title": "Version-agnostic anchor resource for SENDIG variable OM.OMEXCLFL", "type": "Root Data Element"}, "self": {"href": "/mdr/sendig/dart-1-2/datasets/OM/variables/OMEXCLFL", "title": "Exclusion Flag", "type": "SDTM Dataset Variable"}}, "codelistSubmissionValues": ["NY"], "core": "Perm", "description": "\"Y\" if the result should be excluded from all calculations, otherwise null.", "label": "Exclusion Flag", "name": "OMEXCLFL", "ordinal": "21", "role": "Record Qualifier", "simpleDatatype": "Char"}, {"_links": {"modelClassVariable": {"href": "/mdr/sdtm/1-6/classes/Findings/variables/--REASEX", "title": "Reason for Exclusion from Statistics", "type": "Class Variable"}, "parentDataset": {"href": "/mdr/sendig/dart-1-2/datasets/OM", "title": "Organ Measurements", "type": "SDTM Dataset"}, "parentProduct": {"href": "/mdr/sendig/dart-1-2", "title": "Standard for Exchange of Nonclinical Data Implementation Guide: Developmental and Reproductive Toxicology Version 1.2", "type": "Implementation Guide"}, "priorVersion": {"href": "/mdr/sendig/dart-1-1/datasets/OM/variables/OMREASEX", "title": "Reason for Exclusion", "type": "SDTM Dataset Variable"}, "rootItem": {"href": "/mdr/root/sendig/datasets/OM/variables/OMREASEX", "title": "Version-agnostic anchor resource for SENDIG variable OM.OMREASEX", "type": "Root Data Element"}, "self": {"href": "/mdr/sendig/dart-1-2/datasets/OM/variables/OMREASEX", "title": "Reason for Exclusion", "type": "SDTM Dataset Variable"}}, "core": "Perm", "description": "The reason the result should be excluded from all calculations. Used only when OMEXCLFL is \"Y\".", "label": "Reason for Exclusion", "name": "OMREASEX", "ordinal": "22", "role": "Record Qualifier", "simpleDatatype": "Char"}, {"_links": {"modelClassVariable": {"href": "/mdr/sdtm/1-6/classes/GeneralObservations/variables/RPHASE", "title": "Repro Phase", "type": "Class Variable"}, "parentDataset": {"href": "/mdr/sendig/dart-1-2/datasets/OM", "title": "Organ Measurements", "type": "SDTM Dataset"}, "parentProduct": {"href": "/mdr/sendig/dart-1-2", "title": "Standard for Exchange of Nonclinical Data Implementation Guide: Developmental and Reproductive Toxicology Version 1.2", "type": "Implementation Guide"}, "priorVersion": {"href": "/mdr/sendig/dart-1-1/datasets/OM/variables/RPHASE", "title": "Reproductive Phase", "type": "SDTM Dataset Variable"}, "rootItem": {"href": "/mdr/root/sendig/datasets/OM/variables/RPHASE", "title": "Version-agnostic anchor resource for SENDIG variable OM.RPHASE", "type": "Root Data Element"}, "self": {"href": "/mdr/sendig/dart-1-2/datasets/OM/variables/RPHASE", "title": "Reproductive Phase", "type": "SDTM Dataset Variable"}}, "core": "Exp", "description": "Name of the Reproductive Phase associated with the date/time of the observation. RPHASE is Required when any Repro Phase timing variable is used.", "label": "Reproductive Phase", "name": "RPHASE", "ordinal": "23", "role": "Timing", "simpleDatatype": "Char"}, {"_links": {"modelClassVariable": {"href": "/mdr/sdtm/1-6/classes/GeneralObservations/variables/RPPLDY", "title": "Planned Repro Phase Day of Observation", "type": "Class Variable"}, "parentDataset": {"href": "/mdr/sendig/dart-1-2/datasets/OM", "title": "Organ Measurements", "type": "SDTM Dataset"}, "parentProduct": {"href": "/mdr/sendig/dart-1-2", "title": "Standard for Exchange of Nonclinical Data Implementation Guide: Developmental and Reproductive Toxicology Version 1.2", "type": "Implementation Guide"}, "priorVersion": {"href": "/mdr/sendig/dart-1-1/datasets/OM/variables/RPPLDY", "title": "Planned Repro Phase Day of Observation", "type": "SDTM Dataset Variable"}, "rootItem": {"href": "/mdr/root/sendig/datasets/OM/variables/RPPLDY", "title": "Version-agnostic anchor resource for SENDIG variable OM.RPPLDY", "type": "Root Data Element"}, "self": {"href": "/mdr/sendig/dart-1-2/datasets/OM/variables/RPPLDY", "title": "Planned Repro Phase Day of Observation", "type": "SDTM Dataset Variable"}}, "core": "Exp", "description": "The planned day within the Reproductive Phase on which the observation was scheduled to occur. Expressed as an integer.", "label": "Planned Repro Phase Day of Observation", "name": "RPPLDY", "ordinal": "24", "role": "Timing", "simpleDatatype": "Num"}, {"_links": {"modelClassVariable": {"href": "/mdr/sdtm/1-6/classes/GeneralObservations/variables/--DTC", "title": "Date/Time of Collection", "type": "Class Variable"}, "parentDataset": {"href": "/mdr/sendig/dart-1-2/datasets/OM", "title": "Organ Measurements", "type": "SDTM Dataset"}, "parentProduct": {"href": "/mdr/sendig/dart-1-2", "title": "Standard for Exchange of Nonclinical Data Implementation Guide: Developmental and Reproductive Toxicology Version 1.2", "type": "Implementation Guide"}, "priorVersion": {"href": "/mdr/sendig/dart-1-1/datasets/OM/variables/OMDTC", "title": "Date/Time Organ Measured", "type": "SDTM Dataset Variable"}, "rootItem": {"href": "/mdr/root/sendig/datasets/OM/variables/OMDTC", "title": "Version-agnostic anchor resource for SENDIG variable OM.OMDTC", "type": "Root Data Element"}, "self": {"href": "/mdr/sendig/dart-1-2/datasets/OM/variables/OMDTC", "title": "Date/Time Organ Measured", "type": "SDTM Dataset Variable"}}, "core": "Exp", "describedValueDomain": "ISO 8601", "description": "Date/Time of specimen/tissue weighing, in ISO 8601 format.", "label": "Date/Time Organ Measured", "name": "OMDTC", "ordinal": "25", "role": "Timing", "simpleDatatype": "Char"}, {"_links": {"modelClassVariable": {"href": "/mdr/sdtm/1-6/classes/GeneralObservations/variables/--DY", "title": "Study Day of Visit/Collection/Exam", "type": "Class Variable"}, "parentDataset": {"href": "/mdr/sendig/dart-1-2/datasets/OM", "title": "Organ Measurements", "type": "SDTM Dataset"}, "parentProduct": {"href": "/mdr/sendig/dart-1-2", "title": "Standard for Exchange of Nonclinical Data Implementation Guide: Developmental and Reproductive Toxicology Version 1.2", "type": "Implementation Guide"}, "priorVersion": {"href": "/mdr/sendig/dart-1-1/datasets/OM/variables/OMDY", "title": "Study Day of Measurement", "type": "SDTM Dataset Variable"}, "rootItem": {"href": "/mdr/root/sendig/datasets/OM/variables/OMDY", "title": "Version-agnostic anchor resource for SENDIG variable OM.OMDY", "type": "Root Data Element"}, "self": {"href": "/mdr/sendig/dart-1-2/datasets/OM/variables/OMDY", "title": "Study Day of Measurement", "type": "SDTM Dataset Variable"}}, "core": "Perm", "description": "Study day of specimen/tissue weighing, in integer days. The algorithm for calculations must be relative to the sponsor-defined RFSTDTC variable in the Demographics (DM) domain.", "label": "Study Day of Measurement", "name": "OMDY", "ordinal": "26", "role": "Timing", "simpleDatatype": "Num"}, {"_links": {"modelClassVariable": {"href": "/mdr/sdtm/1-6/classes/GeneralObservations/variables/--NOMDY", "title": "Nominal Study Day for Tabulations", "type": "Class Variable"}, "parentDataset": {"href": "/mdr/sendig/dart-1-2/datasets/OM", "title": "Organ Measurements", "type": "SDTM Dataset"}, "parentProduct": {"href": "/mdr/sendig/dart-1-2", "title": "Standard for Exchange of Nonclinical Data Implementation Guide: Developmental and Reproductive Toxicology Version 1.2", "type": "Implementation Guide"}, "priorVersion": {"href": "/mdr/sendig/dart-1-1/datasets/OM/variables/OMNOMDY", "title": "Nominal Study Day for Tabulations", "type": "SDTM Dataset Variable"}, "rootItem": {"href": "/mdr/root/sendig/datasets/OM/variables/OMNOMDY", "title": "Version-agnostic anchor resource for SENDIG variable OM.OMNOMDY", "type": "Root Data Element"}, "self": {"href": "/mdr/sendig/dart-1-2/datasets/OM/variables/OMNOMDY", "title": "Nominal Study Day for Tabulations", "type": "SDTM Dataset Variable"}}, "core": "Perm", "description": "Nominal study day: Used for grouping records for observations that may occur on different days into a single reported study day. Should be an integer.", "label": "Nominal Study Day for Tabulations", "name": "OMNOMDY", "ordinal": "27", "role": "Timing", "simpleDatatype": "Num"}, {"_links": {"modelClassVariable": {"href": "/mdr/sdtm/1-6/classes/GeneralObservations/variables/--NOMLBL", "title": "Label for Nominal Study Day", "type": "Class Variable"}, "parentDataset": {"href": "/mdr/sendig/dart-1-2/datasets/OM", "title": "Organ Measurements", "type": "SDTM Dataset"}, "parentProduct": {"href": "/mdr/sendig/dart-1-2", "title": "Standard for Exchange of Nonclinical Data Implementation Guide: Developmental and Reproductive Toxicology Version 1.2", "type": "Implementation Guide"}, "priorVersion": {"href": "/mdr/sendig/dart-1-1/datasets/OM/variables/OMNOMLBL", "title": "Label for Nominal Study Day", "type": "SDTM Dataset Variable"}, "rootItem": {"href": "/mdr/root/sendig/datasets/OM/variables/OMNOMLBL", "title": "Version-agnostic anchor resource for SENDIG variable OM.OMNOMLBL", "type": "Root Data Element"}, "self": {"href": "/mdr/sendig/dart-1-2/datasets/OM/variables/OMNOMLBL", "title": "Label for Nominal Study Day", "type": "SDTM Dataset Variable"}}, "core": "Perm", "description": "A label for a given value of OMNOMDY as presented in the study report (examples: \"Week 4,\" \"Day 28,\" \"Terminal Sac\").", "label": "Label for Nominal Study Day", "name": "OMNOMLBL", "ordinal": "28", "role": "Timing", "simpleDatatype": "Char"}, {"_links": {"modelClassVariable": {"href": "/mdr/sdtm/1-6/classes/GeneralObservations/variables/--RPDY", "title": "Actual Repro Phase Day of Observation", "type": "Class Variable"}, "parentDataset": {"href": "/mdr/sendig/dart-1-2/datasets/OM", "title": "Organ Measurements", "type": "SDTM Dataset"}, "parentProduct": {"href": "/mdr/sendig/dart-1-2", "title": "Standard for Exchange of Nonclinical Data Implementation Guide: Developmental and Reproductive Toxicology Version 1.2", "type": "Implementation Guide"}, "priorVersion": {"href": "/mdr/sendig/dart-1-1/datasets/OM/variables/OMRPDY", "title": "Actual Repro Phase Day of Observation", "type": "SDTM Dataset Variable"}, "rootItem": {"href": "/mdr/root/sendig/datasets/OM/variables/OMRPDY", "title": "Version-agnostic anchor resource for SENDIG variable OM.OMRPDY", "type": "Root Data Element"}, "self": {"href": "/mdr/sendig/dart-1-2/datasets/OM/variables/OMRPDY", "title": "Actual Repro Phase Day of Observation", "type": "SDTM Dataset Variable"}}, "core": "Exp", "description": "The actual day within the Reproductive Phase on which the observation occurred. Expressed as an integer.", "label": "Actual Repro Phase Day of Observation", "name": "OMRPDY", "ordinal": "29", "role": "Timing", "simpleDatatype": "Num"}], "label": "Organ Measurements", "name": "OM", "ordinal": "14"}
