{"_links": {"parentClass": {"href": "/mdr/sendig/dart-1-2/classes/Findings", "title": "Findings Observation Class", "type": "Class"}, "parentProduct": {"href": "/mdr/sendig/dart-1-2", "title": "Standard for Exchange of Nonclinical Data Implementation Guide: Developmental and Reproductive Toxicology Version 1.2", "type": "Implementation Guide"}, "priorVersion": {"href": "/mdr/sendig/dart-1-1/datasets/PY", "title": "Nonclinical Pregnancy Results", "type": "SDTM Dataset"}, "self": {"href": "/mdr/sendig/dart-1-2/datasets/PY", "title": "Nonclinical Pregnancy Results", "type": "SDTM Dataset"}}, "datasetStructure": "One record per test per subject", "datasetVariables": [{"_links": {"modelClassVariable": {"href": "/mdr/sdtm/1-6/classes/GeneralObservations/variables/STUDYID", "title": "Study Identifier", "type": "Class Variable"}, "parentDataset": {"href": "/mdr/sendig/dart-1-2/datasets/PY", "title": "Nonclinical Pregnancy Results", "type": "SDTM Dataset"}, "parentProduct": {"href": "/mdr/sendig/dart-1-2", "title": "Standard for Exchange of Nonclinical Data Implementation Guide: Developmental and Reproductive Toxicology Version 1.2", "type": "Implementation Guide"}, "priorVersion": {"href": "/mdr/sendig/dart-1-1/datasets/PY/variables/STUDYID", "title": "Study Identifier", "type": "SDTM Dataset Variable"}, "rootItem": {"href": "/mdr/root/sendig/datasets/PY/variables/STUDYID", "title": "Version-agnostic anchor resource for SENDIG variable PY.STUDYID", "type": "Root Data Element"}, "self": {"href": "/mdr/sendig/dart-1-2/datasets/PY/variables/STUDYID", "title": "Study Identifier", "type": "SDTM Dataset Variable"}}, "core": "Req", "description": "Unique identifier for a study.", "label": "Study Identifier", "name": "STUDYID", "ordinal": "1", "role": "Identifier", "simpleDatatype": "Char"}, {"_links": {"modelClassVariable": {"href": "/mdr/sdtm/1-6/classes/GeneralObservations/variables/DOMAIN", "title": "Domain Abbreviation", "type": "Class Variable"}, "parentDataset": {"href": "/mdr/sendig/dart-1-2/datasets/PY", "title": "Nonclinical Pregnancy Results", "type": "SDTM Dataset"}, "parentProduct": {"href": "/mdr/sendig/dart-1-2", "title": "Standard for Exchange of Nonclinical Data Implementation Guide: Developmental and Reproductive Toxicology Version 1.2", "type": "Implementation Guide"}, "priorVersion": {"href": "/mdr/sendig/dart-1-1/datasets/PY/variables/DOMAIN", "title": "Domain Abbreviation", "type": "SDTM Dataset Variable"}, "rootItem": {"href": "/mdr/root/sendig/datasets/PY/variables/DOMAIN", "title": "Version-agnostic anchor resource for SENDIG variable PY.DOMAIN", "type": "Root Data Element"}, "self": {"href": "/mdr/sendig/dart-1-2/datasets/PY/variables/DOMAIN", "title": "Domain Abbreviation", "type": "SDTM Dataset Variable"}}, "core": "Req", "description": "Two-character abbreviation for the domain.", "label": "Domain Abbreviation", "name": "DOMAIN", "ordinal": "2", "role": "Identifier", "simpleDatatype": "Char", "valueList": ["PY"]}, {"_links": {"modelClassVariable": {"href": "/mdr/sdtm/1-6/classes/GeneralObservations/variables/USUBJID", "title": "Unique Subject Identifier", "type": "Class Variable"}, "parentDataset": {"href": "/mdr/sendig/dart-1-2/datasets/PY", "title": "Nonclinical Pregnancy Results", "type": "SDTM Dataset"}, "parentProduct": {"href": "/mdr/sendig/dart-1-2", "title": "Standard for Exchange of Nonclinical Data Implementation Guide: Developmental and Reproductive Toxicology Version 1.2", "type": "Implementation Guide"}, "priorVersion": {"href": "/mdr/sendig/dart-1-1/datasets/PY/variables/USUBJID", "title": "Unique Subject Identifier", "type": "SDTM Dataset Variable"}, "rootItem": {"href": "/mdr/root/sendig/datasets/PY/variables/USUBJID", "title": "Version-agnostic anchor resource for SENDIG variable PY.USUBJID", "type": "Root Data Element"}, "self": {"href": "/mdr/sendig/dart-1-2/datasets/PY/variables/USUBJID", "title": "Unique Subject Identifier", "type": "SDTM Dataset Variable"}}, "core": "Req", "description": "Identifier used to uniquely identify a subject across all studies for all applications or submissions involving the product.", "label": "Unique Subject Identifier", "name": "USUBJID", "ordinal": "3", "role": "Identifier", "simpleDatatype": "Char"}, {"_links": {"modelClassVariable": {"href": "/mdr/sdtm/1-6/classes/GeneralObservations/variables/--SEQ", "title": "Sequence Number", "type": "Class Variable"}, "parentDataset": {"href": "/mdr/sendig/dart-1-2/datasets/PY", "title": "Nonclinical Pregnancy Results", "type": "SDTM Dataset"}, "parentProduct": {"href": "/mdr/sendig/dart-1-2", "title": "Standard for Exchange of Nonclinical Data Implementation Guide: Developmental and Reproductive Toxicology Version 1.2", "type": "Implementation Guide"}, "priorVersion": {"href": "/mdr/sendig/dart-1-1/datasets/PY/variables/PYSEQ", "title": "Sequence Number", "type": "SDTM Dataset Variable"}, "rootItem": {"href": "/mdr/root/sendig/datasets/PY/variables/PYSEQ", "title": "Version-agnostic anchor resource for SENDIG variable PY.PYSEQ", "type": "Root Data Element"}, "self": {"href": "/mdr/sendig/dart-1-2/datasets/PY/variables/PYSEQ", "title": "Sequence Number", "type": "SDTM Dataset Variable"}}, "core": "Req", "description": "Sequence number given to ensure uniqueness of subject records within a domain. May be any valid number.", "label": "Sequence Number", "name": "PYSEQ", "ordinal": "4", "role": "Identifier", "simpleDatatype": "Num"}, {"_links": {"codelist": [{"href": "/mdr/root/ct/sendct/codelists/C124324", "title": "Version-agnostic anchor resource for codelist C124324", "type": "Root Value Domain"}], "modelClassVariable": {"href": "/mdr/sdtm/1-6/classes/Findings/variables/--TESTCD", "title": "Short Name of Measurement, Test or Examination", "type": "Class Variable"}, "parentDataset": {"href": "/mdr/sendig/dart-1-2/datasets/PY", "title": "Nonclinical Pregnancy Results", "type": "SDTM Dataset"}, "parentProduct": {"href": "/mdr/sendig/dart-1-2", "title": "Standard for Exchange of Nonclinical Data Implementation Guide: Developmental and Reproductive Toxicology Version 1.2", "type": "Implementation Guide"}, "priorVersion": {"href": "/mdr/sendig/dart-1-1/datasets/PY/variables/PYTESTCD", "title": "Test Short Name", "type": "SDTM Dataset Variable"}, "rootItem": {"href": "/mdr/root/sendig/datasets/PY/variables/PYTESTCD", "title": "Version-agnostic anchor resource for SENDIG variable PY.PYTESTCD", "type": "Root Data Element"}, "self": {"href": "/mdr/sendig/dart-1-2/datasets/PY/variables/PYTESTCD", "title": "Test Short Name", "type": "SDTM Dataset Variable"}}, "codelistSubmissionValues": ["PYTESTCD"], "core": "Req", "description": "Short name of the measurement, test, or examination described in PYTEST. The value in PYTESTCD cannot be longer than 8 characters, nor can it start with a number. PYTESTCD cannot contain characters other than letters, numbers, or underscores.", "label": "Test Short Name", "name": "PYTESTCD", "ordinal": "5", "role": "Topic", "simpleDatatype": "Char"}, {"_links": {"codelist": [{"href": "/mdr/root/ct/sendct/codelists/C124325", "title": "Version-agnostic anchor resource for codelist C124325", "type": "Root Value Domain"}], "modelClassVariable": {"href": "/mdr/sdtm/1-6/classes/Findings/variables/--TEST", "title": "Name of Measurement, Test or Examination", "type": "Class Variable"}, "parentDataset": {"href": "/mdr/sendig/dart-1-2/datasets/PY", "title": "Nonclinical Pregnancy Results", "type": "SDTM Dataset"}, "parentProduct": {"href": "/mdr/sendig/dart-1-2", "title": "Standard for Exchange of Nonclinical Data Implementation Guide: Developmental and Reproductive Toxicology Version 1.2", "type": "Implementation Guide"}, "priorVersion": {"href": "/mdr/sendig/dart-1-1/datasets/PY/variables/PYTEST", "title": "Pregnancy Result Test Name", "type": "SDTM Dataset Variable"}, "rootItem": {"href": "/mdr/root/sendig/datasets/PY/variables/PYTEST", "title": "Version-agnostic anchor resource for SENDIG variable PY.PYTEST", "type": "Root Data Element"}, "self": {"href": "/mdr/sendig/dart-1-2/datasets/PY/variables/PYTEST", "title": "Pregnancy Result Test Name", "type": "SDTM Dataset Variable"}}, "codelistSubmissionValues": ["PYTEST"], "core": "Req", "description": "Long name for PYTESTCD. The value in PYTEST cannot be longer than 40 characters. Examples: Pregnancy Status, Corpora Lutea Count, Postimplantation Loss, Number of Implantations.", "label": "Pregnancy Result Test Name", "name": "PYTEST", "ordinal": "6", "role": "Synonym Qualifier", "simpleDatatype": "Char"}, {"_links": {"modelClassVariable": {"href": "/mdr/sdtm/1-6/classes/Findings/variables/--ORRES", "title": "Result or Finding in Original Units", "type": "Class Variable"}, "parentDataset": {"href": "/mdr/sendig/dart-1-2/datasets/PY", "title": "Nonclinical Pregnancy Results", "type": "SDTM Dataset"}, "parentProduct": {"href": "/mdr/sendig/dart-1-2", "title": "Standard for Exchange of Nonclinical Data Implementation Guide: Developmental and Reproductive Toxicology Version 1.2", "type": "Implementation Guide"}, "priorVersion": {"href": "/mdr/sendig/dart-1-1/datasets/PY/variables/PYORRES", "title": "Result or Findings as Collected", "type": "SDTM Dataset Variable"}, "rootItem": {"href": "/mdr/root/sendig/datasets/PY/variables/PYORRES", "title": "Version-agnostic anchor resource for SENDIG variable PY.PYORRES", "type": "Root Data Element"}, "self": {"href": "/mdr/sendig/dart-1-2/datasets/PY/variables/PYORRES", "title": "Result or Findings as Collected", "type": "SDTM Dataset Variable"}}, "core": "Exp", "description": "Result of the measurement or finding as originally received or collected.", "label": "Result or Findings as Collected", "name": "PYORRES", "ordinal": "7", "role": "Result Qualifier", "simpleDatatype": "Char"}, {"_links": {"codelist": [{"href": "/mdr/root/ct/sendct/codelists/C71620", "title": "Version-agnostic anchor resource for codelist C71620", "type": "Root Value Domain"}], "modelClassVariable": {"href": "/mdr/sdtm/1-6/classes/Findings/variables/--ORRESU", "title": "Original Units", "type": "Class Variable"}, "parentDataset": {"href": "/mdr/sendig/dart-1-2/datasets/PY", "title": "Nonclinical Pregnancy Results", "type": "SDTM Dataset"}, "parentProduct": {"href": "/mdr/sendig/dart-1-2", "title": "Standard for Exchange of Nonclinical Data Implementation Guide: Developmental and Reproductive Toxicology Version 1.2", "type": "Implementation Guide"}, "priorVersion": {"href": "/mdr/sendig/dart-1-1/datasets/PY/variables/PYORRESU", "title": "Unit of the Original Result", "type": "SDTM Dataset Variable"}, "rootItem": {"href": "/mdr/root/sendig/datasets/PY/variables/PYORRESU", "title": "Version-agnostic anchor resource for SENDIG variable PY.PYORRESU", "type": "Root Data Element"}, "self": {"href": "/mdr/sendig/dart-1-2/datasets/PY/variables/PYORRESU", "title": "Unit of the Original Result", "type": "SDTM Dataset Variable"}}, "codelistSubmissionValues": ["UNIT"], "core": "Exp", "description": "The unit of the original result if applicable for a numeric result. The unit of the original result should be mapped to a synonymous unit on the Controlled Terminology list.", "label": "Unit of the Original Result", "name": "PYORRESU", "ordinal": "8", "role": "Variable Qualifier", "simpleDatatype": "Char"}, {"_links": {"modelClassVariable": {"href": "/mdr/sdtm/1-6/classes/Findings/variables/--STRESC", "title": "Result or Finding in Standard Format", "type": "Class Variable"}, "parentDataset": {"href": "/mdr/sendig/dart-1-2/datasets/PY", "title": "Nonclinical Pregnancy Results", "type": "SDTM Dataset"}, "parentProduct": {"href": "/mdr/sendig/dart-1-2", "title": "Standard for Exchange of Nonclinical Data Implementation Guide: Developmental and Reproductive Toxicology Version 1.2", "type": "Implementation Guide"}, "priorVersion": {"href": "/mdr/sendig/dart-1-1/datasets/PY/variables/PYSTRESC", "title": "Standardized Results in Character Format", "type": "SDTM Dataset Variable"}, "rootItem": {"href": "/mdr/root/sendig/datasets/PY/variables/PYSTRESC", "title": "Version-agnostic anchor resource for SENDIG variable PY.PYSTRESC", "type": "Root Data Element"}, "self": {"href": "/mdr/sendig/dart-1-2/datasets/PY/variables/PYSTRESC", "title": "Standardized Results in Character Format", "type": "SDTM Dataset Variable"}}, "codelistSubmissionValues": ["PRGSTARS", "PRGOUTRS"], "core": "Exp", "description": "Contains the result value for all findings, copied or derived from PYORRES in a standard format or in standard units. PYSTRESC should store all results or findings in character format; if results are numeric, they should also be stored in numeric format in PYSTRESN. When PYTESTCD is PREGSTAT, PYSTRESC must use the PRGSTARS controlled terminology code list. When PYTESTCD is PREGOUT, PYSTRESC must use the PRGOUTRS controlled terminology code list.", "label": "Standardized Results in Character Format", "name": "PYSTRESC", "ordinal": "9", "role": "Result Qualifier", "simpleDatatype": "Char"}, {"_links": {"modelClassVariable": {"href": "/mdr/sdtm/1-6/classes/Findings/variables/--STRESN", "title": "Numeric Result/Finding in Standard Units", "type": "Class Variable"}, "parentDataset": {"href": "/mdr/sendig/dart-1-2/datasets/PY", "title": "Nonclinical Pregnancy Results", "type": "SDTM Dataset"}, "parentProduct": {"href": "/mdr/sendig/dart-1-2", "title": "Standard for Exchange of Nonclinical Data Implementation Guide: Developmental and Reproductive Toxicology Version 1.2", "type": "Implementation Guide"}, "priorVersion": {"href": "/mdr/sendig/dart-1-1/datasets/PY/variables/PYSTRESN", "title": "Standardized Results in Numeric Format", "type": "SDTM Dataset Variable"}, "rootItem": {"href": "/mdr/root/sendig/datasets/PY/variables/PYSTRESN", "title": "Version-agnostic anchor resource for SENDIG variable PY.PYSTRESN", "type": "Root Data Element"}, "self": {"href": "/mdr/sendig/dart-1-2/datasets/PY/variables/PYSTRESN", "title": "Standardized Results in Numeric Format", "type": "SDTM Dataset Variable"}}, "core": "Exp", "description": "Used for continuous or numeric results or findings in standard format; copied in numeric format from PYSTRESC. PYSTRESN should store all numeric test results or findings.", "label": "Standardized Results in Numeric Format", "name": "PYSTRESN", "ordinal": "10", "role": "Result Qualifier", "simpleDatatype": "Num"}, {"_links": {"codelist": [{"href": "/mdr/root/ct/sendct/codelists/C71620", "title": "Version-agnostic anchor resource for codelist C71620", "type": "Root Value Domain"}], "modelClassVariable": {"href": "/mdr/sdtm/1-6/classes/Findings/variables/--STRESU", "title": "Standard Units", "type": "Class Variable"}, "parentDataset": {"href": "/mdr/sendig/dart-1-2/datasets/PY", "title": "Nonclinical Pregnancy Results", "type": "SDTM Dataset"}, "parentProduct": {"href": "/mdr/sendig/dart-1-2", "title": "Standard for Exchange of Nonclinical Data Implementation Guide: Developmental and Reproductive Toxicology Version 1.2", "type": "Implementation Guide"}, "priorVersion": {"href": "/mdr/sendig/dart-1-1/datasets/PY/variables/PYSTRESU", "title": "Unit of the Standardized Result", "type": "SDTM Dataset Variable"}, "rootItem": {"href": "/mdr/root/sendig/datasets/PY/variables/PYSTRESU", "title": "Version-agnostic anchor resource for SENDIG variable PY.PYSTRESU", "type": "Root Data Element"}, "self": {"href": "/mdr/sendig/dart-1-2/datasets/PY/variables/PYSTRESU", "title": "Unit of the Standardized Result", "type": "SDTM Dataset Variable"}}, "codelistSubmissionValues": ["UNIT"], "core": "Exp", "description": "Standardized unit used for PYSTRESC and PYSTRESN.", "label": "Unit of the Standardized Result", "name": "PYSTRESU", "ordinal": "11", "role": "Variable Qualifier", "simpleDatatype": "Char"}, {"_links": {"codelist": [{"href": "/mdr/root/ct/sendct/codelists/C124322", "title": "Version-agnostic anchor resource for codelist C124322", "type": "Root Value Domain"}], "modelClassVariable": {"href": "/mdr/sdtm/1-6/classes/Findings/variables/--RESCAT", "title": "Result Category", "type": "Class Variable"}, "parentDataset": {"href": "/mdr/sendig/dart-1-2/datasets/PY", "title": "Nonclinical Pregnancy Results", "type": "SDTM Dataset"}, "parentProduct": {"href": "/mdr/sendig/dart-1-2", "title": "Standard for Exchange of Nonclinical Data Implementation Guide: Developmental and Reproductive Toxicology Version 1.2", "type": "Implementation Guide"}, "priorVersion": {"href": "/mdr/sendig/dart-1-1/datasets/PY/variables/PYRESCAT", "title": "Result Category", "type": "SDTM Dataset Variable"}, "rootItem": {"href": "/mdr/root/sendig/datasets/PY/variables/PYRESCAT", "title": "Version-agnostic anchor resource for SENDIG variable PY.PYRESCAT", "type": "Root Data Element"}, "self": {"href": "/mdr/sendig/dart-1-2/datasets/PY/variables/PYRESCAT", "title": "Result Category", "type": "SDTM Dataset Variable"}}, "codelistSubmissionValues": ["PYRESCAT"], "core": "Exp", "description": "Used to categorize the result when PYTEST is Pregnancy Status.", "label": "Result Category", "name": "PYRESCAT", "ordinal": "12", "role": "Variable Qualifier", "simpleDatatype": "Char"}, {"_links": {"modelClassVariable": {"href": "/mdr/sdtm/1-6/classes/Findings/variables/--RESLOC", "title": "Result Location of Finding", "type": "Class Variable"}, "parentDataset": {"href": "/mdr/sendig/dart-1-2/datasets/PY", "title": "Nonclinical Pregnancy Results", "type": "SDTM Dataset"}, "parentProduct": {"href": "/mdr/sendig/dart-1-2", "title": "Standard for Exchange of Nonclinical Data Implementation Guide: Developmental and Reproductive Toxicology Version 1.2", "type": "Implementation Guide"}, "priorVersion": {"href": "/mdr/sendig/dart-1-1/datasets/PY/variables/PYRESLOC", "title": "Result Location of Finding", "type": "SDTM Dataset Variable"}, "rootItem": {"href": "/mdr/root/sendig/datasets/PY/variables/PYRESLOC", "title": "Version-agnostic anchor resource for SENDIG variable PY.PYRESLOC", "type": "Root Data Element"}, "self": {"href": "/mdr/sendig/dart-1-2/datasets/PY/variables/PYRESLOC", "title": "Result Location of Finding", "type": "SDTM Dataset Variable"}}, "core": "Perm", "description": "Location where the result was observed, if collected. Examples: Left Uterine Horn, Right Uterine Horn if the test is Number of Implantations.", "label": "Result Location of Finding", "name": "PYRESLOC", "ordinal": "13", "role": "Result Qualifier", "simpleDatatype": "Char"}, {"_links": {"codelist": [{"href": "/mdr/root/ct/sendct/codelists/C66789", "title": "Version-agnostic anchor resource for codelist C66789", "type": "Root Value Domain"}], "modelClassVariable": {"href": "/mdr/sdtm/1-6/classes/Findings/variables/--STAT", "title": "Completion Status", "type": "Class Variable"}, "parentDataset": {"href": "/mdr/sendig/dart-1-2/datasets/PY", "title": "Nonclinical Pregnancy Results", "type": "SDTM Dataset"}, "parentProduct": {"href": "/mdr/sendig/dart-1-2", "title": "Standard for Exchange of Nonclinical Data Implementation Guide: Developmental and Reproductive Toxicology Version 1.2", "type": "Implementation Guide"}, "priorVersion": {"href": "/mdr/sendig/dart-1-1/datasets/PY/variables/PYSTAT", "title": "Completion Status", "type": "SDTM Dataset Variable"}, "rootItem": {"href": "/mdr/root/sendig/datasets/PY/variables/PYSTAT", "title": "Version-agnostic anchor resource for SENDIG variable PY.PYSTAT", "type": "Root Data Element"}, "self": {"href": "/mdr/sendig/dart-1-2/datasets/PY/variables/PYSTAT", "title": "Completion Status", "type": "SDTM Dataset Variable"}}, "codelistSubmissionValues": ["ND"], "core": "Perm", "description": "Used to indicate when a test or examination was not done or a result is missing. Should be null if a result exists in PYORRES.", "label": "Completion Status", "name": "PYSTAT", "ordinal": "14", "role": "Record Qualifier", "simpleDatatype": "Char"}, {"_links": {"modelClassVariable": {"href": "/mdr/sdtm/1-6/classes/Findings/variables/--REASND", "title": "Reason Not Done", "type": "Class Variable"}, "parentDataset": {"href": "/mdr/sendig/dart-1-2/datasets/PY", "title": "Nonclinical Pregnancy Results", "type": "SDTM Dataset"}, "parentProduct": {"href": "/mdr/sendig/dart-1-2", "title": "Standard for Exchange of Nonclinical Data Implementation Guide: Developmental and Reproductive Toxicology Version 1.2", "type": "Implementation Guide"}, "priorVersion": {"href": "/mdr/sendig/dart-1-1/datasets/PY/variables/PYREASND", "title": "Reason Not Done", "type": "SDTM Dataset Variable"}, "rootItem": {"href": "/mdr/root/sendig/datasets/PY/variables/PYREASND", "title": "Version-agnostic anchor resource for SENDIG variable PY.PYREASND", "type": "Root Data Element"}, "self": {"href": "/mdr/sendig/dart-1-2/datasets/PY/variables/PYREASND", "title": "Reason Not Done", "type": "SDTM Dataset Variable"}}, "core": "Perm", "description": "Describes why PYSTAT is NOT DONE. Use only in conjunction with PYSTAT when value is NOT DONE.", "label": "Reason Not Done", "name": "PYREASND", "ordinal": "15", "role": "Record Qualifier", "simpleDatatype": "Char"}, {"_links": {"modelClassVariable": {"href": "/mdr/sdtm/1-6/classes/Findings/variables/--METHOD", "title": "Method of Test or Examination", "type": "Class Variable"}, "parentDataset": {"href": "/mdr/sendig/dart-1-2/datasets/PY", "title": "Nonclinical Pregnancy Results", "type": "SDTM Dataset"}, "parentProduct": {"href": "/mdr/sendig/dart-1-2", "title": "Standard for Exchange of Nonclinical Data Implementation Guide: Developmental and Reproductive Toxicology Version 1.2", "type": "Implementation Guide"}, "priorVersion": {"href": "/mdr/sendig/dart-1-1/datasets/PY/variables/PYMETHOD", "title": "Method of Test or Examination", "type": "SDTM Dataset Variable"}, "rootItem": {"href": "/mdr/root/sendig/datasets/PY/variables/PYMETHOD", "title": "Version-agnostic anchor resource for SENDIG variable PY.PYMETHOD", "type": "Root Data Element"}, "self": {"href": "/mdr/sendig/dart-1-2/datasets/PY/variables/PYMETHOD", "title": "Method of Test or Examination", "type": "SDTM Dataset Variable"}}, "core": "Perm", "description": "Method of test or examination. Example: Ammonium Sulfide Stain.", "label": "Method of Test or Examination", "name": "PYMETHOD", "ordinal": "16", "role": "Record Qualifier", "simpleDatatype": "Char"}, {"_links": {"codelist": [{"href": "/mdr/root/ct/sendct/codelists/C66742", "title": "Version-agnostic anchor resource for codelist C66742", "type": "Root Value Domain"}], "modelClassVariable": {"href": "/mdr/sdtm/1-6/classes/Findings/variables/--EXCLFL", "title": "Exclude from Statistics", "type": "Class Variable"}, "parentDataset": {"href": "/mdr/sendig/dart-1-2/datasets/PY", "title": "Nonclinical Pregnancy Results", "type": "SDTM Dataset"}, "parentProduct": {"href": "/mdr/sendig/dart-1-2", "title": "Standard for Exchange of Nonclinical Data Implementation Guide: Developmental and Reproductive Toxicology Version 1.2", "type": "Implementation Guide"}, "priorVersion": {"href": "/mdr/sendig/dart-1-1/datasets/PY/variables/PYEXCLFL", "title": "Exclusion Flag", "type": "SDTM Dataset Variable"}, "rootItem": {"href": "/mdr/root/sendig/datasets/PY/variables/PYEXCLFL", "title": "Version-agnostic anchor resource for SENDIG variable PY.PYEXCLFL", "type": "Root Data Element"}, "self": {"href": "/mdr/sendig/dart-1-2/datasets/PY/variables/PYEXCLFL", "title": "Exclusion Flag", "type": "SDTM Dataset Variable"}}, "codelistSubmissionValues": ["NY"], "core": "Perm", "description": "Y if the result should be excluded from all calculations, otherwise null. PYEXCLFL should not be used when PYSTAT is NOT DONE.", "label": "Exclusion Flag", "name": "PYEXCLFL", "ordinal": "17", "role": "Record Qualifier", "simpleDatatype": "Char"}, {"_links": {"modelClassVariable": {"href": "/mdr/sdtm/1-6/classes/Findings/variables/--REASEX", "title": "Reason for Exclusion from Statistics", "type": "Class Variable"}, "parentDataset": {"href": "/mdr/sendig/dart-1-2/datasets/PY", "title": "Nonclinical Pregnancy Results", "type": "SDTM Dataset"}, "parentProduct": {"href": "/mdr/sendig/dart-1-2", "title": "Standard for Exchange of Nonclinical Data Implementation Guide: Developmental and Reproductive Toxicology Version 1.2", "type": "Implementation Guide"}, "priorVersion": {"href": "/mdr/sendig/dart-1-1/datasets/PY/variables/PYREASEX", "title": "Reason for Exclusion", "type": "SDTM Dataset Variable"}, "rootItem": {"href": "/mdr/root/sendig/datasets/PY/variables/PYREASEX", "title": "Version-agnostic anchor resource for SENDIG variable PY.PYREASEX", "type": "Root Data Element"}, "self": {"href": "/mdr/sendig/dart-1-2/datasets/PY/variables/PYREASEX", "title": "Reason for Exclusion", "type": "SDTM Dataset Variable"}}, "core": "Perm", "description": "The reason the result should be excluded from all calculations. Used in conjunction with PYEXCLFL when its value is Y.", "label": "Reason for Exclusion", "name": "PYREASEX", "ordinal": "18", "role": "Record Qualifier", "simpleDatatype": "Char"}, {"_links": {"codelist": [{"href": "/mdr/root/ct/sendct/codelists/C124321", "title": "Version-agnostic anchor resource for codelist C124321", "type": "Root Value Domain"}], "modelClassVariable": {"href": "/mdr/sdtm/1-6/classes/GeneralObservations/variables/RPHASE", "title": "Repro Phase", "type": "Class Variable"}, "parentDataset": {"href": "/mdr/sendig/dart-1-2/datasets/PY", "title": "Nonclinical Pregnancy Results", "type": "SDTM Dataset"}, "parentProduct": {"href": "/mdr/sendig/dart-1-2", "title": "Standard for Exchange of Nonclinical Data Implementation Guide: Developmental and Reproductive Toxicology Version 1.2", "type": "Implementation Guide"}, "priorVersion": {"href": "/mdr/sendig/dart-1-1/datasets/PY/variables/RPHASE", "title": "Repro Phase", "type": "SDTM Dataset Variable"}, "rootItem": {"href": "/mdr/root/sendig/datasets/PY/variables/RPHASE", "title": "Version-agnostic anchor resource for SENDIG variable PY.RPHASE", "type": "Root Data Element"}, "self": {"href": "/mdr/sendig/dart-1-2/datasets/PY/variables/RPHASE", "title": "Repro Phase", "type": "SDTM Dataset Variable"}}, "codelistSubmissionValues": ["NCDPHASE"], "core": "Exp", "description": "Name of the Reproductive Phase associated with date/time of the observation. RPHASE is required when any Repro Phase timing variable is used.", "label": "Repro Phase", "name": "RPHASE", "ordinal": "19", "role": "Timing", "simpleDatatype": "Char"}, {"_links": {"modelClassVariable": {"href": "/mdr/sdtm/1-6/classes/GeneralObservations/variables/RPPLDY", "title": "Planned Repro Phase Day of Observation", "type": "Class Variable"}, "parentDataset": {"href": "/mdr/sendig/dart-1-2/datasets/PY", "title": "Nonclinical Pregnancy Results", "type": "SDTM Dataset"}, "parentProduct": {"href": "/mdr/sendig/dart-1-2", "title": "Standard for Exchange of Nonclinical Data Implementation Guide: Developmental and Reproductive Toxicology Version 1.2", "type": "Implementation Guide"}, "priorVersion": {"href": "/mdr/sendig/dart-1-1/datasets/PY/variables/RPPLDY", "title": "Planned Repro Phase Day", "type": "SDTM Dataset Variable"}, "rootItem": {"href": "/mdr/root/sendig/datasets/PY/variables/RPPLDY", "title": "Version-agnostic anchor resource for SENDIG variable PY.RPPLDY", "type": "Root Data Element"}, "self": {"href": "/mdr/sendig/dart-1-2/datasets/PY/variables/RPPLDY", "title": "Planned Repro Phase Day of Observation", "type": "SDTM Dataset Variable"}}, "core": "Exp", "description": "Planned day within the Reproductive Phase on which the observation was scheduled to occur. Used in conjunction with RPHASE. Should be an integer.", "label": "Planned Repro Phase Day of Observation", "name": "RPPLDY", "ordinal": "20", "role": "Timing", "simpleDatatype": "Num"}, {"_links": {"modelClassVariable": {"href": "/mdr/sdtm/1-6/classes/GeneralObservations/variables/--DTC", "title": "Date/Time of Collection", "type": "Class Variable"}, "parentDataset": {"href": "/mdr/sendig/dart-1-2/datasets/PY", "title": "Nonclinical Pregnancy Results", "type": "SDTM Dataset"}, "parentProduct": {"href": "/mdr/sendig/dart-1-2", "title": "Standard for Exchange of Nonclinical Data Implementation Guide: Developmental and Reproductive Toxicology Version 1.2", "type": "Implementation Guide"}, "priorVersion": {"href": "/mdr/sendig/dart-1-1/datasets/PY/variables/PYDTC", "title": "Date/Time", "type": "SDTM Dataset Variable"}, "rootItem": {"href": "/mdr/root/sendig/datasets/PY/variables/PYDTC", "title": "Version-agnostic anchor resource for SENDIG variable PY.PYDTC", "type": "Root Data Element"}, "self": {"href": "/mdr/sendig/dart-1-2/datasets/PY/variables/PYDTC", "title": "Date/Time", "type": "SDTM Dataset Variable"}}, "core": "Exp", "describedValueDomain": "ISO 8601", "description": "Collection date and time of the observation represented in ISO 8601 character format.", "label": "Date/Time", "name": "PYDTC", "ordinal": "21", "role": "Timing", "simpleDatatype": "Char"}, {"_links": {"modelClassVariable": {"href": "/mdr/sdtm/1-6/classes/GeneralObservations/variables/--DY", "title": "Study Day of Visit/Collection/Exam", "type": "Class Variable"}, "parentDataset": {"href": "/mdr/sendig/dart-1-2/datasets/PY", "title": "Nonclinical Pregnancy Results", "type": "SDTM Dataset"}, "parentProduct": {"href": "/mdr/sendig/dart-1-2", "title": "Standard for Exchange of Nonclinical Data Implementation Guide: Developmental and Reproductive Toxicology Version 1.2", "type": "Implementation Guide"}, "priorVersion": {"href": "/mdr/sendig/dart-1-1/datasets/PY/variables/PYDY", "title": "Study Day", "type": "SDTM Dataset Variable"}, "rootItem": {"href": "/mdr/root/sendig/datasets/PY/variables/PYDY", "title": "Version-agnostic anchor resource for SENDIG variable PY.PYDY", "type": "Root Data Element"}, "self": {"href": "/mdr/sendig/dart-1-2/datasets/PY/variables/PYDY", "title": "Study Day", "type": "SDTM Dataset Variable"}}, "core": "Perm", "description": "Study day of the observation expressed in integer days relative to the protocol-defined RFSTDTC.", "label": "Study Day", "name": "PYDY", "ordinal": "22", "role": "Timing", "simpleDatatype": "Num"}, {"_links": {"modelClassVariable": {"href": "/mdr/sdtm/1-6/classes/GeneralObservations/variables/--RPDY", "title": "Actual Repro Phase Day of Observation", "type": "Class Variable"}, "parentDataset": {"href": "/mdr/sendig/dart-1-2/datasets/PY", "title": "Nonclinical Pregnancy Results", "type": "SDTM Dataset"}, "parentProduct": {"href": "/mdr/sendig/dart-1-2", "title": "Standard for Exchange of Nonclinical Data Implementation Guide: Developmental and Reproductive Toxicology Version 1.2", "type": "Implementation Guide"}, "priorVersion": {"href": "/mdr/sendig/dart-1-1/datasets/PY/variables/PYRPDY", "title": "Actual Repro Phase Day", "type": "SDTM Dataset Variable"}, "rootItem": {"href": "/mdr/root/sendig/datasets/PY/variables/PYRPDY", "title": "Version-agnostic anchor resource for SENDIG variable PY.PYRPDY", "type": "Root Data Element"}, "self": {"href": "/mdr/sendig/dart-1-2/datasets/PY/variables/PYRPDY", "title": "Actual Repro Phase Day of Observation", "type": "SDTM Dataset Variable"}}, "core": "Exp", "description": "Actual day within the Reproductive Phase on which the observation occurred. Used in conjunction with RPHASE. Should be an integer.", "label": "Actual Repro Phase Day of Observation", "name": "PYRPDY", "ordinal": "23", "role": "Timing", "simpleDatatype": "Num"}], "label": "Nonclinical Pregnancy Results", "name": "PY", "ordinal": "17"}
