{"_links": {"parentClass": {"href": "/mdr/cdashig/2-1/classes/Findings", "title": "Findings", "type": "Class"}, "parentDomain": {"href": "/mdr/cdashig/2-1/domains/EG", "title": "ECG", "type": "CDASH Domain"}, "parentProduct": {"href": "/mdr/cdashig/2-1", "title": "Clinical Data Acquisition Standards Harmonization Implementation Guide for Human Clinical Trials Version 2.1", "type": "Implementation Guide"}, "priorVersion": {"href": "/mdr/cdashig/2-0/scenarios/EG.CentralReadingIA", "title": "Scenario 3: Central Reading with Investigator Assessment of Clinical Significance Assessment and/or Overall Interpretation", "type": "CDASH Scenario"}, "self": {"href": "/mdr/cdashig/2-1/scenarios/EG.CentralReadingIA", "title": "Central Reading with Investigator Assessment", "type": "CDASH Scenario"}}, "domain": "ECG", "domainName": "EG", "fields": [{"_links": {"parentDomain": {"href": "/mdr/cdashig/2-1/domains/EG", "title": "ECG", "type": "CDASH Domain"}, "parentProduct": {"href": "/mdr/cdashig/2-1", "title": "Clinical Data Acquisition Standards Harmonization Implementation Guide for Human Clinical Trials Version 2.1", "type": "Implementation Guide"}, "parentScenario": {"href": "/mdr/cdashig/2-1/scenarios/EG.CentralReadingIA", "title": "Central Reading with Investigator Assessment", "type": "CDASH Scenario"}, "priorVersion": {"href": "/mdr/cdashig/2-0/scenarios/EG.CentralReadingIA/fields/STUDYID", "title": "Study Identifier", "type": "Data Collection Field"}, "rootItem": {"href": "/mdr/root/cdashig/scenarios/EG.CentralReadingIA/fields/STUDYID", "title": "Version-agnostic anchor element for scenario field EG.CentralReadingIA.STUDYID", "type": "Root Data Element"}, "sdtmigDatasetMappingTargets": [{"href": "/mdr/sdtmig/3-2/datasets/EG/variables/STUDYID", "title": "Study Identifier", "type": "SDTM Dataset Variable"}], "self": {"href": "/mdr/cdashig/2-1/scenarios/EG.CentralReadingIA/fields/STUDYID", "title": "Study Identifier", "type": "Data Collection Field"}}, "core": "HR", "definition": "A unique identifier for a study.", "implementationNotes": "While this field is not typically captured on a CRF, it should be displayed clearly on the CRF and/or the EDC system. This field can be included into the database or populated during SDTM-based dataset creation before submission.", "label": "Study Identifier", "mappingInstructions": "Maps directly to the SDTMIG variable listed in the column with the heading SDTMIG Target.", "name": "STUDYID", "ordinal": "1", "prompt": "[Protocol/Study]", "questionText": "What is the study identifier?", "simpleDatatype": "Char"}, {"_links": {"parentDomain": {"href": "/mdr/cdashig/2-1/domains/EG", "title": "ECG", "type": "CDASH Domain"}, "parentProduct": {"href": "/mdr/cdashig/2-1", "title": "Clinical Data Acquisition Standards Harmonization Implementation Guide for Human Clinical Trials Version 2.1", "type": "Implementation Guide"}, "parentScenario": {"href": "/mdr/cdashig/2-1/scenarios/EG.CentralReadingIA", "title": "Central Reading with Investigator Assessment", "type": "CDASH Scenario"}, "priorVersion": {"href": "/mdr/cdashig/2-0/scenarios/EG.CentralReadingIA/fields/SITEID", "title": "Study Site Identifier", "type": "Data Collection Field"}, "rootItem": {"href": "/mdr/root/cdashig/scenarios/EG.CentralReadingIA/fields/SITEID", "title": "Version-agnostic anchor element for scenario field EG.CentralReadingIA.SITEID", "type": "Root Data Element"}, "sdtmigDatasetMappingTargets": [{"href": "/mdr/sdtmig/3-2/datasets/DM/variables/SITEID", "title": "Study Site Identifier", "type": "SDTM Dataset Variable"}], "self": {"href": "/mdr/cdashig/2-1/scenarios/EG.CentralReadingIA/fields/SITEID", "title": "Study Site Identifier", "type": "Data Collection Field"}}, "core": "HR", "definition": "A unique identifier for a site within a study.", "implementationNotes": "Paper: This is typically preprinted in the header of each CRF page for single site studies. For studies with multiple sites, this field may be left blank so that the number can be recorded by the site, or it may be preprinted on the CRFs that are shipped to each site. EDC: This should be prepopulated.", "label": "Study Site Identifier", "mappingInstructions": "Maps directly to the SDTMIG variable listed in the column with the heading SDTMIG Target.", "name": "SITEID", "ordinal": "2", "prompt": "Site (Identifier)", "questionText": "What is the site identifier?", "simpleDatatype": "Char"}, {"_links": {"parentDomain": {"href": "/mdr/cdashig/2-1/domains/EG", "title": "ECG", "type": "CDASH Domain"}, "parentProduct": {"href": "/mdr/cdashig/2-1", "title": "Clinical Data Acquisition Standards Harmonization Implementation Guide for Human Clinical Trials Version 2.1", "type": "Implementation Guide"}, "parentScenario": {"href": "/mdr/cdashig/2-1/scenarios/EG.CentralReadingIA", "title": "Central Reading with Investigator Assessment", "type": "CDASH Scenario"}, "priorVersion": {"href": "/mdr/cdashig/2-0/scenarios/EG.CentralReadingIA/fields/SUBJID", "title": "Subject Identifier for the Study", "type": "Data Collection Field"}, "rootItem": {"href": "/mdr/root/cdashig/scenarios/EG.CentralReadingIA/fields/SUBJID", "title": "Version-agnostic anchor element for scenario field EG.CentralReadingIA.SUBJID", "type": "Root Data Element"}, "sdtmigDatasetMappingTargets": [{"href": "/mdr/sdtmig/3-2/datasets/DM/variables/SUBJID", "title": "Subject Identifier for the Study", "type": "SDTM Dataset Variable"}], "self": {"href": "/mdr/cdashig/2-1/scenarios/EG.CentralReadingIA/fields/SUBJID", "title": "Subject Identifier for the Study", "type": "Data Collection Field"}}, "completionInstructions": "Record the identifier for the subject.", "core": "HR", "definition": "A unique subject identifier within a site and a study.", "implementationNotes": "Paper: This is typically recorded in the header of each CRF page. EDC: The subject identifiers may be system generated. This CDASH variable is typically collected in all CDASH domains. However, this CDASH variable is populated only in the SDTMIG DM domain. For more information, refer to the SDTM Implementation Guide.", "label": "Subject Identifier for the Study", "mappingInstructions": "Maps directly to the SDTMIG variable listed in the column with the heading SDTMIG Target.", "name": "SUBJID", "ordinal": "3", "prompt": "[Subject/Participant] (Identifier)", "questionText": "What [is/was] the (study) [subject/participant] identifier?", "simpleDatatype": "Char"}, {"_links": {"parentDomain": {"href": "/mdr/cdashig/2-1/domains/EG", "title": "ECG", "type": "CDASH Domain"}, "parentProduct": {"href": "/mdr/cdashig/2-1", "title": "Clinical Data Acquisition Standards Harmonization Implementation Guide for Human Clinical Trials Version 2.1", "type": "Implementation Guide"}, "parentScenario": {"href": "/mdr/cdashig/2-1/scenarios/EG.CentralReadingIA", "title": "Central Reading with Investigator Assessment", "type": "CDASH Scenario"}, "priorVersion": {"href": "/mdr/cdashig/2-0/scenarios/EG.CentralReadingIA/fields/VISIT", "title": "Visit Name", "type": "Data Collection Field"}, "rootItem": {"href": "/mdr/root/cdashig/scenarios/EG.CentralReadingIA/fields/VISIT", "title": "Version-agnostic anchor element for scenario field EG.CentralReadingIA.VISIT", "type": "Root Data Element"}, "sdtmigDatasetMappingTargets": [{"href": "/mdr/sdtmig/3-2/datasets/EG/variables/VISIT", "title": "Visit Name", "type": "SDTM Dataset Variable"}], "self": {"href": "/mdr/cdashig/2-1/scenarios/EG.CentralReadingIA/fields/VISIT", "title": "Visit Name", "type": "Data Collection Field"}}, "core": "R/C", "definition": "The name of a clinical encounter that encompasses planned and unplanned trial interventions, procedures, and assessments that may be performed on a subject.", "implementationNotes": "This CDASH variable is typically collected in all CDASH domains. However, this CDASH variable is represented only in the SDTMIG DM domain. For more information, refer to SDTM Table 2.2.4.", "label": "Visit Name", "mappingInstructions": "Maps directly to the SDTMIG variable listed in the column with the heading SDTMIG Target.", "name": "VISIT", "ordinal": "4", "prompt": "[Visit]", "questionText": "What is the visit name?", "simpleDatatype": "Char"}, {"_links": {"parentDomain": {"href": "/mdr/cdashig/2-1/domains/EG", "title": "ECG", "type": "CDASH Domain"}, "parentProduct": {"href": "/mdr/cdashig/2-1", "title": "Clinical Data Acquisition Standards Harmonization Implementation Guide for Human Clinical Trials Version 2.1", "type": "Implementation Guide"}, "parentScenario": {"href": "/mdr/cdashig/2-1/scenarios/EG.CentralReadingIA", "title": "Central Reading with Investigator Assessment", "type": "CDASH Scenario"}, "priorVersion": {"href": "/mdr/cdashig/2-0/scenarios/EG.CentralReadingIA/fields/VISDAT", "title": "Visit Date", "type": "Data Collection Field"}, "rootItem": {"href": "/mdr/root/cdashig/scenarios/EG.CentralReadingIA/fields/VISDAT", "title": "Version-agnostic anchor element for scenario field EG.CentralReadingIA.VISDAT", "type": "Root Data Element"}, "self": {"href": "/mdr/cdashig/2-1/scenarios/EG.CentralReadingIA/fields/VISDAT", "title": "Visit Date", "type": "Data Collection Field"}}, "completionInstructions": "Record the [date/start date] of the visit using DD-MON-YYYY format.", "core": "R/C", "definition": "Date the clinical encounter occurred (or started).", "implementationNotes": "The date the ECG measurements were collected can be determined from the Visit Date variable (VISDAT) and applying that date to all of the ECG measurements at that visit, or the collection date can be included on the ECG CRF using the date (EGDAT) field.", "label": "Visit Date", "mappingInstructions": "This field is not an SDTM variable. The date of a measurement, test, observation can be determined from the date/time of visit (VISDAT/VISTIM) and then concatenating the CDASH VISDAT/VISTIM components and populating the SDTMIG variable EGDTC in ISO 8601 format.", "name": "VISDAT", "ordinal": "5", "prompt": "(Visit) Date", "questionText": "What [is/was] the date of the visit?", "simpleDatatype": "Char"}, {"_links": {"parentDomain": {"href": "/mdr/cdashig/2-1/domains/EG", "title": "ECG", "type": "CDASH Domain"}, "parentProduct": {"href": "/mdr/cdashig/2-1", "title": "Clinical Data Acquisition Standards Harmonization Implementation Guide for Human Clinical Trials Version 2.1", "type": "Implementation Guide"}, "parentScenario": {"href": "/mdr/cdashig/2-1/scenarios/EG.CentralReadingIA", "title": "Central Reading with Investigator Assessment", "type": "CDASH Scenario"}, "priorVersion": {"href": "/mdr/cdashig/2-0/scenarios/EG.CentralReadingIA/fields/EGCAT", "title": "Category for ECG", "type": "Data Collection Field"}, "rootItem": {"href": "/mdr/root/cdashig/scenarios/EG.CentralReadingIA/fields/EGCAT", "title": "Version-agnostic anchor element for scenario field EG.CentralReadingIA.EGCAT", "type": "Root Data Element"}, "sdtmigDatasetMappingTargets": [{"href": "/mdr/sdtmig/3-2/datasets/EG/variables/EGCAT", "title": "Category for ECG", "type": "SDTM Dataset Variable"}], "self": {"href": "/mdr/cdashig/2-1/scenarios/EG.CentralReadingIA/fields/EGCAT", "title": "Category for ECG", "type": "Data Collection Field"}}, "completionInstructions": "Record the ECG finding category, if not preprinted on the CRF.", "core": "O", "definition": "A grouping of topic-variable values based on user-defined characteristics.", "implementationNotes": "Sponsor-defined controlled terminology. This would most commonly be either a heading or a preprinted category value on the CRF, and not a question to which the site would provide an answer. If a question is asked, the response would typically be a sponsor-defined codelist. If the form is laid out as a grid, then words such as \"Category\" can be included as the column header.", "label": "Category for ECG", "mappingInstructions": "Maps directly to the SDTMIG variable listed in the column with the heading SDTMIG Target.", "name": "EGCAT", "ordinal": "6", "prompt": "[ECG Category]; NULL", "questionText": "What was the category of the ECG finding?", "simpleDatatype": "Char"}, {"_links": {"parentDomain": {"href": "/mdr/cdashig/2-1/domains/EG", "title": "ECG", "type": "CDASH Domain"}, "parentProduct": {"href": "/mdr/cdashig/2-1", "title": "Clinical Data Acquisition Standards Harmonization Implementation Guide for Human Clinical Trials Version 2.1", "type": "Implementation Guide"}, "parentScenario": {"href": "/mdr/cdashig/2-1/scenarios/EG.CentralReadingIA", "title": "Central Reading with Investigator Assessment", "type": "CDASH Scenario"}, "priorVersion": {"href": "/mdr/cdashig/2-0/scenarios/EG.CentralReadingIA/fields/EGSCAT", "title": "Subcategory for ECG", "type": "Data Collection Field"}, "rootItem": {"href": "/mdr/root/cdashig/scenarios/EG.CentralReadingIA/fields/EGSCAT", "title": "Version-agnostic anchor element for scenario field EG.CentralReadingIA.EGSCAT", "type": "Root Data Element"}, "sdtmigDatasetMappingTargets": [{"href": "/mdr/sdtmig/3-2/datasets/EG/variables/EGSCAT", "title": "Subcategory for ECG", "type": "SDTM Dataset Variable"}], "self": {"href": "/mdr/cdashig/2-1/scenarios/EG.CentralReadingIA/fields/EGSCAT", "title": "Subcategory for ECG", "type": "Data Collection Field"}}, "completionInstructions": "Record the ECG finding subcategory, if not preprinted on the CRF.", "core": "O", "definition": "A sub-division of the EGCAT values based on user-defined characteristics.", "implementationNotes": "Sponsor-defined controlled terminology. This would most commonly be either a heading or a preprinted category value on the CRF, and not a question to which the site would provide an answer. If a question is asked, the response would typically be a sponsor-defined codelist. If the form is laid out as a grid, then words such as \"Subcategory\" can be included as the column header EGSCAT can only be used if there is an EGCAT and it must be a subcategorization of EGCAT.", "label": "Subcategory for ECG", "mappingInstructions": "Maps directly to the SDTMIG variable listed in the column with the heading SDTMIG Target.", "name": "EGSCAT", "ordinal": "7", "prompt": "[ECG Subcategory]; NULL", "questionText": "What was the subcategory of the ECG finding?", "simpleDatatype": "Char"}, {"_links": {"codelist": [{"href": "/mdr/root/ct/sdtmct/codelists/C66742", "title": "Version-agnostic anchor resource for codelist C66742", "type": "Root Value Domain"}], "parentDomain": {"href": "/mdr/cdashig/2-1/domains/EG", "title": "ECG", "type": "CDASH Domain"}, "parentProduct": {"href": "/mdr/cdashig/2-1", "title": "Clinical Data Acquisition Standards Harmonization Implementation Guide for Human Clinical Trials Version 2.1", "type": "Implementation Guide"}, "parentScenario": {"href": "/mdr/cdashig/2-1/scenarios/EG.CentralReadingIA", "title": "Central Reading with Investigator Assessment", "type": "CDASH Scenario"}, "priorVersion": {"href": "/mdr/cdashig/2-0/scenarios/EG.CentralReadingIA/fields/EGPERF", "title": "ECG Performed", "type": "Data Collection Field"}, "rootItem": {"href": "/mdr/root/cdashig/scenarios/EG.CentralReadingIA/fields/EGPERF", "title": "Version-agnostic anchor element for scenario field EG.CentralReadingIA.EGPERF", "type": "Root Data Element"}, "sdtmigDatasetMappingTargets": [{"href": "/mdr/sdtmig/3-2/datasets/EG/variables/EGSTAT", "title": "Completion Status", "type": "SDTM Dataset Variable"}], "self": {"href": "/mdr/cdashig/2-1/scenarios/EG.CentralReadingIA/fields/EGPERF", "title": "ECG Performed", "type": "Data Collection Field"}}, "completionInstructions": "Indicate whether or not an ECG or specific ECG test was done.", "core": "HR", "definition": "An indication of whether or not a planned measurement, series of measurements, test, or observation was performed.", "implementationNotes": "This may be implemented for an entire ECG, or a specific ECG test basis. General prompt question to be used as a data management tool to verify that missing results are confirmed missing.", "label": "ECG Performed", "mappingInstructions": "This does not map directly to an SDTMIG variable. May be used to derive a value into the SDTMIG variable EGSTAT. If the CDASH field EGPERF=\"N\", the value of EGSTAT will be \"NOT DONE\". If EGPERF=\"Y\", EGSTAT should be null. A combination of SDTMIG variables (e.g., EGCAT and EGSCAT, EGTPT ) is used to indicate that multiple tests were not done. In this situation, the SDTMIG variable EGTESTCD would be populated as EGALL and an appropriate test name (EGTEST) provided. See SDTMIG v3.2 Section 4.1.5.1.2.", "name": "EGPERF", "ordinal": "8", "prompt": "ECG Performed", "questionText": "Was the ECG performed?", "simpleDatatype": "Char"}, {"_links": {"parentDomain": {"href": "/mdr/cdashig/2-1/domains/EG", "title": "ECG", "type": "CDASH Domain"}, "parentProduct": {"href": "/mdr/cdashig/2-1", "title": "Clinical Data Acquisition Standards Harmonization Implementation Guide for Human Clinical Trials Version 2.1", "type": "Implementation Guide"}, "parentScenario": {"href": "/mdr/cdashig/2-1/scenarios/EG.CentralReadingIA", "title": "Central Reading with Investigator Assessment", "type": "CDASH Scenario"}, "priorVersion": {"href": "/mdr/cdashig/2-0/scenarios/EG.CentralReadingIA/fields/EGREFID", "title": "EG Reference ID", "type": "Data Collection Field"}, "rootItem": {"href": "/mdr/root/cdashig/scenarios/EG.CentralReadingIA/fields/EGREFID", "title": "Version-agnostic anchor element for scenario field EG.CentralReadingIA.EGREFID", "type": "Root Data Element"}, "sdtmigDatasetMappingTargets": [{"href": "/mdr/sdtmig/3-2/datasets/EG/variables/EGREFID", "title": "ECG Reference ID", "type": "SDTM Dataset Variable"}], "self": {"href": "/mdr/cdashig/2-1/scenarios/EG.CentralReadingIA/fields/EGREFID", "title": "ECG Reference ID", "type": "Data Collection Field"}}, "completionInstructions": "Record the identifier number assigned.", "core": "O", "definition": "An internal or external identifier of the ECG (e.g., waveform number).", "implementationNotes": "This can be used to confirm that the appropriate data record is present in the electronic transfer if this reference ID happens to be available to the site at the time of collection. (e.g., Universally Unique Identifier (UUID) for external waveform file, session number automatically generated by electronic equipment). This can also be used to link.", "label": "ECG Reference ID", "mappingInstructions": "Maps directly to the SDTMIG variable listed in the column with the heading SDTMIG Target. May be used to create RELREC to link this record with a record in another domain.", "name": "EGREFID", "ordinal": "9", "prompt": "(ECG) [Reference Identifier/Accession Number]", "questionText": "What was the (ECG) [reference identifier/accession number]?", "simpleDatatype": "Char"}, {"_links": {"codelist": [{"href": "/mdr/root/ct/sdtmct/codelists/C71151", "title": "Version-agnostic anchor resource for codelist C71151", "type": "Root Value Domain"}], "parentDomain": {"href": "/mdr/cdashig/2-1/domains/EG", "title": "ECG", "type": "CDASH Domain"}, "parentProduct": {"href": "/mdr/cdashig/2-1", "title": "Clinical Data Acquisition Standards Harmonization Implementation Guide for Human Clinical Trials Version 2.1", "type": "Implementation Guide"}, "parentScenario": {"href": "/mdr/cdashig/2-1/scenarios/EG.CentralReadingIA", "title": "Central Reading with Investigator Assessment", "type": "CDASH Scenario"}, "priorVersion": {"href": "/mdr/cdashig/2-0/scenarios/EG.CentralReadingIA/fields/EGMETHOD", "title": "ECG Method", "type": "Data Collection Field"}, "rootItem": {"href": "/mdr/root/cdashig/scenarios/EG.CentralReadingIA/fields/EGMETHOD", "title": "Version-agnostic anchor element for scenario field EG.CentralReadingIA.EGMETHOD", "type": "Root Data Element"}, "sdtmigDatasetMappingTargets": [{"href": "/mdr/sdtmig/3-2/datasets/EG/variables/EGMETHOD", "title": "Method of ECG Test", "type": "SDTM Dataset Variable"}], "self": {"href": "/mdr/cdashig/2-1/scenarios/EG.CentralReadingIA/fields/EGMETHOD", "title": "Method of ECG Test", "type": "Data Collection Field"}}, "completionInstructions": "Record the method used for the ECG.", "core": "O", "definition": "Method of the test or examination.", "implementationNotes": "Results may be affected by whether conditions for ECG as specified in the protocol were properly met. One possible condition is the method used to collect or calculate the ECG data. If the protocol requires this type of information, then this question may be included to confirm that the method used matches the protocol. The following are examples of when it is not necessary to collect these data on the CRF: \n * Method of ECG is provided as part of the electronic data. \n * Method of ECG is not pertinent to the protocol. \n * The protocol specifies only one possible method for collecting ECG measurements and the sponsor does not feel there is significant risk of the sites performing the ECG using the incorrect method.", "label": "Method of ECG Test", "mappingInstructions": "Maps directly to the SDTMIG variable listed in the column with the heading SDTMIG Target.", "name": "EGMETHOD", "ordinal": "10", "prompt": "Method", "questionText": "What was the method used for the ECG?", "simpleDatatype": "Char"}, {"_links": {"codelist": [{"href": "/mdr/root/ct/sdtmct/codelists/C71148", "title": "Version-agnostic anchor resource for codelist C71148", "type": "Root Value Domain"}], "parentDomain": {"href": "/mdr/cdashig/2-1/domains/EG", "title": "ECG", "type": "CDASH Domain"}, "parentProduct": {"href": "/mdr/cdashig/2-1", "title": "Clinical Data Acquisition Standards Harmonization Implementation Guide for Human Clinical Trials Version 2.1", "type": "Implementation Guide"}, "parentScenario": {"href": "/mdr/cdashig/2-1/scenarios/EG.CentralReadingIA", "title": "Central Reading with Investigator Assessment", "type": "CDASH Scenario"}, "priorVersion": {"href": "/mdr/cdashig/2-0/scenarios/EG.CentralReadingIA/fields/EGPOS", "title": "ECG Position of Subject", "type": "Data Collection Field"}, "rootItem": {"href": "/mdr/root/cdashig/scenarios/EG.CentralReadingIA/fields/EGPOS", "title": "Version-agnostic anchor element for scenario field EG.CentralReadingIA.EGPOS", "type": "Root Data Element"}, "sdtmigDatasetMappingTargets": [{"href": "/mdr/sdtmig/3-2/datasets/EG/variables/EGPOS", "title": "ECG Position of Subject", "type": "SDTM Dataset Variable"}], "self": {"href": "/mdr/cdashig/2-1/scenarios/EG.CentralReadingIA/fields/EGPOS", "title": "ECG Position of Subject", "type": "Data Collection Field"}}, "completionInstructions": "Record the position of the subject during the ECG.", "core": "O", "definition": "The position of the subject during the ECG measurement.", "implementationNotes": "Results may be affected by whether conditions for ECG as specified in the protocol were properly met. One common condition is the subject's position. If the protocol requires this type of information, then this question may be included to confirm that the subject's position matches the protocol. The following are examples of when it is not necessary to collect these data on the CRF: \n * Position of the subject is provided as part of the electronic data. \n * Position of the subject is not pertinent to the protocol. \n * The protocol specifies only one possible position and the sponsor does not feel there is significant risk of the sites performing the ECG with the subject in the wrong position.", "label": "ECG Position of Subject", "mappingInstructions": "Maps directly to the SDTMIG variable listed in the column with the heading SDTMIG Target.", "name": "EGPOS", "ordinal": "11", "prompt": "Position", "questionText": "What was the position of the subject during the ECG measurement?", "simpleDatatype": "Char"}, {"_links": {"parentDomain": {"href": "/mdr/cdashig/2-1/domains/EG", "title": "ECG", "type": "CDASH Domain"}, "parentProduct": {"href": "/mdr/cdashig/2-1", "title": "Clinical Data Acquisition Standards Harmonization Implementation Guide for Human Clinical Trials Version 2.1", "type": "Implementation Guide"}, "parentScenario": {"href": "/mdr/cdashig/2-1/scenarios/EG.CentralReadingIA", "title": "Central Reading with Investigator Assessment", "type": "CDASH Scenario"}, "priorVersion": {"href": "/mdr/cdashig/2-0/scenarios/EG.CentralReadingIA/fields/EGDAT", "title": "Date of ECG", "type": "Data Collection Field"}, "rootItem": {"href": "/mdr/root/cdashig/scenarios/EG.CentralReadingIA/fields/EGDAT", "title": "Version-agnostic anchor element for scenario field EG.CentralReadingIA.EGDAT", "type": "Root Data Element"}, "sdtmigDatasetMappingTargets": [{"href": "/mdr/sdtmig/3-2/datasets/EG/variables/EGDTC", "title": "Date/Time of ECG", "type": "SDTM Dataset Variable"}], "self": {"href": "/mdr/cdashig/2-1/scenarios/EG.CentralReadingIA/fields/EGDAT", "title": "Date of ECG", "type": "Data Collection Field"}}, "completionInstructions": "Record the date ECG was done using this format (DD-MON-YYYY).", "core": "R/C", "definition": "The date the ECG was performed, represented in an unambiguous date format (e.g., DD-MON-YYYY).", "implementationNotes": "A complete date is expected. The date of collection may be determined from the date of visit (VISDAT) and if so, a separate assessment date field is not required.", "label": "Date of ECG", "mappingInstructions": "This does not map directly to an SDTMIG variable. For the SDTM submission dataset, concatenate all collected CDASH DATE and TIME components and populate the SDTMIG variable EGDTC in ISO 8601 format.", "name": "EGDAT", "ordinal": "12", "prompt": "ECG Date", "questionText": "What was the date of the ECG?", "simpleDatatype": "Char"}, {"_links": {"parentDomain": {"href": "/mdr/cdashig/2-1/domains/EG", "title": "ECG", "type": "CDASH Domain"}, "parentProduct": {"href": "/mdr/cdashig/2-1", "title": "Clinical Data Acquisition Standards Harmonization Implementation Guide for Human Clinical Trials Version 2.1", "type": "Implementation Guide"}, "parentScenario": {"href": "/mdr/cdashig/2-1/scenarios/EG.CentralReadingIA", "title": "Central Reading with Investigator Assessment", "type": "CDASH Scenario"}, "priorVersion": {"href": "/mdr/cdashig/2-0/scenarios/EG.CentralReadingIA/fields/EGTPT", "title": "ECG Planned Time Point Name", "type": "Data Collection Field"}, "rootItem": {"href": "/mdr/root/cdashig/scenarios/EG.CentralReadingIA/fields/EGTPT", "title": "Version-agnostic anchor element for scenario field EG.CentralReadingIA.EGTPT", "type": "Root Data Element"}, "sdtmigDatasetMappingTargets": [{"href": "/mdr/sdtmig/3-2/datasets/EG/variables/EGTPT", "title": "Planned Time Point Name", "type": "SDTM Dataset Variable"}], "self": {"href": "/mdr/cdashig/2-1/scenarios/EG.CentralReadingIA/fields/EGTPT", "title": "ECG Planned Time Point Name", "type": "Data Collection Field"}}, "completionInstructions": "Record the time point labels for when the ECG test should be taken, if not preprinted on the CRF.", "core": "R/C", "definition": "A text description of planned time point when measurements should be taken as defined in the protocol.", "implementationNotes": "Planned time points are needed to differentiate multiple sequential assessments. It is recommended that time points should be preprinted on the CRF rather than collected in a field that requires the site to enter text. If the form is laid out as a grid, then words such as \"Planned Time Point\" can be included as the column header.", "label": "ECG Planned Time Point Name", "mappingInstructions": "Maps directly to the SDTMIG variable listed in the column with the heading SDTMIG Target. See SDTMIG for additional information on representing time points. SDTMIG time point anchors EGTPTREF (text description) and EGRFTDTC (date/time) may be needed, as well as SDTMIG variables EGTPTNUM, EGELTM.", "name": "EGTPT", "ordinal": "13", "prompt": "[Planned Time Point Name]", "questionText": "What was the planned time point of the ECG measurement?", "simpleDatatype": "Char"}, {"_links": {"parentDomain": {"href": "/mdr/cdashig/2-1/domains/EG", "title": "ECG", "type": "CDASH Domain"}, "parentProduct": {"href": "/mdr/cdashig/2-1", "title": "Clinical Data Acquisition Standards Harmonization Implementation Guide for Human Clinical Trials Version 2.1", "type": "Implementation Guide"}, "parentScenario": {"href": "/mdr/cdashig/2-1/scenarios/EG.CentralReadingIA", "title": "Central Reading with Investigator Assessment", "type": "CDASH Scenario"}, "priorVersion": {"href": "/mdr/cdashig/2-0/scenarios/EG.CentralReadingIA/fields/EGTIM", "title": "Time of ECG", "type": "Data Collection Field"}, "rootItem": {"href": "/mdr/root/cdashig/scenarios/EG.CentralReadingIA/fields/EGTIM", "title": "Version-agnostic anchor element for scenario field EG.CentralReadingIA.EGTIM", "type": "Root Data Element"}, "sdtmigDatasetMappingTargets": [{"href": "/mdr/sdtmig/3-2/datasets/EG/variables/EGDTC", "title": "Date/Time of ECG", "type": "SDTM Dataset Variable"}], "self": {"href": "/mdr/cdashig/2-1/scenarios/EG.CentralReadingIA/fields/EGTIM", "title": "Time of ECG", "type": "Data Collection Field"}}, "completionInstructions": "Record the time the ECG was done (as complete as possible).", "core": "R/C", "definition": "Time of ECG, represented in an unambiguous time format (e.g., hh:mm:ss).", "implementationNotes": "May be required when multiple assessments are done on 1 day or when the timing in relationship to study treatment is required for analysis.", "label": "Time of ECG", "mappingInstructions": "This does not map directly to an SDTMIG variable. For the SDTM submission dataset, concatenate all collected CDASH DATE and TIME components and populate the SDTMIG variable EGDTC in ISO 8601 format.", "name": "EGTIM", "ordinal": "14", "prompt": "ECG Time", "questionText": "What was the time the ECG was collected?", "simpleDatatype": "Char"}, {"_links": {"codelist": [{"href": "/mdr/root/ct/sdtmct/codelists/C78735", "title": "Version-agnostic anchor resource for codelist C78735", "type": "Root Value Domain"}], "parentDomain": {"href": "/mdr/cdashig/2-1/domains/EG", "title": "ECG", "type": "CDASH Domain"}, "parentProduct": {"href": "/mdr/cdashig/2-1", "title": "Clinical Data Acquisition Standards Harmonization Implementation Guide for Human Clinical Trials Version 2.1", "type": "Implementation Guide"}, "parentScenario": {"href": "/mdr/cdashig/2-1/scenarios/EG.CentralReadingIA", "title": "Central Reading with Investigator Assessment", "type": "CDASH Scenario"}, "priorVersion": {"href": "/mdr/cdashig/2-0/scenarios/EG.CentralReadingIA/fields/EGEVAL", "title": "ECG Evaluator", "type": "Data Collection Field"}, "rootItem": {"href": "/mdr/root/cdashig/scenarios/EG.CentralReadingIA/fields/EGEVAL", "title": "Version-agnostic anchor element for scenario field EG.CentralReadingIA.EGEVAL", "type": "Root Data Element"}, "sdtmigDatasetMappingTargets": [{"href": "/mdr/sdtmig/3-2/datasets/EG/variables/EGEVAL", "title": "Evaluator", "type": "SDTM Dataset Variable"}], "self": {"href": "/mdr/cdashig/2-1/scenarios/EG.CentralReadingIA/fields/EGEVAL", "title": "ECG Evaluator", "type": "Data Collection Field"}}, "completionInstructions": "Select the role of the person who provided the evaluation (e.g., INVESTIGATOR, ADJUDICATION COMMITTEE, VENDOR).", "core": "O", "definition": "The role of the person who provided the evaluation.", "implementationNotes": "Used only for results that are subjective (e.g., assigned by a person or a group). May be preprinted or collected. Sponsors may collect the data using a subset list of controlled terminology on the CRF.", "label": "ECG Evaluator", "mappingInstructions": "Maps directly to the SDTMIG variable listed in the column with the heading SDTMIG Target.", "name": "EGEVAL", "ordinal": "15", "prompt": "[Evaluator/Reporter]", "questionText": "Who provided the information?; Who was the evaluator?", "simpleDatatype": "Char"}, {"_links": {"parentDomain": {"href": "/mdr/cdashig/2-1/domains/EG", "title": "ECG", "type": "CDASH Domain"}, "parentProduct": {"href": "/mdr/cdashig/2-1", "title": "Clinical Data Acquisition Standards Harmonization Implementation Guide for Human Clinical Trials Version 2.1", "type": "Implementation Guide"}, "parentScenario": {"href": "/mdr/cdashig/2-1/scenarios/EG.CentralReadingIA", "title": "Central Reading with Investigator Assessment", "type": "CDASH Scenario"}, "priorVersion": {"href": "/mdr/cdashig/2-0/scenarios/EG.CentralReadingIA/fields/INTP_EGORRES", "title": "ECG Interpretation", "type": "Data Collection Field"}, "rootItem": {"href": "/mdr/root/cdashig/scenarios/EG.CentralReadingIA/fields/INTP_EGORRES", "title": "Version-agnostic anchor element for scenario field EG.CentralReadingIA.INTP_EGORRES", "type": "Root Data Element"}, "sdtmigDatasetMappingTargets": [{"href": "/mdr/sdtmig/3-2/datasets/EG/variables/EGORRES", "title": "Result or Finding in Original Units", "type": "SDTM Dataset Variable"}], "self": {"href": "/mdr/cdashig/2-1/scenarios/EG.CentralReadingIA/fields/INTP_EGORRES", "title": "ECG Interpretation", "type": "Data Collection Field"}}, "completionInstructions": "Record overall interpretations of the ECG.", "core": "O", "definition": "Overall interpretation of the result of the measurement or finding.", "implementationNotes": "The overall interpretation of an ECG is mapped into the appropriate SDTM test and result variables. See the SDTMIG EG Domain for details.", "label": "ECG Interpretation", "mappingInstructions": "This does not map directly to an SDTM variable. For the SDTM submission dataset, the recorded interpretation is populated into the SDTMIG variable EGORRES where EGTEST= \"Interpretation\", and EGTESTCD=\"INTP\".", "name": "INTP_EGORRES", "ordinal": "16", "prompt": "Interpretation", "questionText": "What was the interpretation of the ECG?", "simpleDatatype": "Char"}, {"_links": {"codelist": [{"href": "/mdr/root/ct/sdtmct/codelists/C66742", "title": "Version-agnostic anchor resource for codelist C66742", "type": "Root Value Domain"}], "parentDomain": {"href": "/mdr/cdashig/2-1/domains/EG", "title": "ECG", "type": "CDASH Domain"}, "parentProduct": {"href": "/mdr/cdashig/2-1", "title": "Clinical Data Acquisition Standards Harmonization Implementation Guide for Human Clinical Trials Version 2.1", "type": "Implementation Guide"}, "parentScenario": {"href": "/mdr/cdashig/2-1/scenarios/EG.CentralReadingIA", "title": "Central Reading with Investigator Assessment", "type": "CDASH Scenario"}, "priorVersion": {"href": "/mdr/cdashig/2-0/scenarios/EG.CentralReadingIA/fields/EGCLSIG", "title": "Clinical Significance", "type": "Data Collection Field"}, "rootItem": {"href": "/mdr/root/cdashig/scenarios/EG.CentralReadingIA/fields/EGCLSIG", "title": "Version-agnostic anchor element for scenario field EG.CentralReadingIA.EGCLSIG", "type": "Root Data Element"}, "sdtmigDatasetMappingTargets": [{"href": "/mdr/sdtmig/3-2/datasets/SUPPQUAL/variables/QVAL", "title": "Data Value", "type": "SDTM Dataset Variable"}], "self": {"href": "/mdr/cdashig/2-1/scenarios/EG.CentralReadingIA/fields/EGCLSIG", "title": "ECG Clinical Significance \n", "type": "Data Collection Field"}}, "completionInstructions": "Record whether ECG results were clinically significant.", "core": "HR", "definition": "An indication whether the ECG results were clinically significant.", "implementationNotes": "Could apply to specific measurements or to overall interpretation. In this scenario, clinical significance could be provided by the investigator.", "label": "ECG Clinical Significance \n", "mappingInstructions": "This does not map directly to an SDTMIG variable. This information could be submitted in a SUPPEG dataset as the value of SUPPEG.QVAL where SUPPEG.QNAM = \"EGCLSIG\" and SUPPEG.QLABEL=\"Clinically Significant\". Refer to the current SDTM and SDTMIG for instructions on placement of non-standard variables in SDTM domains.", "name": "EGCLSIG", "ordinal": "17", "prompt": "Clinically Significant", "questionText": "Was the ECG clinically significant?", "simpleDatatype": "Char"}, {"_links": {"parentDomain": {"href": "/mdr/cdashig/2-1/domains/EG", "title": "ECG", "type": "CDASH Domain"}, "parentProduct": {"href": "/mdr/cdashig/2-1", "title": "Clinical Data Acquisition Standards Harmonization Implementation Guide for Human Clinical Trials Version 2.1", "type": "Implementation Guide"}, "parentScenario": {"href": "/mdr/cdashig/2-1/scenarios/EG.CentralReadingIA", "title": "Central Reading with Investigator Assessment", "type": "CDASH Scenario"}, "priorVersion": {"href": "/mdr/cdashig/2-0/scenarios/EG.CentralReadingIA/fields/EGMHNO", "title": "Related Medical History Event ID", "type": "Data Collection Field"}, "rootItem": {"href": "/mdr/root/cdashig/scenarios/EG.CentralReadingIA/fields/EGMHNO", "title": "Version-agnostic anchor element for scenario field EG.CentralReadingIA.EGMHNO", "type": "Root Data Element"}, "self": {"href": "/mdr/cdashig/2-1/scenarios/EG.CentralReadingIA/fields/EGMHNO", "title": "Related Medical History Event ID", "type": "Data Collection Field"}}, "completionInstructions": "Identifier for the medical history event that was reported as a clinically significant ECG finding.", "core": "O", "definition": "Identifier for the medical history event that was reported as a clinically significant ECG finding.", "implementationNotes": "Intent is to establish a link between the clinically significant ECG finding and the medical history event that was reported. EGMHNO can be used in RELREC to identify a relationship between records in EG dataset and records in the MH dataset. See SDTMIG v3.2 Section 8.2 for information on RELREC.", "label": "Related Medical History Event ID", "mappingInstructions": "This does not map directly to an SDTMIG variable. For the SDTM submission datasets, may be used to create RELREC to link this record with a record in the Medical History domain.", "name": "EGMHNO", "ordinal": "18", "prompt": "Medical History Event Identifier", "questionText": "What was the identifier for the medical history event that was reported as a clinically significant ECG finding?", "simpleDatatype": "Char"}, {"_links": {"parentDomain": {"href": "/mdr/cdashig/2-1/domains/EG", "title": "ECG", "type": "CDASH Domain"}, "parentProduct": {"href": "/mdr/cdashig/2-1", "title": "Clinical Data Acquisition Standards Harmonization Implementation Guide for Human Clinical Trials Version 2.1", "type": "Implementation Guide"}, "parentScenario": {"href": "/mdr/cdashig/2-1/scenarios/EG.CentralReadingIA", "title": "Central Reading with Investigator Assessment", "type": "CDASH Scenario"}, "priorVersion": {"href": "/mdr/cdashig/2-0/scenarios/EG.CentralReadingIA/fields/EGAENO", "title": "Related Adverse Event ID", "type": "Data Collection Field"}, "rootItem": {"href": "/mdr/root/cdashig/scenarios/EG.CentralReadingIA/fields/EGAENO", "title": "Version-agnostic anchor element for scenario field EG.CentralReadingIA.EGAENO", "type": "Root Data Element"}, "self": {"href": "/mdr/cdashig/2-1/scenarios/EG.CentralReadingIA/fields/EGAENO", "title": "Related Adverse Event ID", "type": "Data Collection Field"}}, "completionInstructions": "Identifier for the adverse event that was the reported as a clinically significant ECG finding.", "core": "O", "definition": "Identifier for the adverse event that was reported as a clinically significant ECG finding.", "implementationNotes": "Intent is to establish a link between the clinically significant ECG finding and the AE that was reported. EGAENO can be used to identify a relationship between records in EG dataset and records in the AE dataset. See SDTMIG v3.2 Section 8.2 for information on RELREC.", "label": "Related Adverse Event ID", "mappingInstructions": "This does not map directly to an SDTMIG variable. For the SDTM submission datasets, may be used to create RELREC to link this record with a record in the Adverse Events domain.", "name": "EGAENO", "ordinal": "19", "prompt": "Adverse Event Identifier", "questionText": "What was the identifier for the adverse event(s) that was reported as a clinically significant ECG finding?", "simpleDatatype": "Char"}], "ordinal": "5", "scenario": "Central Reading with Investigator Assessment"}
