{"_links": {"parentClass": {"href": "/mdr/cdashig/2-1/classes/Findings", "title": "Findings", "type": "Class"}, "parentDomain": {"href": "/mdr/cdashig/2-1/domains/LB", "title": "Labs", "type": "CDASH Domain"}, "parentProduct": {"href": "/mdr/cdashig/2-1", "title": "Clinical Data Acquisition Standards Harmonization Implementation Guide for Human Clinical Trials Version 2.1", "type": "Implementation Guide"}, "priorVersion": {"href": "/mdr/cdashig/2-0/scenarios/LB.LocalProcessing", "title": "Scenario 2: Local Processing", "type": "CDASH Scenario"}, "self": {"href": "/mdr/cdashig/2-1/scenarios/LB.LocalProcessing", "title": "Local Processing", "type": "CDASH Scenario"}}, "domain": "Labs", "domainName": "LB", "fields": [{"_links": {"parentDomain": {"href": "/mdr/cdashig/2-1/domains/LB", "title": "Labs", "type": "CDASH Domain"}, "parentProduct": {"href": "/mdr/cdashig/2-1", "title": "Clinical Data Acquisition Standards Harmonization Implementation Guide for Human Clinical Trials Version 2.1", "type": "Implementation Guide"}, "parentScenario": {"href": "/mdr/cdashig/2-1/scenarios/LB.LocalProcessing", "title": "Local Processing", "type": "CDASH Scenario"}, "priorVersion": {"href": "/mdr/cdashig/2-0/scenarios/LB.LocalProcessing/fields/STUDYID", "title": "Study Identifier", "type": "Data Collection Field"}, "rootItem": {"href": "/mdr/root/cdashig/scenarios/LB.LocalProcessing/fields/STUDYID", "title": "Version-agnostic anchor element for scenario field LB.LocalProcessing.STUDYID", "type": "Root Data Element"}, "sdtmigDatasetMappingTargets": [{"href": "/mdr/sdtmig/3-2/datasets/LB/variables/STUDYID", "title": "Study Identifier", "type": "SDTM Dataset Variable"}], "self": {"href": "/mdr/cdashig/2-1/scenarios/LB.LocalProcessing/fields/STUDYID", "title": "Study Identifier", "type": "Data Collection Field"}}, "core": "HR", "definition": "A unique identifier for a study.", "implementationNotes": "While this field is not typically captured on a CRF, it should be displayed clearly on the CRF and/or the EDC system. This field can be included into the database or populated during SDTM-based dataset creation before submission.", "label": "Study Identifier", "mappingInstructions": "Maps directly to the SDTMIG variable listed in the column with the heading SDTMIG Target.", "name": "STUDYID", "ordinal": "1", "prompt": "[Protocol/Study]", "questionText": "What is the study identifier?", "simpleDatatype": "Char"}, {"_links": {"parentDomain": {"href": "/mdr/cdashig/2-1/domains/LB", "title": "Labs", "type": "CDASH Domain"}, "parentProduct": {"href": "/mdr/cdashig/2-1", "title": "Clinical Data Acquisition Standards Harmonization Implementation Guide for Human Clinical Trials Version 2.1", "type": "Implementation Guide"}, "parentScenario": {"href": "/mdr/cdashig/2-1/scenarios/LB.LocalProcessing", "title": "Local Processing", "type": "CDASH Scenario"}, "priorVersion": {"href": "/mdr/cdashig/2-0/scenarios/LB.LocalProcessing/fields/SITEID", "title": "Study Site Identifier", "type": "Data Collection Field"}, "rootItem": {"href": "/mdr/root/cdashig/scenarios/LB.LocalProcessing/fields/SITEID", "title": "Version-agnostic anchor element for scenario field LB.LocalProcessing.SITEID", "type": "Root Data Element"}, "sdtmigDatasetMappingTargets": [{"href": "/mdr/sdtmig/3-2/datasets/DM/variables/SITEID", "title": "Study Site Identifier", "type": "SDTM Dataset Variable"}], "self": {"href": "/mdr/cdashig/2-1/scenarios/LB.LocalProcessing/fields/SITEID", "title": "Study Site Identifier", "type": "Data Collection Field"}}, "core": "HR", "definition": "A unique identifier for a site within a study.", "implementationNotes": "Paper: This is typically preprinted in the header of each CRF page for single site studies. For studies with multiple sites, this field may be left blank so that the number can be recorded by the site, or it may be preprinted on the CRFs that are shipped to each site. EDC: This should be prepopulated.", "label": "Study Site Identifier", "mappingInstructions": "Maps directly to the SDTMIG variable listed in the column with the heading SDTMIG Target.", "name": "SITEID", "ordinal": "2", "prompt": "Site (Identifier)", "questionText": "What is the site identifier?", "simpleDatatype": "Char"}, {"_links": {"parentDomain": {"href": "/mdr/cdashig/2-1/domains/LB", "title": "Labs", "type": "CDASH Domain"}, "parentProduct": {"href": "/mdr/cdashig/2-1", "title": "Clinical Data Acquisition Standards Harmonization Implementation Guide for Human Clinical Trials Version 2.1", "type": "Implementation Guide"}, "parentScenario": {"href": "/mdr/cdashig/2-1/scenarios/LB.LocalProcessing", "title": "Local Processing", "type": "CDASH Scenario"}, "priorVersion": {"href": "/mdr/cdashig/2-0/scenarios/LB.LocalProcessing/fields/SUBJID", "title": "Subject Identifier for the Study", "type": "Data Collection Field"}, "rootItem": {"href": "/mdr/root/cdashig/scenarios/LB.LocalProcessing/fields/SUBJID", "title": "Version-agnostic anchor element for scenario field LB.LocalProcessing.SUBJID", "type": "Root Data Element"}, "sdtmigDatasetMappingTargets": [{"href": "/mdr/sdtmig/3-2/datasets/DM/variables/SUBJID", "title": "Subject Identifier for the Study", "type": "SDTM Dataset Variable"}], "self": {"href": "/mdr/cdashig/2-1/scenarios/LB.LocalProcessing/fields/SUBJID", "title": "Subject Identifier for the Study", "type": "Data Collection Field"}}, "completionInstructions": "Record the identifier for the subject.", "core": "HR", "definition": "A unique subject identifier within a site and a study.", "implementationNotes": "Paper: This is typically recorded in the header of each CRF page. EDC: The subject identifiers may be system generated. This CDASH variable is typically collected in all CDASH domains. However, this CDASH variable is populated only in the SDTMIG DM domain. For more information, refer to the SDTM Implementation Guide.", "label": "Subject Identifier for the Study", "mappingInstructions": "Maps directly to the SDTMIG variable listed in the column with the heading SDTMIG Target.", "name": "SUBJID", "ordinal": "3", "prompt": "[Subject/Participant] (Identifier)", "questionText": "What [is/was] the (study) [subject/participant] identifier?", "simpleDatatype": "Char"}, {"_links": {"parentDomain": {"href": "/mdr/cdashig/2-1/domains/LB", "title": "Labs", "type": "CDASH Domain"}, "parentProduct": {"href": "/mdr/cdashig/2-1", "title": "Clinical Data Acquisition Standards Harmonization Implementation Guide for Human Clinical Trials Version 2.1", "type": "Implementation Guide"}, "parentScenario": {"href": "/mdr/cdashig/2-1/scenarios/LB.LocalProcessing", "title": "Local Processing", "type": "CDASH Scenario"}, "priorVersion": {"href": "/mdr/cdashig/2-0/scenarios/LB.LocalProcessing/fields/VISIT", "title": "Visit Name", "type": "Data Collection Field"}, "rootItem": {"href": "/mdr/root/cdashig/scenarios/LB.LocalProcessing/fields/VISIT", "title": "Version-agnostic anchor element for scenario field LB.LocalProcessing.VISIT", "type": "Root Data Element"}, "sdtmigDatasetMappingTargets": [{"href": "/mdr/sdtmig/3-2/datasets/LB/variables/VISIT", "title": "Visit Name", "type": "SDTM Dataset Variable"}], "self": {"href": "/mdr/cdashig/2-1/scenarios/LB.LocalProcessing/fields/VISIT", "title": "Visit Name", "type": "Data Collection Field"}}, "core": "R/C", "definition": "The name of a clinical encounter that encompasses planned and unplanned trial interventions, procedures, and assessments that may be performed on a subject.", "implementationNotes": "This CDASH variable is typically collected in all CDASH domains. However, this CDASH variable is represented only in the SDTMIG DM domain. For more information, refer to SDTM Table 2.2.4.", "label": "Visit Name", "mappingInstructions": "Maps directly to the SDTMIG variable listed in the column with the heading SDTMIG Target.", "name": "VISIT", "ordinal": "4", "prompt": "[Visit]", "questionText": "What is the visit name?", "simpleDatatype": "Char"}, {"_links": {"parentDomain": {"href": "/mdr/cdashig/2-1/domains/LB", "title": "Labs", "type": "CDASH Domain"}, "parentProduct": {"href": "/mdr/cdashig/2-1", "title": "Clinical Data Acquisition Standards Harmonization Implementation Guide for Human Clinical Trials Version 2.1", "type": "Implementation Guide"}, "parentScenario": {"href": "/mdr/cdashig/2-1/scenarios/LB.LocalProcessing", "title": "Local Processing", "type": "CDASH Scenario"}, "priorVersion": {"href": "/mdr/cdashig/2-0/scenarios/LB.LocalProcessing/fields/VISDAT", "title": "Visit Date", "type": "Data Collection Field"}, "rootItem": {"href": "/mdr/root/cdashig/scenarios/LB.LocalProcessing/fields/VISDAT", "title": "Version-agnostic anchor element for scenario field LB.LocalProcessing.VISDAT", "type": "Root Data Element"}, "self": {"href": "/mdr/cdashig/2-1/scenarios/LB.LocalProcessing/fields/VISDAT", "title": "Visit Date", "type": "Data Collection Field"}}, "completionInstructions": "Record the [date/start date] of the visit using DD-MON-YYYY format.", "core": "R/C", "definition": "Date the clinical encounter occurred (or started).", "implementationNotes": "The date of the laboratory tests were collected can be determined from the Visit Date variable (VISDAT) and applying that date to all of the laboratory tests at that visit, or the collection date can be collected on the Laboratory CRF using the date (LBDAT) field.", "label": "Visit Date", "mappingInstructions": "This field is not an SDTM variable. The date of a measurement, test, observation can be determined from the date/time of visit (VISDAT/VISTIM) and then concatenating the CDASH VISDAT/VISTIM components and populating the SDTMIG variable LBDTC in ISO 8601 format.", "name": "VISDAT", "ordinal": "5", "prompt": "(Visit) Date", "questionText": "What [is/was] the date of the visit?", "simpleDatatype": "Char"}, {"_links": {"codelist": [{"href": "/mdr/root/ct/sdtmct/codelists/C66742", "title": "Version-agnostic anchor resource for codelist C66742", "type": "Root Value Domain"}], "parentDomain": {"href": "/mdr/cdashig/2-1/domains/LB", "title": "Labs", "type": "CDASH Domain"}, "parentProduct": {"href": "/mdr/cdashig/2-1", "title": "Clinical Data Acquisition Standards Harmonization Implementation Guide for Human Clinical Trials Version 2.1", "type": "Implementation Guide"}, "parentScenario": {"href": "/mdr/cdashig/2-1/scenarios/LB.LocalProcessing", "title": "Local Processing", "type": "CDASH Scenario"}, "priorVersion": {"href": "/mdr/cdashig/2-0/scenarios/LB.LocalProcessing/fields/LBPERF", "title": "Lab Performed", "type": "Data Collection Field"}, "rootItem": {"href": "/mdr/root/cdashig/scenarios/LB.LocalProcessing/fields/LBPERF", "title": "Version-agnostic anchor element for scenario field LB.LocalProcessing.LBPERF", "type": "Root Data Element"}, "sdtmigDatasetMappingTargets": [{"href": "/mdr/sdtmig/3-2/datasets/LB/variables/LBSTAT", "title": "Completion Status", "type": "SDTM Dataset Variable"}], "self": {"href": "/mdr/cdashig/2-1/scenarios/LB.LocalProcessing/fields/LBPERF", "title": "Lab Performed", "type": "Data Collection Field"}}, "completionInstructions": "Indicate whether or not lab specimen was collected or measurement performed.", "core": "HR", "definition": "An indication of whether or not a planned lab measurement, series of lab measurements, test, or observation was performed or specimens collected.", "implementationNotes": "This may be implemented for an entire panel, or on a specific test basis. General prompt question to be used as a data management tool to verify that missing results are confirmed missing.", "label": "Lab Performed", "mappingInstructions": "This does not map directly to an SDTMIG variable. May be used to derive a value into the SDTMIG variable LBSTAT. If the CDASH variable LBPERF = \"N\", the value of LBSTAT will be \"NOT DONE\". If LBPERF = \"Y\", LBSTAT should be null. A combination of SDTMIG variables (e.g., LBCAT and LBSCAT, LBTPT) is used to indicate that multiple tests were not done. In this situation, the SDTMIG variable LBTESTCD would be populated as LBALL and an appropriate test name (LBTEST) provided. See SDTMIG v3.2 Section 4.1.5.1.2.", "name": "LBPERF", "ordinal": "6", "prompt": "Sample Collected; Lab Performed", "questionText": "Was the sample collected?; Was the lab performed?", "simpleDatatype": "Char"}, {"_links": {"parentDomain": {"href": "/mdr/cdashig/2-1/domains/LB", "title": "Labs", "type": "CDASH Domain"}, "parentProduct": {"href": "/mdr/cdashig/2-1", "title": "Clinical Data Acquisition Standards Harmonization Implementation Guide for Human Clinical Trials Version 2.1", "type": "Implementation Guide"}, "parentScenario": {"href": "/mdr/cdashig/2-1/scenarios/LB.LocalProcessing", "title": "Local Processing", "type": "CDASH Scenario"}, "priorVersion": {"href": "/mdr/cdashig/2-0/scenarios/LB.LocalProcessing/fields/LBDAT", "title": "Date of Specimen Collection", "type": "Data Collection Field"}, "rootItem": {"href": "/mdr/root/cdashig/scenarios/LB.LocalProcessing/fields/LBDAT", "title": "Version-agnostic anchor element for scenario field LB.LocalProcessing.LBDAT", "type": "Root Data Element"}, "sdtmigDatasetMappingTargets": [{"href": "/mdr/sdtmig/3-2/datasets/LB/variables/LBDTC", "title": "Date/Time of Specimen Collection", "type": "SDTM Dataset Variable"}], "self": {"href": "/mdr/cdashig/2-1/scenarios/LB.LocalProcessing/fields/LBDAT", "title": "Specimen Collection Date", "type": "Data Collection Field"}}, "completionInstructions": "Record the date of specimen collection using this format (DD-MON-YYYY).", "core": "R/C", "definition": "The date of specimen collection, represented in an unambiguous date format (e.g., DD-MON-YYYY).", "implementationNotes": "A complete date is expected. The date of collection may be determined from the date of visit (VISDAT) and if so, a separate assessment date field is not required. The SDTMIG LBDTC variable contains either a date/time when a specimen is collected at a point in time or the start date/time, when a specimen is collected over time.", "label": "Specimen Collection Date", "mappingInstructions": "This does not map directly to an SDTMIG variable. For the SDTM submission dataset, concatenate all collected CDASH DATE and TIME components and populate the SDTMIG variable LBDTC in ISO 8601 format.", "name": "LBDAT", "ordinal": "7", "prompt": "Collection Date", "questionText": "What was the date of the lab specimen collection?", "simpleDatatype": "Char"}, {"_links": {"parentDomain": {"href": "/mdr/cdashig/2-1/domains/LB", "title": "Labs", "type": "CDASH Domain"}, "parentProduct": {"href": "/mdr/cdashig/2-1", "title": "Clinical Data Acquisition Standards Harmonization Implementation Guide for Human Clinical Trials Version 2.1", "type": "Implementation Guide"}, "parentScenario": {"href": "/mdr/cdashig/2-1/scenarios/LB.LocalProcessing", "title": "Local Processing", "type": "CDASH Scenario"}, "priorVersion": {"href": "/mdr/cdashig/2-0/scenarios/LB.LocalProcessing/fields/LBTIM", "title": "Time of Specimen Collection", "type": "Data Collection Field"}, "rootItem": {"href": "/mdr/root/cdashig/scenarios/LB.LocalProcessing/fields/LBTIM", "title": "Version-agnostic anchor element for scenario field LB.LocalProcessing.LBTIM", "type": "Root Data Element"}, "sdtmigDatasetMappingTargets": [{"href": "/mdr/sdtmig/3-2/datasets/LB/variables/LBDTC", "title": "Date/Time of Specimen Collection", "type": "SDTM Dataset Variable"}], "self": {"href": "/mdr/cdashig/2-1/scenarios/LB.LocalProcessing/fields/LBTIM", "title": "Specimen Collection Time", "type": "Data Collection Field"}}, "completionInstructions": "Record time of collection (as complete as possible).", "core": "R/C", "definition": "The time of specimen collection, represented in an unambiguous time format (e.g., hh:mm:ss).", "implementationNotes": "May be required when multiple assessments are done on one day or when the timing in relationship to study treatment is required for analysis or a specimen is collected over an extended time period.", "label": "Specimen Collection Time", "mappingInstructions": "This does not map directly to an SDTMIG variable. For the SDTM submission dataset, concatenate all collected CDASH DATE and TIME components and populate the SDTMIG variable LBDTC in ISO 8601 format.", "name": "LBTIM", "ordinal": "8", "prompt": "[Start] Collection Time", "questionText": "What was the (start) time of the lab specimen collection?", "simpleDatatype": "Char"}, {"_links": {"parentDomain": {"href": "/mdr/cdashig/2-1/domains/LB", "title": "Labs", "type": "CDASH Domain"}, "parentProduct": {"href": "/mdr/cdashig/2-1", "title": "Clinical Data Acquisition Standards Harmonization Implementation Guide for Human Clinical Trials Version 2.1", "type": "Implementation Guide"}, "parentScenario": {"href": "/mdr/cdashig/2-1/scenarios/LB.LocalProcessing", "title": "Local Processing", "type": "CDASH Scenario"}, "priorVersion": {"href": "/mdr/cdashig/2-0/scenarios/LB.LocalProcessing/fields/LBCAT", "title": "Category for Lab Test", "type": "Data Collection Field"}, "rootItem": {"href": "/mdr/root/cdashig/scenarios/LB.LocalProcessing/fields/LBCAT", "title": "Version-agnostic anchor element for scenario field LB.LocalProcessing.LBCAT", "type": "Root Data Element"}, "sdtmigDatasetMappingTargets": [{"href": "/mdr/sdtmig/3-2/datasets/LB/variables/LBCAT", "title": "Category for Lab Test", "type": "SDTM Dataset Variable"}], "self": {"href": "/mdr/cdashig/2-1/scenarios/LB.LocalProcessing/fields/LBCAT", "title": "Category for Lab Test", "type": "Data Collection Field"}}, "completionInstructions": "Record the lab test category, if not preprinted on the CRF.", "core": "R/C", "definition": "A grouping of topic-variable values based on user-defined characteristics.", "implementationNotes": "Sponsor-defined controlled terminology. This would most commonly be either a heading, or a preprinted category value on the CRF and not a question to which the site would provide an answer. If a question is asked, the response would typically be a sponsor-defined codelist. If the form is laid out as a grid, then words such as \"Category\" can be included as the column header. Laboratory tests have commonly recognized categories and subcategories that should be used whenever appropriate. LBCAT and or LBSCAT should be included if lab status (NOT DONE) is collected for each lab category (e.g., HEMATOLOGY, CHEMISTRY, URINALYSIS).", "label": "Category for Lab Test", "mappingInstructions": "Maps directly to the SDTMIG variable listed in the column with the heading SDTMIG Target.", "name": "LBCAT", "ordinal": "9", "prompt": "[Lab Panel Name]; NULL", "questionText": "What was the name of the lab panel?", "simpleDatatype": "Char"}, {"_links": {"parentDomain": {"href": "/mdr/cdashig/2-1/domains/LB", "title": "Labs", "type": "CDASH Domain"}, "parentProduct": {"href": "/mdr/cdashig/2-1", "title": "Clinical Data Acquisition Standards Harmonization Implementation Guide for Human Clinical Trials Version 2.1", "type": "Implementation Guide"}, "parentScenario": {"href": "/mdr/cdashig/2-1/scenarios/LB.LocalProcessing", "title": "Local Processing", "type": "CDASH Scenario"}, "priorVersion": {"href": "/mdr/cdashig/2-0/scenarios/LB.LocalProcessing/fields/LBSCAT", "title": "Subcategory for Lab Test", "type": "Data Collection Field"}, "rootItem": {"href": "/mdr/root/cdashig/scenarios/LB.LocalProcessing/fields/LBSCAT", "title": "Version-agnostic anchor element for scenario field LB.LocalProcessing.LBSCAT", "type": "Root Data Element"}, "sdtmigDatasetMappingTargets": [{"href": "/mdr/sdtmig/3-2/datasets/LB/variables/LBSCAT", "title": "Subcategory for Lab Test", "type": "SDTM Dataset Variable"}], "self": {"href": "/mdr/cdashig/2-1/scenarios/LB.LocalProcessing/fields/LBSCAT", "title": "Subcategory for Lab Test", "type": "Data Collection Field"}}, "completionInstructions": "Record the lab test subcategory, if not preprinted on the CRF.", "core": "R/C", "definition": "A sub-division of the LBCAT values based on user defined characteristics.", "implementationNotes": "Sponsor-defined controlled terminology. This would most commonly be either a heading, or a preprinted category value on the CRF and not a question to which the site would provide an answer. If a question is asked, the response would typically be a sponsor-defined codelist. If the form is laid out as a grid, then words such as \"Subcategory\" can be included as the column header. Laboratory tests have commonly recognized categories and subcategories that should be used whenever appropriate. LBSCAT can only be used if there is an LBCAT and it must be a subcategorization of LBCAT.", "label": "Subcategory for Lab Test", "mappingInstructions": "Maps directly to the SDTMIG variable listed in the column with the heading SDTMIG Target.", "name": "LBSCAT", "ordinal": "10", "prompt": "[Lab Sub-Panel Name]; NULL", "questionText": "What was the name of the lab sub-panel?", "simpleDatatype": "Char"}, {"_links": {"parentDomain": {"href": "/mdr/cdashig/2-1/domains/LB", "title": "Labs", "type": "CDASH Domain"}, "parentProduct": {"href": "/mdr/cdashig/2-1", "title": "Clinical Data Acquisition Standards Harmonization Implementation Guide for Human Clinical Trials Version 2.1", "type": "Implementation Guide"}, "parentScenario": {"href": "/mdr/cdashig/2-1/scenarios/LB.LocalProcessing", "title": "Local Processing", "type": "CDASH Scenario"}, "priorVersion": {"href": "/mdr/cdashig/2-0/scenarios/LB.LocalProcessing/fields/LBTPT", "title": "Lab Planned Time Point Name", "type": "Data Collection Field"}, "rootItem": {"href": "/mdr/root/cdashig/scenarios/LB.LocalProcessing/fields/LBTPT", "title": "Version-agnostic anchor element for scenario field LB.LocalProcessing.LBTPT", "type": "Root Data Element"}, "sdtmigDatasetMappingTargets": [{"href": "/mdr/sdtmig/3-2/datasets/LB/variables/LBTPT", "title": "Planned Time Point Name", "type": "SDTM Dataset Variable"}], "self": {"href": "/mdr/cdashig/2-1/scenarios/LB.LocalProcessing/fields/LBTPT", "title": "Lab Planned Time Point Name", "type": "Data Collection Field"}}, "completionInstructions": "Record the planned time point labels for the lab test, if not preprinted on the CRF.", "core": "R/C", "definition": "A text description of planned time point when measurements should be taken as defined in the protocol.", "implementationNotes": "Planned time points are needed to differentiate multiple sequential assessments. It is recommended that time points should be preprinted on the CRF rather than collected in a field that requires the site to enter text. If the form is laid out as a grid, then words such as \"Planned Time Point\" can be included as the column header.", "label": "Lab Planned Time Point Name", "mappingInstructions": "Maps directly to the SDTMIG variable listed in the column with the heading SDTMIG Target. See SDTMIG for additional information on representing time points. SDTMIG time point anchors LBTPTREF (text description) and LBRFTDTC (date/time) may be needed, as well as SDTMIG variables LBTPTNUM, LBELTM.", "name": "LBTPT", "ordinal": "11", "prompt": "[Planned Time Point Name]", "questionText": "What was the planned time point of the lab?", "simpleDatatype": "Char"}, {"_links": {"codelist": [{"href": "/mdr/root/ct/sdtmct/codelists/C66742", "title": "Version-agnostic anchor resource for codelist C66742", "type": "Root Value Domain"}], "parentDomain": {"href": "/mdr/cdashig/2-1/domains/LB", "title": "Labs", "type": "CDASH Domain"}, "parentProduct": {"href": "/mdr/cdashig/2-1", "title": "Clinical Data Acquisition Standards Harmonization Implementation Guide for Human Clinical Trials Version 2.1", "type": "Implementation Guide"}, "parentScenario": {"href": "/mdr/cdashig/2-1/scenarios/LB.LocalProcessing", "title": "Local Processing", "type": "CDASH Scenario"}, "priorVersion": {"href": "/mdr/cdashig/2-0/scenarios/LB.LocalProcessing/fields/LBFAST", "title": "Lab Fasting Status", "type": "Data Collection Field"}, "rootItem": {"href": "/mdr/root/cdashig/scenarios/LB.LocalProcessing/fields/LBFAST", "title": "Version-agnostic anchor element for scenario field LB.LocalProcessing.LBFAST", "type": "Root Data Element"}, "sdtmigDatasetMappingTargets": [{"href": "/mdr/sdtmig/3-2/datasets/LB/variables/LBFAST", "title": "Fasting Status", "type": "SDTM Dataset Variable"}], "self": {"href": "/mdr/cdashig/2-1/scenarios/LB.LocalProcessing/fields/LBFAST", "title": "Lab Fasting Status", "type": "Data Collection Field"}}, "completionInstructions": "Record whether the subject was fasting prior to the test being performed.", "core": "R/C", "definition": "An indication that the subject has abstained from food/water for the specified amount of time.", "implementationNotes": "Results may be affected by whether the subject was fasting. This may not be relevant for all tests.", "label": "Lab Fasting Status", "mappingInstructions": "Maps directly to the SDTMIG variable listed in the column with the heading SDTMIG Target.", "name": "LBFAST", "ordinal": "12", "prompt": "Fasting", "questionText": "Was the subject fasting?", "simpleDatatype": "Char"}, {"_links": {"codelist": [{"href": "/mdr/root/ct/sdtmct/codelists/C66742", "title": "Version-agnostic anchor resource for codelist C66742", "type": "Root Value Domain"}], "parentDomain": {"href": "/mdr/cdashig/2-1/domains/LB", "title": "Labs", "type": "CDASH Domain"}, "parentProduct": {"href": "/mdr/cdashig/2-1", "title": "Clinical Data Acquisition Standards Harmonization Implementation Guide for Human Clinical Trials Version 2.1", "type": "Implementation Guide"}, "parentScenario": {"href": "/mdr/cdashig/2-1/scenarios/LB.LocalProcessing", "title": "Local Processing", "type": "CDASH Scenario"}, "priorVersion": {"href": "/mdr/cdashig/2-0/scenarios/LB.LocalProcessing/fields/LBCOND", "title": "Lab Test Condition Met", "type": "Data Collection Field"}, "rootItem": {"href": "/mdr/root/cdashig/scenarios/LB.LocalProcessing/fields/LBCOND", "title": "Version-agnostic anchor element for scenario field LB.LocalProcessing.LBCOND", "type": "Root Data Element"}, "sdtmigDatasetMappingTargets": [{"href": "/mdr/sdtmig/3-2/datasets/SUPPQUAL/variables/QVAL", "title": "Data Value", "type": "SDTM Dataset Variable"}], "self": {"href": "/mdr/cdashig/2-1/scenarios/LB.LocalProcessing/fields/LBCOND", "title": "Lab Test Condition Met", "type": "Data Collection Field"}}, "completionInstructions": "Record whether protocol defined testing conditions were met.", "core": "R/C", "definition": "Indication whether the testing condition defined in the protocol were met (e.g., Low fat diet).", "implementationNotes": "This information is collected when the laboratory test results may be affected by whether conditions for testing were properly met. The specific testing conditions required should be preprinted on the CRF (e.g., \"Did subject meet diet requirements?\"). This may not be relevant for all tests.", "label": "Lab Test Condition Met", "mappingInstructions": "This does not map directly to an SDTMIG variable. This information could be submitted in a SUPPLB dataset as the value of SUPPLB.QVAL where SUPPLB.QNAM = \"LBCOND\" and SUPPLB.LABEL=\"Test Condition Met\". Refer to the current SDTM and SDTMIG for instructions on placement of non-standard variables in SDTM domains.", "name": "LBCOND", "ordinal": "13", "prompt": "Test Condition Met", "questionText": "Were the protocol-defined testing conditions met?", "simpleDatatype": "Char"}, {"_links": {"codelist": [{"href": "/mdr/root/ct/sdtmct/codelists/C78733", "title": "Version-agnostic anchor resource for codelist C78733", "type": "Root Value Domain"}], "parentDomain": {"href": "/mdr/cdashig/2-1/domains/LB", "title": "Labs", "type": "CDASH Domain"}, "parentProduct": {"href": "/mdr/cdashig/2-1", "title": "Clinical Data Acquisition Standards Harmonization Implementation Guide for Human Clinical Trials Version 2.1", "type": "Implementation Guide"}, "parentScenario": {"href": "/mdr/cdashig/2-1/scenarios/LB.LocalProcessing", "title": "Local Processing", "type": "CDASH Scenario"}, "priorVersion": {"href": "/mdr/cdashig/2-0/scenarios/LB.LocalProcessing/fields/LBSPCCND", "title": "Lab Specimen Condition", "type": "Data Collection Field"}, "rootItem": {"href": "/mdr/root/cdashig/scenarios/LB.LocalProcessing/fields/LBSPCCND", "title": "Version-agnostic anchor element for scenario field LB.LocalProcessing.LBSPCCND", "type": "Root Data Element"}, "sdtmigDatasetMappingTargets": [{"href": "/mdr/sdtmig/3-2/datasets/LB/variables/LBSPCCND", "title": "Specimen Condition", "type": "SDTM Dataset Variable"}], "self": {"href": "/mdr/cdashig/2-1/scenarios/LB.LocalProcessing/fields/LBSPCCND", "title": "Lab Specimen Condition", "type": "Data Collection Field"}}, "completionInstructions": "Record condition of specimen.", "core": "O", "definition": "Description of the condition of the specimen.", "implementationNotes": "May be collected using free or standardized text. Results may be affected by whether conditions for specimen were properly met. When local processing is used, sponsors may not routinely collect specimen condition.", "label": "Lab Specimen Condition", "mappingInstructions": "Maps directly to the SDTMIG variable listed in the column with the heading SDTMIG Target.", "name": "LBSPCCND", "ordinal": "14", "prompt": "Specimen Condition", "questionText": "What was the condition of the specimen?", "simpleDatatype": "Char"}, {"_links": {"codelist": [{"href": "/mdr/root/ct/sdtmct/codelists/C67154", "title": "Version-agnostic anchor resource for codelist C67154", "type": "Root Value Domain"}], "parentDomain": {"href": "/mdr/cdashig/2-1/domains/LB", "title": "Labs", "type": "CDASH Domain"}, "parentProduct": {"href": "/mdr/cdashig/2-1", "title": "Clinical Data Acquisition Standards Harmonization Implementation Guide for Human Clinical Trials Version 2.1", "type": "Implementation Guide"}, "parentScenario": {"href": "/mdr/cdashig/2-1/scenarios/LB.LocalProcessing", "title": "Local Processing", "type": "CDASH Scenario"}, "priorVersion": {"href": "/mdr/cdashig/2-0/scenarios/LB.LocalProcessing/fields/LBTEST", "title": "Lab Test or Examination Name", "type": "Data Collection Field"}, "rootItem": {"href": "/mdr/root/cdashig/scenarios/LB.LocalProcessing/fields/LBTEST", "title": "Version-agnostic anchor element for scenario field LB.LocalProcessing.LBTEST", "type": "Root Data Element"}, "sdtmigDatasetMappingTargets": [{"href": "/mdr/sdtmig/3-2/datasets/LB/variables/LBTESTCD", "title": "Lab Test or Examination Short Name", "type": "SDTM Dataset Variable"}, {"href": "/mdr/sdtmig/3-2/datasets/LB/variables/LBTEST", "title": "Lab Test or Examination Name", "type": "SDTM Dataset Variable"}], "self": {"href": "/mdr/cdashig/2-1/scenarios/LB.LocalProcessing/fields/LBTEST", "title": "Lab Test or Examination Name", "type": "Data Collection Field"}}, "completionInstructions": "Record the name of the Lab measurement or finding, if not preprinted on the CRF. If collected on the CRF, the sponsor may provide additional instructions to ensure the data is entered as intended.", "core": "HR", "definition": "Descriptive name of the lab test or examination used to obtain the measurement or finding. Any test normally performed by a clinical laboratory is considered a lab test.", "implementationNotes": "Required to identify which test the result is for. It is recommended that the test names be preprinted on the CRF rather than collected in a field that requires the site to enter text. If the form is laid out as a grid, then words such as \"Test\" can be included as the column header.", "label": "Lab Test or Examination Name", "mappingInstructions": "Maps directly to the SDTMIG variable listed in the column with the heading SDTMIG Target. The SDTMIG variable LBTESTCD may be determined from the value collected in LBTEST. The SDTMIG variables LBTESTCD and LBTEST are required in the SDTM submission datasets. Use appropriate CDISC Controlled Terminology for the test and test code.", "name": "LBTEST", "ordinal": "15", "prompt": "[Laboratory Test Name]", "questionText": "What was the lab test name?", "simpleDatatype": "Char"}, {"_links": {"parentDomain": {"href": "/mdr/cdashig/2-1/domains/LB", "title": "Labs", "type": "CDASH Domain"}, "parentProduct": {"href": "/mdr/cdashig/2-1", "title": "Clinical Data Acquisition Standards Harmonization Implementation Guide for Human Clinical Trials Version 2.1", "type": "Implementation Guide"}, "parentScenario": {"href": "/mdr/cdashig/2-1/scenarios/LB.LocalProcessing", "title": "Local Processing", "type": "CDASH Scenario"}, "priorVersion": {"href": "/mdr/cdashig/2-0/scenarios/LB.LocalProcessing/fields/LBORRES", "title": "Lab Result", "type": "Data Collection Field"}, "rootItem": {"href": "/mdr/root/cdashig/scenarios/LB.LocalProcessing/fields/LBORRES", "title": "Version-agnostic anchor element for scenario field LB.LocalProcessing.LBORRES", "type": "Root Data Element"}, "sdtmigDatasetMappingTargets": [{"href": "/mdr/sdtmig/3-2/datasets/LB/variables/LBORRES", "title": "Result or Finding in Original Units", "type": "SDTM Dataset Variable"}], "self": {"href": "/mdr/cdashig/2-1/scenarios/LB.LocalProcessing/fields/LBORRES", "title": "Lab Result or Finding in Original Units", "type": "Data Collection Field"}}, "completionInstructions": "Record laboratory test result.", "core": "HR", "definition": "Result of the measurement or finding as originally received or collected.", "implementationNotes": "Both quantitative results and interpretive findings or summaries may be recorded here.", "label": "Lab Result or Finding in Original Units", "mappingInstructions": "Maps directly to the SDTMIG variable listed in the column with the heading SDTMIG Target.", "name": "LBORRES", "ordinal": "16", "prompt": "(Result)", "questionText": "What was the result of the lab test?", "simpleDatatype": "Char"}, {"_links": {"codelist": [{"href": "/mdr/root/ct/sdtmct/codelists/C85492", "title": "Version-agnostic anchor resource for codelist C85492", "type": "Root Value Domain"}], "parentDomain": {"href": "/mdr/cdashig/2-1/domains/LB", "title": "Labs", "type": "CDASH Domain"}, "parentProduct": {"href": "/mdr/cdashig/2-1", "title": "Clinical Data Acquisition Standards Harmonization Implementation Guide for Human Clinical Trials Version 2.1", "type": "Implementation Guide"}, "parentScenario": {"href": "/mdr/cdashig/2-1/scenarios/LB.LocalProcessing", "title": "Local Processing", "type": "CDASH Scenario"}, "priorVersion": {"href": "/mdr/cdashig/2-0/scenarios/LB.LocalProcessing/fields/LBMETHOD", "title": "Lab Method", "type": "Data Collection Field"}, "rootItem": {"href": "/mdr/root/cdashig/scenarios/LB.LocalProcessing/fields/LBMETHOD", "title": "Version-agnostic anchor element for scenario field LB.LocalProcessing.LBMETHOD", "type": "Root Data Element"}, "sdtmigDatasetMappingTargets": [{"href": "/mdr/sdtmig/3-2/datasets/LB/variables/LBMETHOD", "title": "Method of Test or Examination", "type": "SDTM Dataset Variable"}], "self": {"href": "/mdr/cdashig/2-1/scenarios/LB.LocalProcessing/fields/LBMETHOD", "title": "Lab Method of Test or Examination", "type": "Data Collection Field"}}, "completionInstructions": "Record the method of Test or Examination.", "core": "O", "definition": "Method of the test or examination.", "implementationNotes": "This information may be collected when more than one method is possible, and collecting the method used is necessary.", "label": "Lab Method of Test or Examination", "mappingInstructions": "Maps directly to the SDTMIG variable listed in the column with the heading SDTMIG Target.", "name": "LBMETHOD", "ordinal": "17", "prompt": "Method of [Test/Examination]", "questionText": "What was the method used for the lab test or examination?", "simpleDatatype": "Char"}, {"_links": {"codelist": [{"href": "/mdr/root/ct/sdtmct/codelists/C71620", "title": "Version-agnostic anchor resource for codelist C71620", "type": "Root Value Domain"}], "parentDomain": {"href": "/mdr/cdashig/2-1/domains/LB", "title": "Labs", "type": "CDASH Domain"}, "parentProduct": {"href": "/mdr/cdashig/2-1", "title": "Clinical Data Acquisition Standards Harmonization Implementation Guide for Human Clinical Trials Version 2.1", "type": "Implementation Guide"}, "parentScenario": {"href": "/mdr/cdashig/2-1/scenarios/LB.LocalProcessing", "title": "Local Processing", "type": "CDASH Scenario"}, "priorVersion": {"href": "/mdr/cdashig/2-0/scenarios/LB.LocalProcessing/fields/LBORRESU", "title": "Lab Result Unit", "type": "Data Collection Field"}, "rootItem": {"href": "/mdr/root/cdashig/scenarios/LB.LocalProcessing/fields/LBORRESU", "title": "Version-agnostic anchor element for scenario field LB.LocalProcessing.LBORRESU", "type": "Root Data Element"}, "sdtmigDatasetMappingTargets": [{"href": "/mdr/sdtmig/3-2/datasets/LB/variables/LBORRESU", "title": "Original Units", "type": "SDTM Dataset Variable"}], "self": {"href": "/mdr/cdashig/2-1/scenarios/LB.LocalProcessing/fields/LBORRESU", "title": "Lab Original Units", "type": "Data Collection Field"}}, "completionInstructions": "Record or select the original unit in which these data were collected, if not preprinted on CRF.", "core": "R/C", "definition": "The unit of the result as originally received or collected.", "implementationNotes": "Should be preprinted on the CRF with the associated test when possible, rather than collected in a field that requires the site to enter text. Should be included if applicable and not available elsewhere. For some lab tests the units may not be applicable (e.g., urine color).", "label": "Lab Original Units", "mappingInstructions": "Maps directly to the SDTMIG variable listed in the column with the heading SDTMIG Target.", "name": "LBORRESU", "ordinal": "18", "prompt": "Unit", "questionText": "What was the unit of the lab result?", "simpleDatatype": "Char"}, {"_links": {"parentDomain": {"href": "/mdr/cdashig/2-1/domains/LB", "title": "Labs", "type": "CDASH Domain"}, "parentProduct": {"href": "/mdr/cdashig/2-1", "title": "Clinical Data Acquisition Standards Harmonization Implementation Guide for Human Clinical Trials Version 2.1", "type": "Implementation Guide"}, "parentScenario": {"href": "/mdr/cdashig/2-1/scenarios/LB.LocalProcessing", "title": "Local Processing", "type": "CDASH Scenario"}, "rootItem": {"href": "/mdr/root/cdashig/scenarios/LB.LocalProcessing/fields/LBCRESU", "title": "Version-agnostic anchor element for scenario field LB.LocalProcessing.LBCRESU", "type": "Root Data Element"}, "sdtmigDatasetMappingTargets": [{"href": "/mdr/sdtmig/3-2/datasets/SUPPQUAL/variables/QVAL", "title": "Data Value", "type": "SDTM Dataset Variable"}], "self": {"href": "/mdr/cdashig/2-1/scenarios/LB.LocalProcessing/fields/LBCRESU", "title": "Lab Collected Non-Standard Unit", "type": "Data Collection Field"}}, "completionInstructions": "Record or select the original unit in which these data were collected, if not preprinted on CRF.", "core": "O", "definition": "The unit of the result as originally received if it were collected as a non-standard unit.", "implementationNotes": "The collected, non-standard unit(s) should be reported as an equivalent standard unit in LBORRESU.", "label": "Lab Collected Non-Standard Unit", "mappingInstructions": "This does not map directly to an SDTMIG variable. The collected, non-standard unit(s) may be submitted in a supplemental qualifier dataset.", "name": "LBCRESU", "ordinal": "19", "prompt": "Unit", "questionText": "What was the unit of the lab result?", "simpleDatatype": "Char"}, {"_links": {"parentDomain": {"href": "/mdr/cdashig/2-1/domains/LB", "title": "Labs", "type": "CDASH Domain"}, "parentProduct": {"href": "/mdr/cdashig/2-1", "title": "Clinical Data Acquisition Standards Harmonization Implementation Guide for Human Clinical Trials Version 2.1", "type": "Implementation Guide"}, "parentScenario": {"href": "/mdr/cdashig/2-1/scenarios/LB.LocalProcessing", "title": "Local Processing", "type": "CDASH Scenario"}, "priorVersion": {"href": "/mdr/cdashig/2-0/scenarios/LB.LocalProcessing/fields/LBTOXGR", "title": "Lab Standard Toxicity Grade", "type": "Data Collection Field"}, "rootItem": {"href": "/mdr/root/cdashig/scenarios/LB.LocalProcessing/fields/LBTOXGR", "title": "Version-agnostic anchor element for scenario field LB.LocalProcessing.LBTOXGR", "type": "Root Data Element"}, "sdtmigDatasetMappingTargets": [{"href": "/mdr/sdtmig/3-2/datasets/LB/variables/LBTOXGR", "title": "Standard Toxicity Grade", "type": "SDTM Dataset Variable"}], "self": {"href": "/mdr/cdashig/2-1/scenarios/LB.LocalProcessing/fields/LBTOXGR", "title": "Lab Standard Toxicity Grade", "type": "Data Collection Field"}}, "completionInstructions": "Record the Toxicity Grade.", "core": "O", "definition": "The toxicity grade using a standard toxicity scale (e.g., NCI CTCAE).", "implementationNotes": "This is commonly used in oncology trials but sponsors may not collect these toxicity grades on CRFs. Terminology codes lists (TOXGRV3) and (TOXGRV4) are available for use.", "label": "Lab Standard Toxicity Grade", "mappingInstructions": "Maps directly to the SDTMIG variable listed in the column with the heading SDTMIG Target. The sponsor is expected to provide the toxicity scale name and version used to map the terms utilizing the Define-XML external code list attributes.", "name": "LBTOXGR", "ordinal": "20", "prompt": "Toxicity Grade", "questionText": "What is the Toxicity Grade?", "simpleDatatype": "Char"}, {"_links": {"parentDomain": {"href": "/mdr/cdashig/2-1/domains/LB", "title": "Labs", "type": "CDASH Domain"}, "parentProduct": {"href": "/mdr/cdashig/2-1", "title": "Clinical Data Acquisition Standards Harmonization Implementation Guide for Human Clinical Trials Version 2.1", "type": "Implementation Guide"}, "parentScenario": {"href": "/mdr/cdashig/2-1/scenarios/LB.LocalProcessing", "title": "Local Processing", "type": "CDASH Scenario"}, "priorVersion": {"href": "/mdr/cdashig/2-0/scenarios/LB.LocalProcessing/fields/LBTOX", "title": "Lab Toxicity", "type": "Data Collection Field"}, "rootItem": {"href": "/mdr/root/cdashig/scenarios/LB.LocalProcessing/fields/LBTOX", "title": "Version-agnostic anchor element for scenario field LB.LocalProcessing.LBTOX", "type": "Root Data Element"}, "sdtmigDatasetMappingTargets": [{"href": "/mdr/sdtmig/3-2/datasets/LB/variables/LBTOX", "title": "Toxicity", "type": "SDTM Dataset Variable"}], "self": {"href": "/mdr/cdashig/2-1/scenarios/LB.LocalProcessing/fields/LBTOX", "title": "Lab Toxicity", "type": "Data Collection Field"}}, "completionInstructions": "Record the description of the toxicity.", "core": "O", "definition": "A description of toxicity quantified by LBTOXGR (e.g., NCI CTCAE Short Name).", "implementationNotes": "This would typically be the text description quantified by LBTOXGR (e.g., HYPERCALCEMIA, HYPOCALCEMIA)", "label": "Lab Toxicity", "mappingInstructions": "Maps directly to the SDTMIG variable listed in the column with the heading SDTMIG Target. The sponsor is expected to provide the toxicity scale name and version used to map the terms utilizing the Define-XML external code list attributes.", "name": "LBTOX", "ordinal": "21", "prompt": "Toxicity", "questionText": "What is the description of the toxicity?", "simpleDatatype": "Char"}, {"_links": {"parentDomain": {"href": "/mdr/cdashig/2-1/domains/LB", "title": "Labs", "type": "CDASH Domain"}, "parentProduct": {"href": "/mdr/cdashig/2-1", "title": "Clinical Data Acquisition Standards Harmonization Implementation Guide for Human Clinical Trials Version 2.1", "type": "Implementation Guide"}, "parentScenario": {"href": "/mdr/cdashig/2-1/scenarios/LB.LocalProcessing", "title": "Local Processing", "type": "CDASH Scenario"}, "priorVersion": {"href": "/mdr/cdashig/2-0/scenarios/LB.LocalProcessing/fields/LBORNRLO", "title": "Lab Normal Range Lower Limit- Original Unit", "type": "Data Collection Field"}, "rootItem": {"href": "/mdr/root/cdashig/scenarios/LB.LocalProcessing/fields/LBORNRLO", "title": "Version-agnostic anchor element for scenario field LB.LocalProcessing.LBORNRLO", "type": "Root Data Element"}, "sdtmigDatasetMappingTargets": [{"href": "/mdr/sdtmig/3-2/datasets/LB/variables/LBORNRLO", "title": "Reference Range Lower Limit in Orig Unit", "type": "SDTM Dataset Variable"}], "self": {"href": "/mdr/cdashig/2-1/scenarios/LB.LocalProcessing/fields/LBORNRLO", "title": "Lab Ref Range Lower Limit in Orig Unit", "type": "Data Collection Field"}}, "completionInstructions": "Record the lower limit of the reference range of the lab test.", "core": "R/C", "definition": "The lower end of normal range or reference range for continuous results stored in LBORRES.", "implementationNotes": "LBORNRLO and LBORNRHI should be populated only for continuous results; LBSTNRC should be populated only for non-continuous results. These data may be obtained from the lab or the electronic equipment. These data could be determined from a site or lab specific set of normal ranges stored in a look up table. See the SDTMIG for details on mapping and selecting the proper variable name.", "label": "Lab Ref Range Lower Limit in Orig Unit", "mappingInstructions": "Maps directly to the SDTMIG variable listed in the column with the heading SDTMIG Target.", "name": "LBORNRLO", "ordinal": "22", "prompt": "Normal Range Lower Limit", "questionText": "What was the lower limit of the reference range for this lab test?", "simpleDatatype": "Char"}, {"_links": {"parentDomain": {"href": "/mdr/cdashig/2-1/domains/LB", "title": "Labs", "type": "CDASH Domain"}, "parentProduct": {"href": "/mdr/cdashig/2-1", "title": "Clinical Data Acquisition Standards Harmonization Implementation Guide for Human Clinical Trials Version 2.1", "type": "Implementation Guide"}, "parentScenario": {"href": "/mdr/cdashig/2-1/scenarios/LB.LocalProcessing", "title": "Local Processing", "type": "CDASH Scenario"}, "priorVersion": {"href": "/mdr/cdashig/2-0/scenarios/LB.LocalProcessing/fields/LBORNRHI", "title": "Lab Normal Range Upper Limit- Original Unit", "type": "Data Collection Field"}, "rootItem": {"href": "/mdr/root/cdashig/scenarios/LB.LocalProcessing/fields/LBORNRHI", "title": "Version-agnostic anchor element for scenario field LB.LocalProcessing.LBORNRHI", "type": "Root Data Element"}, "sdtmigDatasetMappingTargets": [{"href": "/mdr/sdtmig/3-2/datasets/LB/variables/LBORNRHI", "title": "Reference Range Upper Limit in Orig Unit", "type": "SDTM Dataset Variable"}], "self": {"href": "/mdr/cdashig/2-1/scenarios/LB.LocalProcessing/fields/LBORNRHI", "title": "Lab Ref Range Upper Limit in Orig Unit", "type": "Data Collection Field"}}, "completionInstructions": "Record the upper limit of the reference range of the lab test.", "core": "R/C", "definition": "The upper end of normal range or reference range for continuous results stored in LBORRES.", "implementationNotes": "LBORNRLO and LBORNRHI should be populated only for continuous results; LBSTNRC should be populated only for non-continuous results. These data may be obtained from the lab or the electronic equipment. These data could be determined from a site or lab specific set of normal ranges stored in a look up table. See the SDTMIG for details on mapping and selecting the proper variable name.", "label": "Lab Ref Range Upper Limit in Orig Unit", "mappingInstructions": "Maps directly to the SDTMIG variable listed in the column with the heading SDTMIG Target.", "name": "LBORNRHI", "ordinal": "23", "prompt": "Normal Range Upper Limit", "questionText": "What was the high limit of the reference range for this lab test?", "simpleDatatype": "Char"}, {"_links": {"codelist": [{"href": "/mdr/root/ct/sdtmct/codelists/C78736", "title": "Version-agnostic anchor resource for codelist C78736", "type": "Root Value Domain"}], "parentDomain": {"href": "/mdr/cdashig/2-1/domains/LB", "title": "Labs", "type": "CDASH Domain"}, "parentProduct": {"href": "/mdr/cdashig/2-1", "title": "Clinical Data Acquisition Standards Harmonization Implementation Guide for Human Clinical Trials Version 2.1", "type": "Implementation Guide"}, "parentScenario": {"href": "/mdr/cdashig/2-1/scenarios/LB.LocalProcessing", "title": "Local Processing", "type": "CDASH Scenario"}, "priorVersion": {"href": "/mdr/cdashig/2-0/scenarios/LB.LocalProcessing/fields/LBNRIND", "title": "Lab Reference Range Indicator", "type": "Data Collection Field"}, "rootItem": {"href": "/mdr/root/cdashig/scenarios/LB.LocalProcessing/fields/LBNRIND", "title": "Version-agnostic anchor element for scenario field LB.LocalProcessing.LBNRIND", "type": "Root Data Element"}, "sdtmigDatasetMappingTargets": [{"href": "/mdr/sdtmig/3-2/datasets/LB/variables/LBNRIND", "title": "Reference Range Indicator", "type": "SDTM Dataset Variable"}], "self": {"href": "/mdr/cdashig/2-1/scenarios/LB.LocalProcessing/fields/LBNRIND", "title": "Lab Reference Range Indicator", "type": "Data Collection Field"}}, "completionInstructions": "Record where the lab result fell with respect to the reference range (e.g. HIGH, LOW, ABNORMAL).", "core": "R/C", "definition": "An indication or description about how the value compares to the normal range or reference range.", "implementationNotes": "Reference ranges may be defined by LBORNRLO and LBORNRHI or other objective criteria. Typically for local processing \"Reference Range Indicator\" may be derived or determined programmatically and is not collected on the CRF. Should not be used to indicate clinical significance.", "label": "Lab Reference Range Indicator", "mappingInstructions": "Maps directly to the SDTMIG variable listed in the column with the heading SDTMIG Target.", "name": "LBNRIND", "ordinal": "24", "prompt": "Comparison to [Reference/Expected/Normal] Range", "questionText": "How [did/do] the reported values compare within the [reference/normal/expected] range?", "simpleDatatype": "Char"}, {"_links": {"codelist": [{"href": "/mdr/root/ct/sdtmct/codelists/C66742", "title": "Version-agnostic anchor resource for codelist C66742", "type": "Root Value Domain"}], "parentDomain": {"href": "/mdr/cdashig/2-1/domains/LB", "title": "Labs", "type": "CDASH Domain"}, "parentProduct": {"href": "/mdr/cdashig/2-1", "title": "Clinical Data Acquisition Standards Harmonization Implementation Guide for Human Clinical Trials Version 2.1", "type": "Implementation Guide"}, "parentScenario": {"href": "/mdr/cdashig/2-1/scenarios/LB.LocalProcessing", "title": "Local Processing", "type": "CDASH Scenario"}, "priorVersion": {"href": "/mdr/cdashig/2-0/scenarios/LB.LocalProcessing/fields/LBCLSIG", "title": "Clinical Significance", "type": "Data Collection Field"}, "rootItem": {"href": "/mdr/root/cdashig/scenarios/LB.LocalProcessing/fields/LBCLSIG", "title": "Version-agnostic anchor element for scenario field LB.LocalProcessing.LBCLSIG", "type": "Root Data Element"}, "sdtmigDatasetMappingTargets": [{"href": "/mdr/sdtmig/3-2/datasets/SUPPQUAL/variables/QVAL", "title": "Data Value", "type": "SDTM Dataset Variable"}], "self": {"href": "/mdr/cdashig/2-1/scenarios/LB.LocalProcessing/fields/LBCLSIG", "title": "Lab Clinical Significance", "type": "Data Collection Field"}}, "completionInstructions": "Record whether lab results were clinically significant.", "core": "O", "definition": "An indication whether lab test results were clinically significant.", "implementationNotes": "May be included if required by the protocol.", "label": "Lab Clinical Significance", "mappingInstructions": "This does not map directly to an SDTMIG variable. This information could be submitted in a SUPPLB dataset as the value of SUPPLB.QVAL where SUPPLB.QNAM= \"LBCLSIG\" and SUPPLB.QLABEL=\"Clinically Significant\". Refer to the current SDTM and SDTMIG for instructions on placement of non-standard variables in SDTM domains.", "name": "LBCLSIG", "ordinal": "25", "prompt": "Clinically Significant", "questionText": "Was this result clinically significant?", "simpleDatatype": "Char"}, {"_links": {"parentDomain": {"href": "/mdr/cdashig/2-1/domains/LB", "title": "Labs", "type": "CDASH Domain"}, "parentProduct": {"href": "/mdr/cdashig/2-1", "title": "Clinical Data Acquisition Standards Harmonization Implementation Guide for Human Clinical Trials Version 2.1", "type": "Implementation Guide"}, "parentScenario": {"href": "/mdr/cdashig/2-1/scenarios/LB.LocalProcessing", "title": "Local Processing", "type": "CDASH Scenario"}, "priorVersion": {"href": "/mdr/cdashig/2-0/scenarios/LB.LocalProcessing/fields/LBNAM", "title": "Vendor Name", "type": "Data Collection Field"}, "rootItem": {"href": "/mdr/root/cdashig/scenarios/LB.LocalProcessing/fields/LBNAM", "title": "Version-agnostic anchor element for scenario field LB.LocalProcessing.LBNAM", "type": "Root Data Element"}, "sdtmigDatasetMappingTargets": [{"href": "/mdr/sdtmig/3-2/datasets/LB/variables/LBNAM", "title": "Vendor Name", "type": "SDTM Dataset Variable"}], "self": {"href": "/mdr/cdashig/2-1/scenarios/LB.LocalProcessing/fields/LBNAM", "title": "Vendor Name", "type": "Data Collection Field"}}, "completionInstructions": "Record the laboratory name.", "core": "R/C", "definition": "The name or identifier of the vendor (e.g., laboratory) that provided the test results.", "implementationNotes": "Recommended to collect on the CRF if lab names was not collected at the site/study level or if multiple labs are used by a site.", "label": "Vendor Name", "mappingInstructions": "Maps directly to the SDTMIG variable listed in the column with the heading SDTMIG Target.", "name": "LBNAM", "ordinal": "26", "prompt": "Laboratory Name", "questionText": "What was the name of the laboratory used?", "simpleDatatype": "Char"}], "ordinal": "8", "scenario": "Local Processing"}
