{"_links": {"parentClass": {"href": "/mdr/cdashig/2-1/classes/Findings", "title": "Findings", "type": "Class"}, "parentDomain": {"href": "/mdr/cdashig/2-1/domains/MI", "title": "Microscopic Findings", "type": "CDASH Domain"}, "parentProduct": {"href": "/mdr/cdashig/2-1", "title": "Clinical Data Acquisition Standards Harmonization Implementation Guide for Human Clinical Trials Version 2.1", "type": "Implementation Guide"}, "priorVersion": {"href": "/mdr/cdashig/2-0/scenarios/MI.LocalProcessing", "title": "Scenario 2: Local Processing", "type": "CDASH Scenario"}, "self": {"href": "/mdr/cdashig/2-1/scenarios/MI.LocalProcessing", "title": "Local Processing", "type": "CDASH Scenario"}}, "domain": "Microscopic Findings", "domainName": "MI", "fields": [{"_links": {"parentDomain": {"href": "/mdr/cdashig/2-1/domains/MI", "title": "Microscopic Findings", "type": "CDASH Domain"}, "parentProduct": {"href": "/mdr/cdashig/2-1", "title": "Clinical Data Acquisition Standards Harmonization Implementation Guide for Human Clinical Trials Version 2.1", "type": "Implementation Guide"}, "parentScenario": {"href": "/mdr/cdashig/2-1/scenarios/MI.LocalProcessing", "title": "Local Processing", "type": "CDASH Scenario"}, "priorVersion": {"href": "/mdr/cdashig/2-0/scenarios/MI.LocalProcessing/fields/STUDYID", "title": "Study Identifier", "type": "Data Collection Field"}, "rootItem": {"href": "/mdr/root/cdashig/scenarios/MI.LocalProcessing/fields/STUDYID", "title": "Version-agnostic anchor element for scenario field MI.LocalProcessing.STUDYID", "type": "Root Data Element"}, "sdtmigDatasetMappingTargets": [{"href": "/mdr/sdtmig/3-2/datasets/MI/variables/STUDYID", "title": "Study Identifier", "type": "SDTM Dataset Variable"}], "self": {"href": "/mdr/cdashig/2-1/scenarios/MI.LocalProcessing/fields/STUDYID", "title": "Study Identifier", "type": "Data Collection Field"}}, "core": "HR", "definition": "A unique identifier for a study.", "implementationNotes": "While this field is not typically captured on a CRF, it should be displayed clearly on the CRF and/or the EDC system. This field can be included into the database or populated during SDTM- based dataset creation before submission.", "label": "Study Identifier", "mappingInstructions": "Maps directly to the SDTMIG variable listed in the column with the heading SDTMIG Target.", "name": "STUDYID", "ordinal": "1", "prompt": "[Protocol/Study]", "questionText": "What is the study identifier?", "simpleDatatype": "Char"}, {"_links": {"parentDomain": {"href": "/mdr/cdashig/2-1/domains/MI", "title": "Microscopic Findings", "type": "CDASH Domain"}, "parentProduct": {"href": "/mdr/cdashig/2-1", "title": "Clinical Data Acquisition Standards Harmonization Implementation Guide for Human Clinical Trials Version 2.1", "type": "Implementation Guide"}, "parentScenario": {"href": "/mdr/cdashig/2-1/scenarios/MI.LocalProcessing", "title": "Local Processing", "type": "CDASH Scenario"}, "priorVersion": {"href": "/mdr/cdashig/2-0/scenarios/MI.LocalProcessing/fields/SITEID", "title": "Study Site Identifier", "type": "Data Collection Field"}, "rootItem": {"href": "/mdr/root/cdashig/scenarios/MI.LocalProcessing/fields/SITEID", "title": "Version-agnostic anchor element for scenario field MI.LocalProcessing.SITEID", "type": "Root Data Element"}, "sdtmigDatasetMappingTargets": [{"href": "/mdr/sdtmig/3-2/datasets/DM/variables/SITEID", "title": "Study Site Identifier", "type": "SDTM Dataset Variable"}], "self": {"href": "/mdr/cdashig/2-1/scenarios/MI.LocalProcessing/fields/SITEID", "title": "Study Site Identifier", "type": "Data Collection Field"}}, "core": "HR", "definition": "A unique identifier for a site within a study.", "implementationNotes": "Paper: This is typically preprinted in the header of each CRF page for single site studies. For studies with multiple sites, this field may be left blank so that the number can be recorded by the site, or it may be preprinted on the CRFs that are shipped to each site. EDC: This should be prepopulated.", "label": "Study Site Identifier", "mappingInstructions": "Maps directly to the SDTMIG variable listed in the column with the heading SDTMIG Target.", "name": "SITEID", "ordinal": "2", "prompt": "Site (Identifier)", "questionText": "What is the site identifier?", "simpleDatatype": "Char"}, {"_links": {"parentDomain": {"href": "/mdr/cdashig/2-1/domains/MI", "title": "Microscopic Findings", "type": "CDASH Domain"}, "parentProduct": {"href": "/mdr/cdashig/2-1", "title": "Clinical Data Acquisition Standards Harmonization Implementation Guide for Human Clinical Trials Version 2.1", "type": "Implementation Guide"}, "parentScenario": {"href": "/mdr/cdashig/2-1/scenarios/MI.LocalProcessing", "title": "Local Processing", "type": "CDASH Scenario"}, "priorVersion": {"href": "/mdr/cdashig/2-0/scenarios/MI.LocalProcessing/fields/SUBJID", "title": "Subject Identifier for the Study", "type": "Data Collection Field"}, "rootItem": {"href": "/mdr/root/cdashig/scenarios/MI.LocalProcessing/fields/SUBJID", "title": "Version-agnostic anchor element for scenario field MI.LocalProcessing.SUBJID", "type": "Root Data Element"}, "sdtmigDatasetMappingTargets": [{"href": "/mdr/sdtmig/3-2/datasets/DM/variables/SUBJID", "title": "Subject Identifier for the Study", "type": "SDTM Dataset Variable"}], "self": {"href": "/mdr/cdashig/2-1/scenarios/MI.LocalProcessing/fields/SUBJID", "title": "Subject Identifier for the Study", "type": "Data Collection Field"}}, "completionInstructions": "Record the identifier for the subject.", "core": "HR", "definition": "A unique subject identifier within a site and a study.", "implementationNotes": "Paper: This is typically recorded in the header of each CRF page. EDC: The subject identifiers may be system generated. This CDASH variable is typically collected in all CDASH domains. However, this CDASH variable is populated only in the SDTMIG DM domain. For more information, refer to the SDTM Implementation Guide.", "label": "Subject Identifier for the Study", "mappingInstructions": "Maps directly to the SDTMIG variable listed in the column with the heading SDTMIG Target.", "name": "SUBJID", "ordinal": "3", "prompt": "[Subject/Participant] (Identifier)", "questionText": "What [is/was] the (study) [subject/participant] identifier?", "simpleDatatype": "Char"}, {"_links": {"parentDomain": {"href": "/mdr/cdashig/2-1/domains/MI", "title": "Microscopic Findings", "type": "CDASH Domain"}, "parentProduct": {"href": "/mdr/cdashig/2-1", "title": "Clinical Data Acquisition Standards Harmonization Implementation Guide for Human Clinical Trials Version 2.1", "type": "Implementation Guide"}, "parentScenario": {"href": "/mdr/cdashig/2-1/scenarios/MI.LocalProcessing", "title": "Local Processing", "type": "CDASH Scenario"}, "priorVersion": {"href": "/mdr/cdashig/2-0/scenarios/MI.LocalProcessing/fields/VISIT", "title": "Visit Name", "type": "Data Collection Field"}, "rootItem": {"href": "/mdr/root/cdashig/scenarios/MI.LocalProcessing/fields/VISIT", "title": "Version-agnostic anchor element for scenario field MI.LocalProcessing.VISIT", "type": "Root Data Element"}, "sdtmigDatasetMappingTargets": [{"href": "/mdr/sdtmig/3-2/datasets/MI/variables/VISIT", "title": "Visit Name", "type": "SDTM Dataset Variable"}], "self": {"href": "/mdr/cdashig/2-1/scenarios/MI.LocalProcessing/fields/VISIT", "title": "Visit Name", "type": "Data Collection Field"}}, "core": "R/C", "definition": "The name of a clinical encounter that encompasses planned and unplanned trial interventions, procedures, and assessments that may be performed on a subject.", "implementationNotes": "This CDASH variable is typically collected in all CDASH domains. However, this CDASH variable is represented only in the SDTMIG DM domain. For more information, refer to SDTM Table 2.2.4.", "label": "Visit Name", "mappingInstructions": "Maps directly to the SDTMIG variable listed in the column with the heading SDTMIG Target.", "name": "VISIT", "ordinal": "4", "prompt": "[Visit]", "questionText": "What is the visit name?", "simpleDatatype": "Char"}, {"_links": {"parentDomain": {"href": "/mdr/cdashig/2-1/domains/MI", "title": "Microscopic Findings", "type": "CDASH Domain"}, "parentProduct": {"href": "/mdr/cdashig/2-1", "title": "Clinical Data Acquisition Standards Harmonization Implementation Guide for Human Clinical Trials Version 2.1", "type": "Implementation Guide"}, "parentScenario": {"href": "/mdr/cdashig/2-1/scenarios/MI.LocalProcessing", "title": "Local Processing", "type": "CDASH Scenario"}, "priorVersion": {"href": "/mdr/cdashig/2-0/scenarios/MI.LocalProcessing/fields/VISDAT", "title": "Visit Date", "type": "Data Collection Field"}, "rootItem": {"href": "/mdr/root/cdashig/scenarios/MI.LocalProcessing/fields/VISDAT", "title": "Version-agnostic anchor element for scenario field MI.LocalProcessing.VISDAT", "type": "Root Data Element"}, "self": {"href": "/mdr/cdashig/2-1/scenarios/MI.LocalProcessing/fields/VISDAT", "title": "Visit Date", "type": "Data Collection Field"}}, "completionInstructions": "Record the [date/start date] of the visit using DD-MON-YYYY format.", "core": "R/C", "definition": "Date the clinical encounter occurred (or started).", "implementationNotes": "The date the Microscopic Findings were collected can be determined from the Visit Date variable (VISDAT) and applying that date to all of the Microscopic Findings at that visit, or the collection date can be included on the Microscopic Findings CRF using the date (MIDAT) field.", "label": "Visit Date", "mappingInstructions": "This field is not an SDTM variable. The date of a measurement, test, observation can be determined from the date/time of visit (VISDAT/VISTIM) and then concatenating the CDASH VISDAT/VISTIM components and populating the SDTMIG variable MIDTC in ISO 8601 format.", "name": "VISDAT", "ordinal": "5", "prompt": "(Visit) Date", "questionText": "What [is/was] the date of the visit?", "simpleDatatype": "Char"}, {"_links": {"codelist": [{"href": "/mdr/root/ct/sdtmct/codelists/C66742", "title": "Version-agnostic anchor resource for codelist C66742", "type": "Root Value Domain"}], "parentDomain": {"href": "/mdr/cdashig/2-1/domains/MI", "title": "Microscopic Findings", "type": "CDASH Domain"}, "parentProduct": {"href": "/mdr/cdashig/2-1", "title": "Clinical Data Acquisition Standards Harmonization Implementation Guide for Human Clinical Trials Version 2.1", "type": "Implementation Guide"}, "parentScenario": {"href": "/mdr/cdashig/2-1/scenarios/MI.LocalProcessing", "title": "Local Processing", "type": "CDASH Scenario"}, "priorVersion": {"href": "/mdr/cdashig/2-0/scenarios/MI.LocalProcessing/fields/MIPERF", "title": "Microscopic Examination Performed", "type": "Data Collection Field"}, "rootItem": {"href": "/mdr/root/cdashig/scenarios/MI.LocalProcessing/fields/MIPERF", "title": "Version-agnostic anchor element for scenario field MI.LocalProcessing.MIPERF", "type": "Root Data Element"}, "sdtmigDatasetMappingTargets": [{"href": "/mdr/sdtmig/3-2/datasets/MI/variables/MISTAT", "title": "Completion Status", "type": "SDTM Dataset Variable"}], "self": {"href": "/mdr/cdashig/2-1/scenarios/MI.LocalProcessing/fields/MIPERF", "title": "Microscopic Examination Performed", "type": "Data Collection Field"}}, "completionInstructions": "Indicate whether or not microscopic examination performed.", "core": "O", "definition": "An indication of whether or not a planned microbiology measurement, series of microbiology measurements, test, or observation was performed or specimens collected.", "implementationNotes": "This may be implemented for an entire panel. This general prompt question is used as a data management tool to verify that missing results are confirmed missing.", "label": "Microscopic Examination Performed", "mappingInstructions": "This does not map directly to an SDTMIG variable. May be used to derive a value into the SDTM variable MISTAT. If MIPERF=\"N\", the value of MISTAT will be \"NOT DONE\". If MIPERF=\"Y\", MISTAT should be null. A combination of SDTMIG variables (e.g., MICAT and MISCAT, MITPT ) is used to indicate that multiple tests were not done. In this situation, the SDTMIG variable MITESTCD would be populated as MIALL and an appropriate test name (MITEST) provided. See SDTMIG v3.2 Section 4.1.5.1.2.", "name": "MIPERF", "ordinal": "6", "prompt": "Microscopic Examination Performed", "questionText": "Was the microscopic examination performed?", "simpleDatatype": "Char"}, {"_links": {"parentDomain": {"href": "/mdr/cdashig/2-1/domains/MI", "title": "Microscopic Findings", "type": "CDASH Domain"}, "parentProduct": {"href": "/mdr/cdashig/2-1", "title": "Clinical Data Acquisition Standards Harmonization Implementation Guide for Human Clinical Trials Version 2.1", "type": "Implementation Guide"}, "parentScenario": {"href": "/mdr/cdashig/2-1/scenarios/MI.LocalProcessing", "title": "Local Processing", "type": "CDASH Scenario"}, "priorVersion": {"href": "/mdr/cdashig/2-0/scenarios/MI.LocalProcessing/fields/MIREFID", "title": "Microscopic Findings Reference ID", "type": "Data Collection Field"}, "rootItem": {"href": "/mdr/root/cdashig/scenarios/MI.LocalProcessing/fields/MIREFID", "title": "Version-agnostic anchor element for scenario field MI.LocalProcessing.MIREFID", "type": "Root Data Element"}, "sdtmigDatasetMappingTargets": [{"href": "/mdr/sdtmig/3-2/datasets/MI/variables/MIREFID", "title": "Reference ID", "type": "SDTM Dataset Variable"}], "self": {"href": "/mdr/cdashig/2-1/scenarios/MI.LocalProcessing/fields/MIREFID", "title": "MI Reference ID", "type": "Data Collection Field"}}, "completionInstructions": "Record the specimen [accession/reference] number assigned.", "core": "O", "definition": "An internal or external identifier such as specimen identifier.", "implementationNotes": "This can be used to reconcile CRF data. May be included for linking back to specimens (e.g., Specimen ID).", "label": "MI Reference ID", "mappingInstructions": "Maps directly to the SDTMIG variable listed in the column with the heading SDTMIG Target. May be used to create RELREC to link this record with a record in another domain.", "name": "MIREFID", "ordinal": "7", "prompt": "(Microscopic test) [Reference identifier/Accession Number]", "questionText": "What was the (microscopic test) [reference identifier/accession number]?", "simpleDatatype": "Char"}, {"_links": {"parentDomain": {"href": "/mdr/cdashig/2-1/domains/MI", "title": "Microscopic Findings", "type": "CDASH Domain"}, "parentProduct": {"href": "/mdr/cdashig/2-1", "title": "Clinical Data Acquisition Standards Harmonization Implementation Guide for Human Clinical Trials Version 2.1", "type": "Implementation Guide"}, "parentScenario": {"href": "/mdr/cdashig/2-1/scenarios/MI.LocalProcessing", "title": "Local Processing", "type": "CDASH Scenario"}, "priorVersion": {"href": "/mdr/cdashig/2-0/scenarios/MI.LocalProcessing/fields/MISPID", "title": "Microscopic Findings Sponsor-Defined Identifier", "type": "Data Collection Field"}, "rootItem": {"href": "/mdr/root/cdashig/scenarios/MI.LocalProcessing/fields/MISPID", "title": "Version-agnostic anchor element for scenario field MI.LocalProcessing.MISPID", "type": "Root Data Element"}, "sdtmigDatasetMappingTargets": [{"href": "/mdr/sdtmig/3-2/datasets/MI/variables/MISPID", "title": "Sponsor-Defined Identifier", "type": "SDTM Dataset Variable"}], "self": {"href": "/mdr/cdashig/2-1/scenarios/MI.LocalProcessing/fields/MISPID", "title": "MI Sponsor-Defined Identifier", "type": "Data Collection Field"}}, "completionInstructions": "If collected on the CRF, sponsor may insert instructions to ensure each record has a unique identifier.", "core": "O", "definition": "A sponsor-defined identifier. In CDASH, This is typically used for preprinted or auto-generated numbers on the CRF, or any other type of identifier that does not already have a defined CDASH identifier field.", "implementationNotes": "Because SPID is a sponsor-defined identifier, conformance to Question Text or Item Prompt is not applicable. Typically used as an identifier in a data query to communicate clearly to the site the specific record in question or to reconcile data. May be used to record preprinted number (e.g. line number, record number) on the CRF. This field may be populated by the sponsor's data collection system.", "label": "MI Sponsor-Defined Identifier", "mappingInstructions": "Maps directly to the SDTMIG variable listed in the column with the heading SDTMIG Target. May be used to create RELREC to link this record with a record in another domain.", "name": "MISPID", "ordinal": "8", "prompt": "[Sponsor defined]", "questionText": "[Sponsor-defined question]", "simpleDatatype": "Char"}, {"_links": {"parentDomain": {"href": "/mdr/cdashig/2-1/domains/MI", "title": "Microscopic Findings", "type": "CDASH Domain"}, "parentProduct": {"href": "/mdr/cdashig/2-1", "title": "Clinical Data Acquisition Standards Harmonization Implementation Guide for Human Clinical Trials Version 2.1", "type": "Implementation Guide"}, "parentScenario": {"href": "/mdr/cdashig/2-1/scenarios/MI.LocalProcessing", "title": "Local Processing", "type": "CDASH Scenario"}, "priorVersion": {"href": "/mdr/cdashig/2-0/scenarios/MI.LocalProcessing/fields/MIDAT", "title": "Date of Specimen Collection", "type": "Data Collection Field"}, "rootItem": {"href": "/mdr/root/cdashig/scenarios/MI.LocalProcessing/fields/MIDAT", "title": "Version-agnostic anchor element for scenario field MI.LocalProcessing.MIDAT", "type": "Root Data Element"}, "sdtmigDatasetMappingTargets": [{"href": "/mdr/sdtmig/3-2/datasets/MI/variables/MIDTC", "title": "Date/Time of Specimen Collection", "type": "SDTM Dataset Variable"}], "self": {"href": "/mdr/cdashig/2-1/scenarios/MI.LocalProcessing/fields/MIDAT", "title": "Specimen Collection Date", "type": "Data Collection Field"}}, "completionInstructions": "Record the date of specimen collection using this format (DD-MON-YYYY).", "core": "R/C", "definition": "The date of specimen collection, represented in an unambiguous date format (e.g., DD-MON-YYYY).", "implementationNotes": "A complete date is expected. The date of collection may be determined from the date of visit (VISDAT) and if so, a separate assessment date field is not required.", "label": "Specimen Collection Date", "mappingInstructions": "This does not map directly to an SDTMIG variable. For the SDTM submission dataset, concatenate all collected CDASH DATE and TIME components and populate the SDTMIG variable MIDTC in ISO 8601 format.", "name": "MIDAT", "ordinal": "9", "prompt": "Collection Date", "questionText": "What was the date of the specimen collection?", "simpleDatatype": "Char"}, {"_links": {"parentDomain": {"href": "/mdr/cdashig/2-1/domains/MI", "title": "Microscopic Findings", "type": "CDASH Domain"}, "parentProduct": {"href": "/mdr/cdashig/2-1", "title": "Clinical Data Acquisition Standards Harmonization Implementation Guide for Human Clinical Trials Version 2.1", "type": "Implementation Guide"}, "parentScenario": {"href": "/mdr/cdashig/2-1/scenarios/MI.LocalProcessing", "title": "Local Processing", "type": "CDASH Scenario"}, "priorVersion": {"href": "/mdr/cdashig/2-0/scenarios/MI.LocalProcessing/fields/MITIM", "title": "Time of Specimen Collection", "type": "Data Collection Field"}, "rootItem": {"href": "/mdr/root/cdashig/scenarios/MI.LocalProcessing/fields/MITIM", "title": "Version-agnostic anchor element for scenario field MI.LocalProcessing.MITIM", "type": "Root Data Element"}, "sdtmigDatasetMappingTargets": [{"href": "/mdr/sdtmig/3-2/datasets/MI/variables/MIDTC", "title": "Date/Time of Specimen Collection", "type": "SDTM Dataset Variable"}], "self": {"href": "/mdr/cdashig/2-1/scenarios/MI.LocalProcessing/fields/MITIM", "title": "Specimen Collection Time", "type": "Data Collection Field"}}, "completionInstructions": "Record time of collection (as complete as possible).", "core": "R/C", "definition": "The time of specimen collection, represented in an unambiguous time format (e.g., hh:mm:ss).", "implementationNotes": "May be required when multiple assessments are done on one day or when the timing in relationship to study treatment is required for analysis.", "label": "Specimen Collection Time", "mappingInstructions": "This does not map directly to an SDTMIG variable. For the SDTM submission dataset, concatenate all collected CDASH DATE and TIME components and populate the SDTMIG variable MIDTC in ISO 8601 format.", "name": "MITIM", "ordinal": "10", "prompt": "Collection Time", "questionText": "What was the (start) time of the specimen collection?", "simpleDatatype": "Char"}, {"_links": {"parentDomain": {"href": "/mdr/cdashig/2-1/domains/MI", "title": "Microscopic Findings", "type": "CDASH Domain"}, "parentProduct": {"href": "/mdr/cdashig/2-1", "title": "Clinical Data Acquisition Standards Harmonization Implementation Guide for Human Clinical Trials Version 2.1", "type": "Implementation Guide"}, "parentScenario": {"href": "/mdr/cdashig/2-1/scenarios/MI.LocalProcessing", "title": "Local Processing", "type": "CDASH Scenario"}, "priorVersion": {"href": "/mdr/cdashig/2-0/scenarios/MI.LocalProcessing/fields/MICAT", "title": "Category for Microscopic Findings", "type": "Data Collection Field"}, "rootItem": {"href": "/mdr/root/cdashig/scenarios/MI.LocalProcessing/fields/MICAT", "title": "Version-agnostic anchor element for scenario field MI.LocalProcessing.MICAT", "type": "Root Data Element"}, "sdtmigDatasetMappingTargets": [{"href": "/mdr/sdtmig/3-2/datasets/MI/variables/MICAT", "title": "Category for Microscopic Finding", "type": "SDTM Dataset Variable"}], "self": {"href": "/mdr/cdashig/2-1/scenarios/MI.LocalProcessing/fields/MICAT", "title": "Category for Microscopic Finding", "type": "Data Collection Field"}}, "completionInstructions": "Record the microscopic finding category, if not preprinted on the CRF.", "core": "O", "definition": "A grouping of topic-variable values based on user-defined characteristics.", "implementationNotes": "Sponsor-defined controlled terminology. This would most commonly be either a heading or a preprinted category value on the CRF, and not a question to which the site would provide an answer. If a question is asked, the response would typically be a sponsor-defined codelist. If the form is laid out as a grid, then words such as \"Category\" can be included as the column header.", "label": "Category for Microscopic Finding", "mappingInstructions": "Maps directly to the SDTMIG variable listed in the column with the heading SDTMIG Target.", "name": "MICAT", "ordinal": "11", "prompt": "[Microscopic Category]; NULL", "questionText": "What was the category of the microscopic finding?", "simpleDatatype": "Char"}, {"_links": {"parentDomain": {"href": "/mdr/cdashig/2-1/domains/MI", "title": "Microscopic Findings", "type": "CDASH Domain"}, "parentProduct": {"href": "/mdr/cdashig/2-1", "title": "Clinical Data Acquisition Standards Harmonization Implementation Guide for Human Clinical Trials Version 2.1", "type": "Implementation Guide"}, "parentScenario": {"href": "/mdr/cdashig/2-1/scenarios/MI.LocalProcessing", "title": "Local Processing", "type": "CDASH Scenario"}, "priorVersion": {"href": "/mdr/cdashig/2-0/scenarios/MI.LocalProcessing/fields/MISCAT", "title": "Subcategory for Microscopic Finding", "type": "Data Collection Field"}, "rootItem": {"href": "/mdr/root/cdashig/scenarios/MI.LocalProcessing/fields/MISCAT", "title": "Version-agnostic anchor element for scenario field MI.LocalProcessing.MISCAT", "type": "Root Data Element"}, "sdtmigDatasetMappingTargets": [{"href": "/mdr/sdtmig/3-2/datasets/MI/variables/MISCAT", "title": "Subcategory for Microscopic Finding", "type": "SDTM Dataset Variable"}], "self": {"href": "/mdr/cdashig/2-1/scenarios/MI.LocalProcessing/fields/MISCAT", "title": "Subcategory for Microscopic Finding", "type": "Data Collection Field"}}, "completionInstructions": "Record the microscopic finding subcategory, if not preprinted on the CRF.", "core": "O", "definition": "A sub-division of the MICAT values based on user-defined characteristics.", "implementationNotes": "Sponsor-defined controlled terminology. This would most commonly be either a heading, or a preprinted category value on the CRF and not a question to which the site would provide an answer. If a question is asked, the response would typically be a sponsor-defined codelist. If the form is laid out as a grid, then words such as \"Subcategory\" can be included as the column header. MISCAT can only be used if there is an MICAT and it must be a subcategorization of MICAT.", "label": "Subcategory for Microscopic Finding", "mappingInstructions": "Maps directly to the SDTMIG variable listed in the column with the heading SDTMIG Target.", "name": "MISCAT", "ordinal": "12", "prompt": "[Microscopic Subcategory]; NULL", "questionText": "What was the subcategory of the microscopic finding?", "simpleDatatype": "Char"}, {"_links": {"codelist": [{"href": "/mdr/root/ct/sdtmct/codelists/C132262", "title": "Version-agnostic anchor resource for codelist C132262", "type": "Root Value Domain"}], "parentDomain": {"href": "/mdr/cdashig/2-1/domains/MI", "title": "Microscopic Findings", "type": "CDASH Domain"}, "parentProduct": {"href": "/mdr/cdashig/2-1", "title": "Clinical Data Acquisition Standards Harmonization Implementation Guide for Human Clinical Trials Version 2.1", "type": "Implementation Guide"}, "parentScenario": {"href": "/mdr/cdashig/2-1/scenarios/MI.LocalProcessing", "title": "Local Processing", "type": "CDASH Scenario"}, "priorVersion": {"href": "/mdr/cdashig/2-0/scenarios/MI.LocalProcessing/fields/MITEST", "title": "Microscopic Examination Name", "type": "Data Collection Field"}, "rootItem": {"href": "/mdr/root/cdashig/scenarios/MI.LocalProcessing/fields/MITEST", "title": "Version-agnostic anchor element for scenario field MI.LocalProcessing.MITEST", "type": "Root Data Element"}, "sdtmigDatasetMappingTargets": [{"href": "/mdr/sdtmig/3-2/datasets/MI/variables/MITEST", "title": "Microscopic Examination Name", "type": "SDTM Dataset Variable"}, {"href": "/mdr/sdtmig/3-2/datasets/MI/variables/MITESTCD", "title": "Microscopic Examination Short Name", "type": "SDTM Dataset Variable"}], "self": {"href": "/mdr/cdashig/2-1/scenarios/MI.LocalProcessing/fields/MITEST", "title": "Microscopic Examination Name", "type": "Data Collection Field"}}, "completionInstructions": "Record the type or name of the microscopic examination, if not preprinted on the CRF. If collected on the CRF, the sponsor may provide additional instructions to ensure the data is entered as intended.", "core": "HR", "definition": "Descriptive name of the microscopic test or examination used to obtain the measurement or finding.", "implementationNotes": "Required to identify which test the result is for. It is recommended that the test names be preprinted on the CRF rather than collected in a field that requires the site to enter text. If the form is laid out as a grid, then words such as \"Test\" can be included as the column header.", "label": "Microscopic Examination Name", "mappingInstructions": "Maps directly to the SDTMIG variable listed in the column with the heading SDTMIG Target. The SDTMIG variable MITESTCD may be determined from the value collected in MITEST. Both MITESTCD and MITEST are required in the SDTM submission datasets. Use appropriate CDISC Controlled Terminology for the test and test code.", "name": "MITEST", "ordinal": "13", "prompt": "[Microscopic Measurement/Test/Examination Name]", "questionText": "What [is/was] the name (of the microscopic [measurement/test/examination])?", "simpleDatatype": "Char"}, {"_links": {"codelist": [{"href": "/mdr/root/ct/sdtmct/codelists/C125922", "title": "Version-agnostic anchor resource for codelist C125922", "type": "Root Value Domain"}], "parentDomain": {"href": "/mdr/cdashig/2-1/domains/MI", "title": "Microscopic Findings", "type": "CDASH Domain"}, "parentProduct": {"href": "/mdr/cdashig/2-1", "title": "Clinical Data Acquisition Standards Harmonization Implementation Guide for Human Clinical Trials Version 2.1", "type": "Implementation Guide"}, "parentScenario": {"href": "/mdr/cdashig/2-1/scenarios/MI.LocalProcessing", "title": "Local Processing", "type": "CDASH Scenario"}, "priorVersion": {"href": "/mdr/cdashig/2-0/scenarios/MI.LocalProcessing/fields/MITSTDTL", "title": "Microscopic Examination Detail", "type": "Data Collection Field"}, "rootItem": {"href": "/mdr/root/cdashig/scenarios/MI.LocalProcessing/fields/MITSTDTL", "title": "Version-agnostic anchor element for scenario field MI.LocalProcessing.MITSTDTL", "type": "Root Data Element"}, "sdtmigDatasetMappingTargets": [{"href": "/mdr/sdtmig/3-2/datasets/MI/variables/MITSTDTL", "title": "Microscopic Examination Detail", "type": "SDTM Dataset Variable"}], "self": {"href": "/mdr/cdashig/2-1/scenarios/MI.LocalProcessing/fields/MITSTDTL", "title": "Microscopic Examination Detail", "type": "Data Collection Field"}}, "completionInstructions": "Record the detail of the microscopic examination, if not preprinted on the CRF.", "core": "O", "definition": "Detail of the microscopic examination used to obtain the measurement or finding.", "implementationNotes": "Provides additional details for the microscopic examination. It is recommended that the test detail be preprinted on the CRF. If the form is laid out as a grid, then words such as \"Test Detail\" can be included as the column header.", "label": "Microscopic Examination Detail", "mappingInstructions": "Maps directly to the SDTMIG variable listed in the column with the heading SDTMIG Target.", "name": "MITSTDTL", "ordinal": "14", "prompt": "[Examination Name Detail]", "questionText": "What [is/was] the [microscopic measurement/test/examination] detail name?", "simpleDatatype": "Char"}, {"_links": {"parentDomain": {"href": "/mdr/cdashig/2-1/domains/MI", "title": "Microscopic Findings", "type": "CDASH Domain"}, "parentProduct": {"href": "/mdr/cdashig/2-1", "title": "Clinical Data Acquisition Standards Harmonization Implementation Guide for Human Clinical Trials Version 2.1", "type": "Implementation Guide"}, "parentScenario": {"href": "/mdr/cdashig/2-1/scenarios/MI.LocalProcessing", "title": "Local Processing", "type": "CDASH Scenario"}, "priorVersion": {"href": "/mdr/cdashig/2-0/scenarios/MI.LocalProcessing/fields/MIORRES", "title": "Microscopic Findings Result", "type": "Data Collection Field"}, "rootItem": {"href": "/mdr/root/cdashig/scenarios/MI.LocalProcessing/fields/MIORRES", "title": "Version-agnostic anchor element for scenario field MI.LocalProcessing.MIORRES", "type": "Root Data Element"}, "sdtmigDatasetMappingTargets": [{"href": "/mdr/sdtmig/3-2/datasets/MI/variables/MIORRES", "title": "Result or Finding in Original Units", "type": "SDTM Dataset Variable"}], "self": {"href": "/mdr/cdashig/2-1/scenarios/MI.LocalProcessing/fields/MIORRES", "title": "MI Result or Finding in Original Units", "type": "Data Collection Field"}}, "completionInstructions": "Record test result, interpretation or finding.", "core": "HR", "definition": "Result of the measurement or finding as originally received or collected.", "implementationNotes": "Both quantitative results and interpretive findings or summaries may be recorded here.", "label": "MI Result or Finding in Original Units", "mappingInstructions": "Maps directly to the SDTMIG variable listed in the column with the heading SDTMIG Target.", "name": "MIORRES", "ordinal": "15", "prompt": "(Result)", "questionText": "What was the result of the examination?", "simpleDatatype": "Char"}, {"_links": {"codelist": [{"href": "/mdr/root/ct/sdtmct/codelists/C71620", "title": "Version-agnostic anchor resource for codelist C71620", "type": "Root Value Domain"}], "parentDomain": {"href": "/mdr/cdashig/2-1/domains/MI", "title": "Microscopic Findings", "type": "CDASH Domain"}, "parentProduct": {"href": "/mdr/cdashig/2-1", "title": "Clinical Data Acquisition Standards Harmonization Implementation Guide for Human Clinical Trials Version 2.1", "type": "Implementation Guide"}, "parentScenario": {"href": "/mdr/cdashig/2-1/scenarios/MI.LocalProcessing", "title": "Local Processing", "type": "CDASH Scenario"}, "priorVersion": {"href": "/mdr/cdashig/2-0/scenarios/MI.LocalProcessing/fields/MIORRESU", "title": "Microscopic Findings Result Unit", "type": "Data Collection Field"}, "rootItem": {"href": "/mdr/root/cdashig/scenarios/MI.LocalProcessing/fields/MIORRESU", "title": "Version-agnostic anchor element for scenario field MI.LocalProcessing.MIORRESU", "type": "Root Data Element"}, "sdtmigDatasetMappingTargets": [{"href": "/mdr/sdtmig/3-2/datasets/MI/variables/MIORRESU", "title": "Original Units", "type": "SDTM Dataset Variable"}], "self": {"href": "/mdr/cdashig/2-1/scenarios/MI.LocalProcessing/fields/MIORRESU", "title": "MI Original Units", "type": "Data Collection Field"}}, "completionInstructions": "Record or select the original unit in which these data were collected, if not preprinted on CRF.", "core": "R/C", "definition": "The unit of the result as originally received or collected.", "implementationNotes": "Should be preprinted on the CRF with the associated test when possible, rather than collected in a field that requires the site to enter text. Should be included if applicable and not available elsewhere. For some tests the units may not be applicable (e.g., reaction score for HER2).", "label": "MI Original Units", "mappingInstructions": "Maps directly to the SDTMIG variable listed in the column with the heading SDTMIG Target.", "name": "MIORRESU", "ordinal": "16", "prompt": "Unit", "questionText": "What was the unit of the result?", "simpleDatatype": "Char"}, {"_links": {"codelist": [{"href": "/mdr/root/ct/sdtmct/codelists/C66742", "title": "Version-agnostic anchor resource for codelist C66742", "type": "Root Value Domain"}], "parentDomain": {"href": "/mdr/cdashig/2-1/domains/MI", "title": "Microscopic Findings", "type": "CDASH Domain"}, "parentProduct": {"href": "/mdr/cdashig/2-1", "title": "Clinical Data Acquisition Standards Harmonization Implementation Guide for Human Clinical Trials Version 2.1", "type": "Implementation Guide"}, "parentScenario": {"href": "/mdr/cdashig/2-1/scenarios/MI.LocalProcessing", "title": "Local Processing", "type": "CDASH Scenario"}, "priorVersion": {"href": "/mdr/cdashig/2-0/scenarios/MI.LocalProcessing/fields/MICLSIG", "title": "Clinical Significance", "type": "Data Collection Field"}, "rootItem": {"href": "/mdr/root/cdashig/scenarios/MI.LocalProcessing/fields/MICLSIG", "title": "Version-agnostic anchor element for scenario field MI.LocalProcessing.MICLSIG", "type": "Root Data Element"}, "sdtmigDatasetMappingTargets": [{"href": "/mdr/sdtmig/3-2/datasets/SUPPQUAL/variables/QVAL", "title": "Data Value", "type": "SDTM Dataset Variable"}], "self": {"href": "/mdr/cdashig/2-1/scenarios/MI.LocalProcessing/fields/MICLSIG", "title": "MI Clinical Significance", "type": "Data Collection Field"}}, "completionInstructions": "Indicate whether the results were clinically significant.", "core": "O", "definition": "An indication whether the test results were clinically significant.", "label": "MI Clinical Significance", "mappingInstructions": "This does not map directly to an SDTMIG variable. This information could be submitted in a SUPPMI dataset as the value of SUPPMI.QVAL where SUPPMI.QNAM=\"MICLSIG\" and SUPPMI.QLABEL=\"Clinically Significant\". Refer to the current SDTM and SDTMIG for instructions on placement of non-standard variables in SDTM domains.", "name": "MICLSIG", "ordinal": "17", "prompt": "Clinically Significant", "questionText": "Was the result clinically significant?", "simpleDatatype": "Char"}, {"_links": {"parentDomain": {"href": "/mdr/cdashig/2-1/domains/MI", "title": "Microscopic Findings", "type": "CDASH Domain"}, "parentProduct": {"href": "/mdr/cdashig/2-1", "title": "Clinical Data Acquisition Standards Harmonization Implementation Guide for Human Clinical Trials Version 2.1", "type": "Implementation Guide"}, "parentScenario": {"href": "/mdr/cdashig/2-1/scenarios/MI.LocalProcessing", "title": "Local Processing", "type": "CDASH Scenario"}, "priorVersion": {"href": "/mdr/cdashig/2-0/scenarios/MI.LocalProcessing/fields/MIRESCAT", "title": "Microscopic Findings Result Category", "type": "Data Collection Field"}, "rootItem": {"href": "/mdr/root/cdashig/scenarios/MI.LocalProcessing/fields/MIRESCAT", "title": "Version-agnostic anchor element for scenario field MI.LocalProcessing.MIRESCAT", "type": "Root Data Element"}, "sdtmigDatasetMappingTargets": [{"href": "/mdr/sdtmig/3-2/datasets/MI/variables/MIRESCAT", "title": "Result Category", "type": "SDTM Dataset Variable"}], "self": {"href": "/mdr/cdashig/2-1/scenarios/MI.LocalProcessing/fields/MIRESCAT", "title": "MI Result Category", "type": "Data Collection Field"}}, "completionInstructions": "Record the category of the test results.", "core": "O", "definition": "Used to categorize the result of a finding.", "implementationNotes": "Used to categorize the results of a finding (e.g., MALIGNANT or BENIGN, RESISTANCE VARIANT for genetic variation).", "label": "MI Result Category", "mappingInstructions": "Maps directly to the SDTMIG variable listed in the column with the heading SDTMIG Target.", "name": "MIRESCAT", "ordinal": "18", "prompt": "Result Category", "questionText": "What was the result category?", "simpleDatatype": "Char"}, {"_links": {"parentDomain": {"href": "/mdr/cdashig/2-1/domains/MI", "title": "Microscopic Findings", "type": "CDASH Domain"}, "parentProduct": {"href": "/mdr/cdashig/2-1", "title": "Clinical Data Acquisition Standards Harmonization Implementation Guide for Human Clinical Trials Version 2.1", "type": "Implementation Guide"}, "parentScenario": {"href": "/mdr/cdashig/2-1/scenarios/MI.LocalProcessing", "title": "Local Processing", "type": "CDASH Scenario"}, "priorVersion": {"href": "/mdr/cdashig/2-0/scenarios/MI.LocalProcessing/fields/MINAM", "title": "Laboratory/Vendor Name", "type": "Data Collection Field"}, "rootItem": {"href": "/mdr/root/cdashig/scenarios/MI.LocalProcessing/fields/MINAM", "title": "Version-agnostic anchor element for scenario field MI.LocalProcessing.MINAM", "type": "Root Data Element"}, "sdtmigDatasetMappingTargets": [{"href": "/mdr/sdtmig/3-2/datasets/MI/variables/MINAM", "title": "Laboratory/Vendor Name", "type": "SDTM Dataset Variable"}], "self": {"href": "/mdr/cdashig/2-1/scenarios/MI.LocalProcessing/fields/MINAM", "title": "Laboratory/Vendor Name", "type": "Data Collection Field"}}, "completionInstructions": "Record the laboratory name.", "core": "O", "definition": "The name or identifier of the vendor (e.g., laboratory) that provided the test results.", "implementationNotes": "Recommended to collect on the CRF if lab names was not collected at the site/study level or if multiple labs are used by a site.", "label": "Laboratory/Vendor Name", "mappingInstructions": "Maps directly to the SDTMIG variable listed in the column with the heading SDTMIG Target.", "name": "MINAM", "ordinal": "19", "prompt": "Vendor Name", "questionText": "What was the name of the vendor used?", "simpleDatatype": "Char"}, {"_links": {"codelist": [{"href": "/mdr/root/ct/sdtmct/codelists/C78734", "title": "Version-agnostic anchor resource for codelist C78734", "type": "Root Value Domain"}], "parentDomain": {"href": "/mdr/cdashig/2-1/domains/MI", "title": "Microscopic Findings", "type": "CDASH Domain"}, "parentProduct": {"href": "/mdr/cdashig/2-1", "title": "Clinical Data Acquisition Standards Harmonization Implementation Guide for Human Clinical Trials Version 2.1", "type": "Implementation Guide"}, "parentScenario": {"href": "/mdr/cdashig/2-1/scenarios/MI.LocalProcessing", "title": "Local Processing", "type": "CDASH Scenario"}, "priorVersion": {"href": "/mdr/cdashig/2-0/scenarios/MI.LocalProcessing/fields/MISPEC", "title": "Microscopic Findings Specimen Type", "type": "Data Collection Field"}, "rootItem": {"href": "/mdr/root/cdashig/scenarios/MI.LocalProcessing/fields/MISPEC", "title": "Version-agnostic anchor element for scenario field MI.LocalProcessing.MISPEC", "type": "Root Data Element"}, "sdtmigDatasetMappingTargets": [{"href": "/mdr/sdtmig/3-2/datasets/MI/variables/MISPEC", "title": "Specimen Material Type", "type": "SDTM Dataset Variable"}], "self": {"href": "/mdr/cdashig/2-1/scenarios/MI.LocalProcessing/fields/MISPEC", "title": "MI Specimen Material Type", "type": "Data Collection Field"}}, "completionInstructions": "Record the specimen material type.", "core": "R/C", "definition": "Defines the type of specimen used for a measurement.", "implementationNotes": "The type of specimen used for a measure. Should be collected if not available elsewhere, or if required to differentiate multiple specimens.", "label": "MI Specimen Material Type", "mappingInstructions": "Maps directly to the SDTMIG variable listed in the column with the heading SDTMIG Target.", "name": "MISPEC", "ordinal": "20", "prompt": "Specimen Type", "questionText": "What is the specimen material type?", "simpleDatatype": "Char"}, {"_links": {"codelist": [{"href": "/mdr/root/ct/sdtmct/codelists/C78733", "title": "Version-agnostic anchor resource for codelist C78733", "type": "Root Value Domain"}], "parentDomain": {"href": "/mdr/cdashig/2-1/domains/MI", "title": "Microscopic Findings", "type": "CDASH Domain"}, "parentProduct": {"href": "/mdr/cdashig/2-1", "title": "Clinical Data Acquisition Standards Harmonization Implementation Guide for Human Clinical Trials Version 2.1", "type": "Implementation Guide"}, "parentScenario": {"href": "/mdr/cdashig/2-1/scenarios/MI.LocalProcessing", "title": "Local Processing", "type": "CDASH Scenario"}, "priorVersion": {"href": "/mdr/cdashig/2-0/scenarios/MI.LocalProcessing/fields/MISPCCND", "title": "Microscopic Findings Specimen Condition", "type": "Data Collection Field"}, "rootItem": {"href": "/mdr/root/cdashig/scenarios/MI.LocalProcessing/fields/MISPCCND", "title": "Version-agnostic anchor element for scenario field MI.LocalProcessing.MISPCCND", "type": "Root Data Element"}, "sdtmigDatasetMappingTargets": [{"href": "/mdr/sdtmig/3-2/datasets/MI/variables/MISPCCND", "title": "Specimen Condition", "type": "SDTM Dataset Variable"}], "self": {"href": "/mdr/cdashig/2-1/scenarios/MI.LocalProcessing/fields/MISPCCND", "title": "MI Specimen Condition", "type": "Data Collection Field"}}, "completionInstructions": "Record condition of specimen.", "core": "R/C", "definition": "Describes the condition of the specimen.", "implementationNotes": "May be collected using free or standardized text. This can be used when results may be affected by whether conditions for specimen were properly met.", "label": "MI Specimen Condition", "mappingInstructions": "Maps directly to the SDTMIG variable listed in the column with the heading SDTMIG Target.", "name": "MISPCCND", "ordinal": "21", "prompt": "Specimen Condition", "questionText": "What was the condition of the specimen?", "simpleDatatype": "Char"}, {"_links": {"codelist": [{"href": "/mdr/root/ct/sdtmct/codelists/C74456", "title": "Version-agnostic anchor resource for codelist C74456", "type": "Root Value Domain"}], "parentDomain": {"href": "/mdr/cdashig/2-1/domains/MI", "title": "Microscopic Findings", "type": "CDASH Domain"}, "parentProduct": {"href": "/mdr/cdashig/2-1", "title": "Clinical Data Acquisition Standards Harmonization Implementation Guide for Human Clinical Trials Version 2.1", "type": "Implementation Guide"}, "parentScenario": {"href": "/mdr/cdashig/2-1/scenarios/MI.LocalProcessing", "title": "Local Processing", "type": "CDASH Scenario"}, "priorVersion": {"href": "/mdr/cdashig/2-0/scenarios/MI.LocalProcessing/fields/MILOC", "title": "Specimen Collection Location", "type": "Data Collection Field"}, "rootItem": {"href": "/mdr/root/cdashig/scenarios/MI.LocalProcessing/fields/MILOC", "title": "Version-agnostic anchor element for scenario field MI.LocalProcessing.MILOC", "type": "Root Data Element"}, "sdtmigDatasetMappingTargets": [{"href": "/mdr/sdtmig/3-2/datasets/MI/variables/MILOC", "title": "Specimen Collection Location", "type": "SDTM Dataset Variable"}], "self": {"href": "/mdr/cdashig/2-1/scenarios/MI.LocalProcessing/fields/MILOC", "title": "MI Specimen Collection Location", "type": "Data Collection Field"}}, "completionInstructions": "Record or select the anatomical location of specimen collection.", "core": "O", "definition": "A description of the anatomical location of the subject relevant to the collection of specimen.", "implementationNotes": "Collected or preprinted when the sponsor needs to identify the specific anatomical location. Sponsors may collect the data using a subset list of controlled terminology on the CRF. LAT, DIR, and PORTOT are used to further describe the anatomical location.", "label": "MI Specimen Collection Location", "mappingInstructions": "Maps directly to the SDTMIG variable listed in the column with the heading SDTMIG Target.", "name": "MILOC", "ordinal": "22", "prompt": "Anatomical Location", "questionText": "What was the anatomical location from which the specimen was collected?", "simpleDatatype": "Char"}, {"_links": {"codelist": [{"href": "/mdr/root/ct/sdtmct/codelists/C99073", "title": "Version-agnostic anchor resource for codelist C99073", "type": "Root Value Domain"}], "parentDomain": {"href": "/mdr/cdashig/2-1/domains/MI", "title": "Microscopic Findings", "type": "CDASH Domain"}, "parentProduct": {"href": "/mdr/cdashig/2-1", "title": "Clinical Data Acquisition Standards Harmonization Implementation Guide for Human Clinical Trials Version 2.1", "type": "Implementation Guide"}, "parentScenario": {"href": "/mdr/cdashig/2-1/scenarios/MI.LocalProcessing", "title": "Local Processing", "type": "CDASH Scenario"}, "priorVersion": {"href": "/mdr/cdashig/2-0/scenarios/MI.LocalProcessing/fields/MILAT", "title": "Microscopic Findings Laterality", "type": "Data Collection Field"}, "rootItem": {"href": "/mdr/root/cdashig/scenarios/MI.LocalProcessing/fields/MILAT", "title": "Version-agnostic anchor element for scenario field MI.LocalProcessing.MILAT", "type": "Root Data Element"}, "sdtmigDatasetMappingTargets": [{"href": "/mdr/sdtmig/3-2/datasets/MI/variables/MILAT", "title": "Specimen Laterality within Subject", "type": "SDTM Dataset Variable"}], "self": {"href": "/mdr/cdashig/2-1/scenarios/MI.LocalProcessing/fields/MILAT", "title": "MI Specimen Laterality within Subject", "type": "Data Collection Field"}}, "completionInstructions": "Record the side of the anatomical location of the specimen collection.", "core": "O", "definition": "Qualifier for anatomical location further detailing the side of the body.", "implementationNotes": "May be preprinted or collected when the sponsor needs to identify the specific side of the anatomical location. Sponsors may collect the data using a subset list of controlled terminology on the CRF.", "label": "MI Specimen Laterality within Subject", "mappingInstructions": "Maps directly to the SDTMIG variable listed in the column with the heading SDTMIG Target.", "name": "MILAT", "ordinal": "23", "prompt": "Side", "questionText": "What was the side of the anatomical location of the specimen collection?", "simpleDatatype": "Char"}, {"_links": {"codelist": [{"href": "/mdr/root/ct/sdtmct/codelists/C99074", "title": "Version-agnostic anchor resource for codelist C99074", "type": "Root Value Domain"}], "parentDomain": {"href": "/mdr/cdashig/2-1/domains/MI", "title": "Microscopic Findings", "type": "CDASH Domain"}, "parentProduct": {"href": "/mdr/cdashig/2-1", "title": "Clinical Data Acquisition Standards Harmonization Implementation Guide for Human Clinical Trials Version 2.1", "type": "Implementation Guide"}, "parentScenario": {"href": "/mdr/cdashig/2-1/scenarios/MI.LocalProcessing", "title": "Local Processing", "type": "CDASH Scenario"}, "priorVersion": {"href": "/mdr/cdashig/2-0/scenarios/MI.LocalProcessing/fields/MIDIR", "title": "Microscopic Findings Directionality", "type": "Data Collection Field"}, "rootItem": {"href": "/mdr/root/cdashig/scenarios/MI.LocalProcessing/fields/MIDIR", "title": "Version-agnostic anchor element for scenario field MI.LocalProcessing.MIDIR", "type": "Root Data Element"}, "sdtmigDatasetMappingTargets": [{"href": "/mdr/sdtmig/3-2/datasets/MI/variables/MIDIR", "title": "Specimen Directionality within Subject", "type": "SDTM Dataset Variable"}], "self": {"href": "/mdr/cdashig/2-1/scenarios/MI.LocalProcessing/fields/MIDIR", "title": "MI Specimen Directionality within Subjct", "type": "Data Collection Field"}}, "completionInstructions": "Record the directionality of the anatomical location of the specimen collection.", "core": "O", "definition": "Qualifier further detailing the position of the anatomical location relative to the center of the body, organ, or specimen.", "implementationNotes": "May be preprinted or collected when the sponsor needs to identify the directionality of the anatomical location. Sponsors may collect the data using a subset list of controlled terminology on the CRF.", "label": "MI Specimen Directionality within Subjct", "mappingInstructions": "Maps directly to the SDTMIG variable listed in the column with the heading SDTMIG Target.", "name": "MIDIR", "ordinal": "24", "prompt": "Directionality", "questionText": "What was the directionality of the anatomical location of the specimen collection?", "simpleDatatype": "Char"}, {"_links": {"codelist": [{"href": "/mdr/root/ct/sdtmct/codelists/C85492", "title": "Version-agnostic anchor resource for codelist C85492", "type": "Root Value Domain"}], "parentDomain": {"href": "/mdr/cdashig/2-1/domains/MI", "title": "Microscopic Findings", "type": "CDASH Domain"}, "parentProduct": {"href": "/mdr/cdashig/2-1", "title": "Clinical Data Acquisition Standards Harmonization Implementation Guide for Human Clinical Trials Version 2.1", "type": "Implementation Guide"}, "parentScenario": {"href": "/mdr/cdashig/2-1/scenarios/MI.LocalProcessing", "title": "Local Processing", "type": "CDASH Scenario"}, "priorVersion": {"href": "/mdr/cdashig/2-0/scenarios/MI.LocalProcessing/fields/MIMETHOD", "title": "Microscopic Findings Method", "type": "Data Collection Field"}, "rootItem": {"href": "/mdr/root/cdashig/scenarios/MI.LocalProcessing/fields/MIMETHOD", "title": "Version-agnostic anchor element for scenario field MI.LocalProcessing.MIMETHOD", "type": "Root Data Element"}, "sdtmigDatasetMappingTargets": [{"href": "/mdr/sdtmig/3-2/datasets/MI/variables/MIMETHOD", "title": "Method of Test or Examination", "type": "SDTM Dataset Variable"}], "self": {"href": "/mdr/cdashig/2-1/scenarios/MI.LocalProcessing/fields/MIMETHOD", "title": "MI Method of Test or Examination", "type": "Data Collection Field"}}, "completionInstructions": "Record the method of test or examination.", "core": "O", "definition": "Method of the test or examination.", "implementationNotes": "This information may be collected when more than one method is possible, and collecting the method used is necessary. This could include technique or type of staining used for the slides.", "label": "MI Method of Test or Examination", "mappingInstructions": "Maps directly to the SDTMIG variable listed in the column with the heading SDTMIG Target.", "name": "MIMETHOD", "ordinal": "25", "prompt": "Method", "questionText": "What was the method used for the test or examination?", "simpleDatatype": "Char"}, {"_links": {"codelist": [{"href": "/mdr/root/ct/sdtmct/codelists/C78735", "title": "Version-agnostic anchor resource for codelist C78735", "type": "Root Value Domain"}], "parentDomain": {"href": "/mdr/cdashig/2-1/domains/MI", "title": "Microscopic Findings", "type": "CDASH Domain"}, "parentProduct": {"href": "/mdr/cdashig/2-1", "title": "Clinical Data Acquisition Standards Harmonization Implementation Guide for Human Clinical Trials Version 2.1", "type": "Implementation Guide"}, "parentScenario": {"href": "/mdr/cdashig/2-1/scenarios/MI.LocalProcessing", "title": "Local Processing", "type": "CDASH Scenario"}, "priorVersion": {"href": "/mdr/cdashig/2-0/scenarios/MI.LocalProcessing/fields/MIEVAL", "title": "Microscopic Findings Evaluator", "type": "Data Collection Field"}, "rootItem": {"href": "/mdr/root/cdashig/scenarios/MI.LocalProcessing/fields/MIEVAL", "title": "Version-agnostic anchor element for scenario field MI.LocalProcessing.MIEVAL", "type": "Root Data Element"}, "sdtmigDatasetMappingTargets": [{"href": "/mdr/sdtmig/3-2/datasets/MI/variables/MIEVAL", "title": "Evaluator", "type": "SDTM Dataset Variable"}], "self": {"href": "/mdr/cdashig/2-1/scenarios/MI.LocalProcessing/fields/MIEVAL", "title": "MI Evaluator", "type": "Data Collection Field"}}, "completionInstructions": "Select the role of the person who provided the evaluation (e.g., INVESTIGATOR, ADJUDICATION COMMITTEE, VENDOR).", "core": "O", "definition": "The role of the person who provided the evaluation.", "implementationNotes": "Used only for results that are subjective (e.g., assigned by a person or a group). May be a preprinted or collected. Sponsors may collect the data using a subset list of controlled terminology on the CRF.", "label": "MI Evaluator", "mappingInstructions": "Maps directly to the SDTMIG variable listed in the column with the heading SDTMIG Target.", "name": "MIEVAL", "ordinal": "26", "prompt": "[Evaluator/Reporter]", "questionText": "Who was the evaluator?", "simpleDatatype": "Char"}], "ordinal": "12", "scenario": "Local Processing"}
