{"_links": {"parentClass": {"href": "/mdr/cdashig/2-1/classes/Findings", "title": "Findings", "type": "Class"}, "parentDomain": {"href": "/mdr/cdashig/2-1/domains/MS", "title": "Microbiology Susceptibility Test", "type": "CDASH Domain"}, "parentProduct": {"href": "/mdr/cdashig/2-1", "title": "Clinical Data Acquisition Standards Harmonization Implementation Guide for Human Clinical Trials Version 2.1", "type": "Implementation Guide"}, "self": {"href": "/mdr/cdashig/2-1/scenarios/MS.CentralProcessing", "title": "Central Processing", "type": "CDASH Scenario"}}, "domain": "Microbiology Susceptibility Test", "domainName": "MS", "fields": [{"_links": {"parentDomain": {"href": "/mdr/cdashig/2-1/domains/MS", "title": "Microbiology Susceptibility Test", "type": "CDASH Domain"}, "parentProduct": {"href": "/mdr/cdashig/2-1", "title": "Clinical Data Acquisition Standards Harmonization Implementation Guide for Human Clinical Trials Version 2.1", "type": "Implementation Guide"}, "parentScenario": {"href": "/mdr/cdashig/2-1/scenarios/MS.CentralProcessing", "title": "Central Processing", "type": "CDASH Scenario"}, "rootItem": {"href": "/mdr/root/cdashig/scenarios/MS.CentralProcessing/fields/STUDYID", "title": "Version-agnostic anchor element for scenario field MS.CentralProcessing.STUDYID", "type": "Root Data Element"}, "sdtmigDatasetMappingTargets": [{"href": "/mdr/sdtmig/3-2/datasets/MS/variables/STUDYID", "title": "Study Identifier", "type": "SDTM Dataset Variable"}], "self": {"href": "/mdr/cdashig/2-1/scenarios/MS.CentralProcessing/fields/STUDYID", "title": "Study Identifier", "type": "Data Collection Field"}}, "core": "HR", "definition": "A unique identifier for a study.", "implementationNotes": "While this field is not typically captured on a CRF, it should be displayed clearly on the CRF and/or the EDC system. This field can be included into the database or populated during SDTM-based dataset creation before submission.", "label": "Study Identifier", "mappingInstructions": "Maps directly to the SDTMIG variable listed in the column with the heading SDTMIG Target.", "name": "STUDYID", "ordinal": "1", "prompt": "[Protocol/Study]", "questionText": "What is the study identifier?", "simpleDatatype": "Char"}, {"_links": {"parentDomain": {"href": "/mdr/cdashig/2-1/domains/MS", "title": "Microbiology Susceptibility Test", "type": "CDASH Domain"}, "parentProduct": {"href": "/mdr/cdashig/2-1", "title": "Clinical Data Acquisition Standards Harmonization Implementation Guide for Human Clinical Trials Version 2.1", "type": "Implementation Guide"}, "parentScenario": {"href": "/mdr/cdashig/2-1/scenarios/MS.CentralProcessing", "title": "Central Processing", "type": "CDASH Scenario"}, "rootItem": {"href": "/mdr/root/cdashig/scenarios/MS.CentralProcessing/fields/SITEID", "title": "Version-agnostic anchor element for scenario field MS.CentralProcessing.SITEID", "type": "Root Data Element"}, "sdtmigDatasetMappingTargets": [{"href": "/mdr/sdtmig/3-2/datasets/DM/variables/SITEID", "title": "Study Site Identifier", "type": "SDTM Dataset Variable"}], "self": {"href": "/mdr/cdashig/2-1/scenarios/MS.CentralProcessing/fields/SITEID", "title": "Study Site Identifier", "type": "Data Collection Field"}}, "core": "HR", "definition": "A unique identifier for a site within a study.", "implementationNotes": "Paper: This is typically preprinted in the header of each CRF page for single site studies. For studies with multiple sites, this field may be left blank so that the number can be recorded by the site, or it may be preprinted on the CRFs that are shipped to each site. EDC: This should be prepopulated.", "label": "Study Site Identifier", "mappingInstructions": "Maps directly to the SDTMIG variable listed in the column with the heading SDTMIG Target.", "name": "SITEID", "ordinal": "2", "prompt": "Site (Identifier)", "questionText": "What is the site identifier?", "simpleDatatype": "Char"}, {"_links": {"parentDomain": {"href": "/mdr/cdashig/2-1/domains/MS", "title": "Microbiology Susceptibility Test", "type": "CDASH Domain"}, "parentProduct": {"href": "/mdr/cdashig/2-1", "title": "Clinical Data Acquisition Standards Harmonization Implementation Guide for Human Clinical Trials Version 2.1", "type": "Implementation Guide"}, "parentScenario": {"href": "/mdr/cdashig/2-1/scenarios/MS.CentralProcessing", "title": "Central Processing", "type": "CDASH Scenario"}, "rootItem": {"href": "/mdr/root/cdashig/scenarios/MS.CentralProcessing/fields/SUBJID", "title": "Version-agnostic anchor element for scenario field MS.CentralProcessing.SUBJID", "type": "Root Data Element"}, "sdtmigDatasetMappingTargets": [{"href": "/mdr/sdtmig/3-2/datasets/DM/variables/SUBJID", "title": "Subject Identifier for the Study", "type": "SDTM Dataset Variable"}], "self": {"href": "/mdr/cdashig/2-1/scenarios/MS.CentralProcessing/fields/SUBJID", "title": "Subject Identifier for the Study", "type": "Data Collection Field"}}, "completionInstructions": "Record the identifier for the subject.", "core": "HR", "definition": "A unique subject identifier within a site and a study.", "implementationNotes": "Paper: This is typically recorded in the header of each CRF page. EDC: The subject identifiers may be system generated. This CDASH variable is typically collected in all CDASH domains. However, this CDASH variable is populated only in the SDTMIG DM domain. For more information, refer to the SDTM Implementation Guide.", "label": "Subject Identifier for the Study", "mappingInstructions": "Maps directly to the SDTMIG variable listed in the column with the heading SDTMIG Target.", "name": "SUBJID", "ordinal": "3", "prompt": "[Subject/Participant] (Identifier)", "questionText": "What [is/was] the (study) [subject/participant] identifier?", "simpleDatatype": "Char"}, {"_links": {"parentDomain": {"href": "/mdr/cdashig/2-1/domains/MS", "title": "Microbiology Susceptibility Test", "type": "CDASH Domain"}, "parentProduct": {"href": "/mdr/cdashig/2-1", "title": "Clinical Data Acquisition Standards Harmonization Implementation Guide for Human Clinical Trials Version 2.1", "type": "Implementation Guide"}, "parentScenario": {"href": "/mdr/cdashig/2-1/scenarios/MS.CentralProcessing", "title": "Central Processing", "type": "CDASH Scenario"}, "rootItem": {"href": "/mdr/root/cdashig/scenarios/MS.CentralProcessing/fields/VISIT", "title": "Version-agnostic anchor element for scenario field MS.CentralProcessing.VISIT", "type": "Root Data Element"}, "sdtmigDatasetMappingTargets": [{"href": "/mdr/sdtmig/3-2/datasets/MS/variables/VISIT", "title": "Visit Name", "type": "SDTM Dataset Variable"}], "self": {"href": "/mdr/cdashig/2-1/scenarios/MS.CentralProcessing/fields/VISIT", "title": "Visit Name", "type": "Data Collection Field"}}, "core": "R/C", "definition": "The name of a clinical encounter that encompasses planned and unplanned trial interventions, procedures, and assessments that may be performed on a subject.", "implementationNotes": "This CDASH variable is typically collected in all CDASH domains. However, this CDASH variable is represented only in the SDTMIG DM domain. For more information, refer to SDTM Table 2.2.4.", "label": "Visit Name", "mappingInstructions": "Maps directly to the SDTMIG variable listed in the column with the heading SDTMIG Target.", "name": "VISIT", "ordinal": "4", "prompt": "[Visit]", "questionText": "What is the visit name?", "simpleDatatype": "Char"}, {"_links": {"parentDomain": {"href": "/mdr/cdashig/2-1/domains/MS", "title": "Microbiology Susceptibility Test", "type": "CDASH Domain"}, "parentProduct": {"href": "/mdr/cdashig/2-1", "title": "Clinical Data Acquisition Standards Harmonization Implementation Guide for Human Clinical Trials Version 2.1", "type": "Implementation Guide"}, "parentScenario": {"href": "/mdr/cdashig/2-1/scenarios/MS.CentralProcessing", "title": "Central Processing", "type": "CDASH Scenario"}, "rootItem": {"href": "/mdr/root/cdashig/scenarios/MS.CentralProcessing/fields/VISDAT", "title": "Version-agnostic anchor element for scenario field MS.CentralProcessing.VISDAT", "type": "Root Data Element"}, "self": {"href": "/mdr/cdashig/2-1/scenarios/MS.CentralProcessing/fields/VISDAT", "title": "Visit Date", "type": "Data Collection Field"}}, "completionInstructions": "Record the [date/start date] of the visit using DD-MON-YYYY format.", "core": "R/C", "definition": "Date the clinical encounter occurred (or started).", "implementationNotes": "The date the Microscopic Findings were collected can be determined from the Visit Date variable (VISDAT) and applying that date to all of the Microscopic Findings at that visit, or the collection date can be included on the Microscopic Findings CRF using the date (MIDAT) field.", "label": "Visit Date", "mappingInstructions": "This field is not an SDTM variable. The date of a measurement, test, observation can be determined from the date/time of visit (VISDAT/VISTIM) and then concatenating the CDASH VISDAT/VISTIM components and populating the SDTMIG variable MIDTC in ISO 8601 format.", "name": "VISDAT", "ordinal": "5", "prompt": "(Visit) Date", "questionText": "What [is/was] the date of the visit?", "simpleDatatype": "Char"}, {"_links": {"codelist": [{"href": "/mdr/root/ct/sdtmct/codelists/C66742", "title": "Version-agnostic anchor resource for codelist C66742", "type": "Root Value Domain"}], "parentDomain": {"href": "/mdr/cdashig/2-1/domains/MS", "title": "Microbiology Susceptibility Test", "type": "CDASH Domain"}, "parentProduct": {"href": "/mdr/cdashig/2-1", "title": "Clinical Data Acquisition Standards Harmonization Implementation Guide for Human Clinical Trials Version 2.1", "type": "Implementation Guide"}, "parentScenario": {"href": "/mdr/cdashig/2-1/scenarios/MS.CentralProcessing", "title": "Central Processing", "type": "CDASH Scenario"}, "rootItem": {"href": "/mdr/root/cdashig/scenarios/MS.CentralProcessing/fields/MSPERF", "title": "Version-agnostic anchor element for scenario field MS.CentralProcessing.MSPERF", "type": "Root Data Element"}, "sdtmigDatasetMappingTargets": [{"href": "/mdr/sdtmig/3-2/datasets/MS/variables/MSSTAT", "title": "Completion Status", "type": "SDTM Dataset Variable"}], "self": {"href": "/mdr/cdashig/2-1/scenarios/MS.CentralProcessing/fields/MSPERF", "title": "MS Test Performed", "type": "Data Collection Field"}}, "completionInstructions": "Indicate whether or not a microbiology susceptibility test was performed.", "core": "O", "definition": "An indication of whether or not a planned measurement, series of measurements, tests or observations was performed.", "implementationNotes": "This may be implemented for an entire panel. General prompt question to be used as a data management tool to verify that missing results are confirmed missing. For the SDTM submission dataset, the SDTMIG variable MSSTAT is populated using the CDASH field MSPERF. The question text used might be reflected in the reason not done (MSREASND).", "label": "MS Test Performed", "mappingInstructions": "This does not map directly to an SDTMIG variable. May be used to derive a value into the SDTM variable MSSTAT. If MSPERF=\"N\", the value of MSSTAT will be \"NOT DONE\". If MSPERF=\"Y\", MSSTAT should be null. A combination of SDTMIG variables (e.g., MSCAT and MSSCAT, MSTPT ) is used to indicate that multiple tests were not done. In this situation, the SDTMIG variable MSTESTCD would be populated as MSALL and an appropriate test name (MSTEST) provided. See SDTMIG v3.2 Section 4.1.5.1.2.", "name": "MSPERF", "ordinal": "6", "prompt": "Microbiology Susceptibility Performed", "questionText": "Was the Microbiology Susceptibility test performed?", "simpleDatatype": "Char"}, {"_links": {"parentDomain": {"href": "/mdr/cdashig/2-1/domains/MS", "title": "Microbiology Susceptibility Test", "type": "CDASH Domain"}, "parentProduct": {"href": "/mdr/cdashig/2-1", "title": "Clinical Data Acquisition Standards Harmonization Implementation Guide for Human Clinical Trials Version 2.1", "type": "Implementation Guide"}, "parentScenario": {"href": "/mdr/cdashig/2-1/scenarios/MS.CentralProcessing", "title": "Central Processing", "type": "CDASH Scenario"}, "rootItem": {"href": "/mdr/root/cdashig/scenarios/MS.CentralProcessing/fields/MSREFID", "title": "Version-agnostic anchor element for scenario field MS.CentralProcessing.MSREFID", "type": "Root Data Element"}, "sdtmigDatasetMappingTargets": [{"href": "/mdr/sdtmig/3-2/datasets/MS/variables/MSREFID", "title": "Reference ID", "type": "SDTM Dataset Variable"}], "self": {"href": "/mdr/cdashig/2-1/scenarios/MS.CentralProcessing/fields/MSREFID", "title": "MS Reference ID", "type": "Data Collection Field"}}, "completionInstructions": "Record the specimen [accession/reference] number assigned.", "core": "O", "definition": "An internal or external identifier such as specimen identifier.", "implementationNotes": "This can be used to confirm that the appropriate data record is present in the electronic transfer. May be included for linking back to specimens (e.g., Specimen ID).", "label": "MS Reference ID", "mappingInstructions": "Maps directly to the SDTMIG variable listed in the column with the heading SDTMIG Target. May be used to create RELREC to link this record with a record in another domain.", "name": "MSREFID", "ordinal": "7", "prompt": "(Microbiology Susceptibility Test) [Reference Identifier/Accession Number]", "questionText": "What was the (microbiology susceptibility test) [reference identifier/accession number]?", "simpleDatatype": "Char"}, {"_links": {"parentDomain": {"href": "/mdr/cdashig/2-1/domains/MS", "title": "Microbiology Susceptibility Test", "type": "CDASH Domain"}, "parentProduct": {"href": "/mdr/cdashig/2-1", "title": "Clinical Data Acquisition Standards Harmonization Implementation Guide for Human Clinical Trials Version 2.1", "type": "Implementation Guide"}, "parentScenario": {"href": "/mdr/cdashig/2-1/scenarios/MS.CentralProcessing", "title": "Central Processing", "type": "CDASH Scenario"}, "rootItem": {"href": "/mdr/root/cdashig/scenarios/MS.CentralProcessing/fields/MSDAT", "title": "Version-agnostic anchor element for scenario field MS.CentralProcessing.MSDAT", "type": "Root Data Element"}, "sdtmigDatasetMappingTargets": [{"href": "/mdr/sdtmig/3-2/datasets/MS/variables/MSDTC", "title": "Date/Time of Test", "type": "SDTM Dataset Variable"}], "self": {"href": "/mdr/cdashig/2-1/scenarios/MS.CentralProcessing/fields/MSDAT", "title": "MS Specimen Collection Date", "type": "Data Collection Field"}}, "completionInstructions": "Record the date when specimen collection occurred using this format (DD-MON-YYYY).", "core": "R/C", "definition": "The date of specimen collection, represented in an unambiguous date format (e.g., DD-MON-YYYY).", "implementationNotes": "A complete date is expected. The date of collection may be determined from the date of visit (VISDAT) and if so, a separate assessment date field is not required.", "label": "MS Specimen Collection Date", "mappingInstructions": "This does not map directly to an SDTMIG variable. For the SDTM submission dataset, concatenate all collected CDASH DATE and TIME components and populate the SDTMIG variable MSDTC in ISO 8601 format.", "name": "MSDAT", "ordinal": "8", "prompt": "Test Date", "questionText": "What was the (start) date of the (microbiology) specimen collection?", "simpleDatatype": "Char"}, {"_links": {"parentDomain": {"href": "/mdr/cdashig/2-1/domains/MS", "title": "Microbiology Susceptibility Test", "type": "CDASH Domain"}, "parentProduct": {"href": "/mdr/cdashig/2-1", "title": "Clinical Data Acquisition Standards Harmonization Implementation Guide for Human Clinical Trials Version 2.1", "type": "Implementation Guide"}, "parentScenario": {"href": "/mdr/cdashig/2-1/scenarios/MS.CentralProcessing", "title": "Central Processing", "type": "CDASH Scenario"}, "rootItem": {"href": "/mdr/root/cdashig/scenarios/MS.CentralProcessing/fields/MSTIM", "title": "Version-agnostic anchor element for scenario field MS.CentralProcessing.MSTIM", "type": "Root Data Element"}, "sdtmigDatasetMappingTargets": [{"href": "/mdr/sdtmig/3-2/datasets/MS/variables/MSDTC", "title": "Date/Time of Test", "type": "SDTM Dataset Variable"}], "self": {"href": "/mdr/cdashig/2-1/scenarios/MS.CentralProcessing/fields/MSTIM", "title": "MS Specimen Collection Time", "type": "Data Collection Field"}}, "completionInstructions": "Record time of susceptibility test (as complete as possible).", "core": "R/C", "definition": "The time of specimen collection, represented in an unambiguous time format (e.g., hh:mm:ss).", "implementationNotes": "May be required when multiple assessments are done on one day or when the timing in relationship to study treatment is required for analysis.", "label": "MS Specimen Collection Time", "mappingInstructions": "This does not map directly to an SDTMIG variable. For the SDTM submission dataset, concatenate all collected CDASH DATE and TIME components and populate the SDTMIG variable MSDTC in ISO 8601 format.", "name": "MSTIM", "ordinal": "9", "prompt": "Susceptibility Test Time", "questionText": "What was the (start) time of the (microbiology) specimen collection?", "simpleDatatype": "Char"}, {"_links": {"parentDomain": {"href": "/mdr/cdashig/2-1/domains/MS", "title": "Microbiology Susceptibility Test", "type": "CDASH Domain"}, "parentProduct": {"href": "/mdr/cdashig/2-1", "title": "Clinical Data Acquisition Standards Harmonization Implementation Guide for Human Clinical Trials Version 2.1", "type": "Implementation Guide"}, "parentScenario": {"href": "/mdr/cdashig/2-1/scenarios/MS.CentralProcessing", "title": "Central Processing", "type": "CDASH Scenario"}, "rootItem": {"href": "/mdr/root/cdashig/scenarios/MS.CentralProcessing/fields/MSCAT", "title": "Version-agnostic anchor element for scenario field MS.CentralProcessing.MSCAT", "type": "Root Data Element"}, "sdtmigDatasetMappingTargets": [{"href": "/mdr/sdtmig/3-2/datasets/MS/variables/MSCAT", "title": "Category for Organism Findings", "type": "SDTM Dataset Variable"}], "self": {"href": "/mdr/cdashig/2-1/scenarios/MS.CentralProcessing/fields/MSCAT", "title": "MS Category for Organism Findings", "type": "Data Collection Field"}}, "completionInstructions": "Record the microbiology susceptibility category, if not preprinted on the CRF.", "core": "O", "definition": "A grouping of topic-variable values based on user-defined characteristics.", "implementationNotes": "Sponsor-defined controlled terminology. This would most commonly be either a heading or a preprinted category value on the CRF, and not a question to which the site would provide an answer. If a question is asked, the response would typically be a sponsor-defined codelist. If the form is laid out as a grid, then words such as \"Category\" can be included as the column header.", "label": "MS Category for Organism Findings", "mappingInstructions": "Maps directly to the SDTMIG variable listed in the column with the heading SDTMIG Target.", "name": "MSCAT", "ordinal": "10", "prompt": "[Microbiology Susceptibility Category]; NULL", "questionText": "What was the category of the microbiology susceptibility test?", "simpleDatatype": "Char"}, {"_links": {"parentDomain": {"href": "/mdr/cdashig/2-1/domains/MS", "title": "Microbiology Susceptibility Test", "type": "CDASH Domain"}, "parentProduct": {"href": "/mdr/cdashig/2-1", "title": "Clinical Data Acquisition Standards Harmonization Implementation Guide for Human Clinical Trials Version 2.1", "type": "Implementation Guide"}, "parentScenario": {"href": "/mdr/cdashig/2-1/scenarios/MS.CentralProcessing", "title": "Central Processing", "type": "CDASH Scenario"}, "rootItem": {"href": "/mdr/root/cdashig/scenarios/MS.CentralProcessing/fields/MSSCAT", "title": "Version-agnostic anchor element for scenario field MS.CentralProcessing.MSSCAT", "type": "Root Data Element"}, "sdtmigDatasetMappingTargets": [{"href": "/mdr/sdtmig/3-2/datasets/MS/variables/MSSCAT", "title": "Subcategory for Organism Findings", "type": "SDTM Dataset Variable"}], "self": {"href": "/mdr/cdashig/2-1/scenarios/MS.CentralProcessing/fields/MSSCAT", "title": "MS Subcategory for Organism Findings", "type": "Data Collection Field"}}, "completionInstructions": "Record the microbiology susceptibility subcategory, if not preprinted on the CRF.", "core": "O", "definition": "A sub-division of the MSCAT values based on user-defined characteristics.", "implementationNotes": "Sponsor-defined controlled terminology. This would most commonly be either a heading or a preprinted category value on the CRF, and not a question to which the site would provide an answer. If a question is asked, the response would typically be a sponsor-defined codelist. If the form is laid out as a grid, then words such as \"Subcategory\" can be included as the column header. MSSCAT can only be used if there is an MSCAT and it must be a subcategorization of MSCAT.", "label": "MS Subcategory for Organism Findings", "mappingInstructions": "Maps directly to the SDTMIG variable listed in the column with the heading SDTMIG Target.", "name": "MSSCAT", "ordinal": "11", "prompt": "[Microbiology Susceptibility Subcategory]; NULL", "questionText": "What was the subcategory of the microbiology susceptibility finding?", "simpleDatatype": "Char"}, {"_links": {"codelist": [{"href": "/mdr/root/ct/sdtmct/codelists/C78734", "title": "Version-agnostic anchor resource for codelist C78734", "type": "Root Value Domain"}], "parentDomain": {"href": "/mdr/cdashig/2-1/domains/MS", "title": "Microbiology Susceptibility Test", "type": "CDASH Domain"}, "parentProduct": {"href": "/mdr/cdashig/2-1", "title": "Clinical Data Acquisition Standards Harmonization Implementation Guide for Human Clinical Trials Version 2.1", "type": "Implementation Guide"}, "parentScenario": {"href": "/mdr/cdashig/2-1/scenarios/MS.CentralProcessing", "title": "Central Processing", "type": "CDASH Scenario"}, "rootItem": {"href": "/mdr/root/cdashig/scenarios/MS.CentralProcessing/fields/MSSPEC", "title": "Version-agnostic anchor element for scenario field MS.CentralProcessing.MSSPEC", "type": "Root Data Element"}, "self": {"href": "/mdr/cdashig/2-1/scenarios/MS.CentralProcessing/fields/MSSPEC", "title": "MS Specimen Type", "type": "Data Collection Field"}}, "completionInstructions": "Record the specimen material type.", "core": "R/C", "definition": "Defines the type of specimen used for a measurement.", "implementationNotes": "The type of specimen used for a measure. Should be collected if not available elsewhere, or if required to differentiate multiple specimens.", "label": "MS Specimen Type", "mappingInstructions": "Maps directly to the SDTMIG variable listed in the column with the heading SDTMIG Target.", "name": "MSSPEC", "ordinal": "12", "prompt": "Specimen Type", "questionText": "What is the specimen material type?", "simpleDatatype": "Char"}, {"_links": {"codelist": [{"href": "/mdr/root/ct/sdtmct/codelists/C78733", "title": "Version-agnostic anchor resource for codelist C78733", "type": "Root Value Domain"}], "parentDomain": {"href": "/mdr/cdashig/2-1/domains/MS", "title": "Microbiology Susceptibility Test", "type": "CDASH Domain"}, "parentProduct": {"href": "/mdr/cdashig/2-1", "title": "Clinical Data Acquisition Standards Harmonization Implementation Guide for Human Clinical Trials Version 2.1", "type": "Implementation Guide"}, "parentScenario": {"href": "/mdr/cdashig/2-1/scenarios/MS.CentralProcessing", "title": "Central Processing", "type": "CDASH Scenario"}, "rootItem": {"href": "/mdr/root/cdashig/scenarios/MS.CentralProcessing/fields/MSSPCCND", "title": "Version-agnostic anchor element for scenario field MS.CentralProcessing.MSSPCCND", "type": "Root Data Element"}, "self": {"href": "/mdr/cdashig/2-1/scenarios/MS.CentralProcessing/fields/MSSPCCND", "title": "MS Specimen Condition", "type": "Data Collection Field"}}, "completionInstructions": "Record condition of specimen.", "core": "R/C", "definition": "Description of the condition of the specimen.", "implementationNotes": "May be collected using free or standardized text. This can be used when results may be affected by whether conditions for specimen were properly met.", "label": "MS Specimen Condition", "mappingInstructions": "Maps directly to the SDTMIG variable listed in the column with the heading SDTMIG Target.", "name": "MSSPCCND", "ordinal": "13", "prompt": "Specimen Condition", "questionText": "What was the condition of the specimen?", "simpleDatatype": "Char"}, {"_links": {"codelist": [{"href": "/mdr/root/ct/sdtmct/codelists/C74456", "title": "Version-agnostic anchor resource for codelist C74456", "type": "Root Value Domain"}], "parentDomain": {"href": "/mdr/cdashig/2-1/domains/MS", "title": "Microbiology Susceptibility Test", "type": "CDASH Domain"}, "parentProduct": {"href": "/mdr/cdashig/2-1", "title": "Clinical Data Acquisition Standards Harmonization Implementation Guide for Human Clinical Trials Version 2.1", "type": "Implementation Guide"}, "parentScenario": {"href": "/mdr/cdashig/2-1/scenarios/MS.CentralProcessing", "title": "Central Processing", "type": "CDASH Scenario"}, "rootItem": {"href": "/mdr/root/cdashig/scenarios/MS.CentralProcessing/fields/MSLOC", "title": "Version-agnostic anchor element for scenario field MS.CentralProcessing.MSLOC", "type": "Root Data Element"}, "self": {"href": "/mdr/cdashig/2-1/scenarios/MS.CentralProcessing/fields/MSLOC", "title": "MS Specimen Collection Location", "type": "Data Collection Field"}}, "completionInstructions": "Record or select the anatomical location of specimen collection.", "core": "O", "definition": "A description of the anatomical location of the subject relevant to the collection of specimen.", "implementationNotes": "Collected or preprinted when the sponsor needs to identify the specific anatomical location. Sponsors may collect the data using a subset list of Controlled Terminology on the CRF. LAT, DIR, and PORTOT are used to further describe the anatomical location.", "label": "MS Specimen Collection Location", "mappingInstructions": "Maps directly to the SDTMIG variable listed in the column with the heading SDTMIG Target.", "name": "MSLOC", "ordinal": "14", "prompt": "Anatomical Location", "questionText": "What was the anatomical location where the specimen was collected?", "simpleDatatype": "Char"}, {"_links": {"codelist": [{"href": "/mdr/root/ct/sdtmct/codelists/C99073", "title": "Version-agnostic anchor resource for codelist C99073", "type": "Root Value Domain"}], "parentDomain": {"href": "/mdr/cdashig/2-1/domains/MS", "title": "Microbiology Susceptibility Test", "type": "CDASH Domain"}, "parentProduct": {"href": "/mdr/cdashig/2-1", "title": "Clinical Data Acquisition Standards Harmonization Implementation Guide for Human Clinical Trials Version 2.1", "type": "Implementation Guide"}, "parentScenario": {"href": "/mdr/cdashig/2-1/scenarios/MS.CentralProcessing", "title": "Central Processing", "type": "CDASH Scenario"}, "rootItem": {"href": "/mdr/root/cdashig/scenarios/MS.CentralProcessing/fields/MSLAT", "title": "Version-agnostic anchor element for scenario field MS.CentralProcessing.MSLAT", "type": "Root Data Element"}, "self": {"href": "/mdr/cdashig/2-1/scenarios/MS.CentralProcessing/fields/MSLAT", "title": "MS Specimen Collection Laterality", "type": "Data Collection Field"}}, "completionInstructions": "Record the side of the anatomical location of the specimen collection.", "core": "O", "definition": "Qualifier for anatomical location further detailing the side of the body.", "implementationNotes": "May be preprinted or collected when the sponsor needs to identify the specific side of the anatomical location. Sponsors may collect the data using a subset list of controlled terminology on the CRF.", "label": "MS Specimen Collection Laterality", "mappingInstructions": "Maps directly to the SDTMIG variable listed in the column with the heading SDTMIG Target.", "name": "MSLAT", "ordinal": "15", "prompt": "Side", "questionText": "What was the side of the anatomical location of the specimen collection?", "simpleDatatype": "Char"}, {"_links": {"codelist": [{"href": "/mdr/root/ct/sdtmct/codelists/C99074", "title": "Version-agnostic anchor resource for codelist C99074", "type": "Root Value Domain"}], "parentDomain": {"href": "/mdr/cdashig/2-1/domains/MS", "title": "Microbiology Susceptibility Test", "type": "CDASH Domain"}, "parentProduct": {"href": "/mdr/cdashig/2-1", "title": "Clinical Data Acquisition Standards Harmonization Implementation Guide for Human Clinical Trials Version 2.1", "type": "Implementation Guide"}, "parentScenario": {"href": "/mdr/cdashig/2-1/scenarios/MS.CentralProcessing", "title": "Central Processing", "type": "CDASH Scenario"}, "rootItem": {"href": "/mdr/root/cdashig/scenarios/MS.CentralProcessing/fields/MSDIR", "title": "Version-agnostic anchor element for scenario field MS.CentralProcessing.MSDIR", "type": "Root Data Element"}, "self": {"href": "/mdr/cdashig/2-1/scenarios/MS.CentralProcessing/fields/MSDIR", "title": "MS Specimen Collection Directionality", "type": "Data Collection Field"}}, "completionInstructions": "Record the directionality of the anatomical location of the specimen collection.", "core": "O", "definition": "Qualifier further detailing the position of the anatomical location relative to the center of the body, organ, or specimen.", "implementationNotes": "May be preprinted or collected when the sponsor needs to identify the directionality of the anatomical location. Sponsors may collect the data using a subset list of controlled terminology on the CRF.", "label": "MS Specimen Collection Directionality", "mappingInstructions": "Maps directly to the SDTMIG variable listed in the column with the heading SDTMIG Target.", "name": "MSDIR", "ordinal": "16", "prompt": "Directionality", "questionText": "What was the directionality of the anatomical location of the specimen collection?", "simpleDatatype": "Char"}], "ordinal": "13", "scenario": "Central Processing"}
