{"_links": {"parentClass": {"href": "/mdr/cdashig/2-1/classes/Findings", "title": "Findings", "type": "Class"}, "parentDomain": {"href": "/mdr/cdashig/2-1/domains/MS", "title": "Microbiology Susceptibility Test", "type": "CDASH Domain"}, "parentProduct": {"href": "/mdr/cdashig/2-1", "title": "Clinical Data Acquisition Standards Harmonization Implementation Guide for Human Clinical Trials Version 2.1", "type": "Implementation Guide"}, "self": {"href": "/mdr/cdashig/2-1/scenarios/MS.LocalProcessing", "title": "Local Processing", "type": "CDASH Scenario"}}, "domain": "Microbiology Susceptibility Test", "domainName": "MS", "fields": [{"_links": {"parentDomain": {"href": "/mdr/cdashig/2-1/domains/MS", "title": "Microbiology Susceptibility Test", "type": "CDASH Domain"}, "parentProduct": {"href": "/mdr/cdashig/2-1", "title": "Clinical Data Acquisition Standards Harmonization Implementation Guide for Human Clinical Trials Version 2.1", "type": "Implementation Guide"}, "parentScenario": {"href": "/mdr/cdashig/2-1/scenarios/MS.LocalProcessing", "title": "Local Processing", "type": "CDASH Scenario"}, "rootItem": {"href": "/mdr/root/cdashig/scenarios/MS.LocalProcessing/fields/STUDYID", "title": "Version-agnostic anchor element for scenario field MS.LocalProcessing.STUDYID", "type": "Root Data Element"}, "sdtmigDatasetMappingTargets": [{"href": "/mdr/sdtmig/3-2/datasets/MS/variables/STUDYID", "title": "Study Identifier", "type": "SDTM Dataset Variable"}], "self": {"href": "/mdr/cdashig/2-1/scenarios/MS.LocalProcessing/fields/STUDYID", "title": "Study Identifier", "type": "Data Collection Field"}}, "core": "HR", "definition": "A unique identifier for a study.", "implementationNotes": "While this field is not typically captured on a CRF, it should be displayed clearly on the CRF and/or the EDC system. This field can be included into the database or populated during SDTM-based dataset creation before submission.", "label": "Study Identifier", "mappingInstructions": "Maps directly to the SDTMIG variable listed in the column with the heading SDTMIG Target.", "name": "STUDYID", "ordinal": "1", "prompt": "[Protocol/Study]", "questionText": "What is the study identifier?", "simpleDatatype": "Char"}, {"_links": {"parentDomain": {"href": "/mdr/cdashig/2-1/domains/MS", "title": "Microbiology Susceptibility Test", "type": "CDASH Domain"}, "parentProduct": {"href": "/mdr/cdashig/2-1", "title": "Clinical Data Acquisition Standards Harmonization Implementation Guide for Human Clinical Trials Version 2.1", "type": "Implementation Guide"}, "parentScenario": {"href": "/mdr/cdashig/2-1/scenarios/MS.LocalProcessing", "title": "Local Processing", "type": "CDASH Scenario"}, "rootItem": {"href": "/mdr/root/cdashig/scenarios/MS.LocalProcessing/fields/SITEID", "title": "Version-agnostic anchor element for scenario field MS.LocalProcessing.SITEID", "type": "Root Data Element"}, "sdtmigDatasetMappingTargets": [{"href": "/mdr/sdtmig/3-2/datasets/DM/variables/SITEID", "title": "Study Site Identifier", "type": "SDTM Dataset Variable"}], "self": {"href": "/mdr/cdashig/2-1/scenarios/MS.LocalProcessing/fields/SITEID", "title": "Study Site Identifier", "type": "Data Collection Field"}}, "core": "HR", "definition": "A unique identifier for a site within a study.", "implementationNotes": "Paper: This is typically preprinted in the header of each CRF page for single site studies. For studies with multiple sites, this field may be left blank so that the number can be recorded by the site, or it may be preprinted on the CRFs that are shipped to each site. EDC: This should be prepopulated.", "label": "Study Site Identifier", "mappingInstructions": "Maps directly to the SDTMIG variable listed in the column with the heading SDTMIG Target.", "name": "SITEID", "ordinal": "2", "prompt": "Site (Identifier)", "questionText": "What is the site identifier?", "simpleDatatype": "Char"}, {"_links": {"parentDomain": {"href": "/mdr/cdashig/2-1/domains/MS", "title": "Microbiology Susceptibility Test", "type": "CDASH Domain"}, "parentProduct": {"href": "/mdr/cdashig/2-1", "title": "Clinical Data Acquisition Standards Harmonization Implementation Guide for Human Clinical Trials Version 2.1", "type": "Implementation Guide"}, "parentScenario": {"href": "/mdr/cdashig/2-1/scenarios/MS.LocalProcessing", "title": "Local Processing", "type": "CDASH Scenario"}, "rootItem": {"href": "/mdr/root/cdashig/scenarios/MS.LocalProcessing/fields/SUBJID", "title": "Version-agnostic anchor element for scenario field MS.LocalProcessing.SUBJID", "type": "Root Data Element"}, "sdtmigDatasetMappingTargets": [{"href": "/mdr/sdtmig/3-2/datasets/DM/variables/SUBJID", "title": "Subject Identifier for the Study", "type": "SDTM Dataset Variable"}], "self": {"href": "/mdr/cdashig/2-1/scenarios/MS.LocalProcessing/fields/SUBJID", "title": "Subject Identifier for the Study", "type": "Data Collection Field"}}, "completionInstructions": "Record the identifier for the subject.", "core": "HR", "definition": "A unique subject identifier within a site and a study.", "implementationNotes": "Paper: This is typically recorded in the header of each CRF page. EDC: The subject identifiers may be system generated. This CDASH variable is typically collected in all CDASH domains. However, this CDASH variable is populated only in the SDTMIG DM domain. For more information, refer to the SDTM Implementation Guide.", "label": "Subject Identifier for the Study", "mappingInstructions": "Maps directly to the SDTMIG variable listed in the column with the heading SDTMIG Target.", "name": "SUBJID", "ordinal": "3", "prompt": "[Subject/Participant] (Identifier)", "questionText": "What [is/was] the (study) [subject/participant] identifier?", "simpleDatatype": "Char"}, {"_links": {"parentDomain": {"href": "/mdr/cdashig/2-1/domains/MS", "title": "Microbiology Susceptibility Test", "type": "CDASH Domain"}, "parentProduct": {"href": "/mdr/cdashig/2-1", "title": "Clinical Data Acquisition Standards Harmonization Implementation Guide for Human Clinical Trials Version 2.1", "type": "Implementation Guide"}, "parentScenario": {"href": "/mdr/cdashig/2-1/scenarios/MS.LocalProcessing", "title": "Local Processing", "type": "CDASH Scenario"}, "rootItem": {"href": "/mdr/root/cdashig/scenarios/MS.LocalProcessing/fields/VISIT", "title": "Version-agnostic anchor element for scenario field MS.LocalProcessing.VISIT", "type": "Root Data Element"}, "sdtmigDatasetMappingTargets": [{"href": "/mdr/sdtmig/3-2/datasets/MS/variables/VISIT", "title": "Visit Name", "type": "SDTM Dataset Variable"}], "self": {"href": "/mdr/cdashig/2-1/scenarios/MS.LocalProcessing/fields/VISIT", "title": "Visit Name", "type": "Data Collection Field"}}, "core": "R/C", "definition": "The name of a clinical encounter that encompasses planned and unplanned trial interventions, procedures, and assessments that may be performed on a subject.", "implementationNotes": "This CDASH variable is typically collected in all CDASH domains. However, this CDASH variable is represented only in the SDTMIG DM domain. For more information, refer to SDTM Table 2.2.4.", "label": "Visit Name", "mappingInstructions": "Maps directly to the SDTMIG variable listed in the column with the heading SDTMIG Target.", "name": "VISIT", "ordinal": "4", "prompt": "[Visit]", "questionText": "What is the visit name?", "simpleDatatype": "Char"}, {"_links": {"parentDomain": {"href": "/mdr/cdashig/2-1/domains/MS", "title": "Microbiology Susceptibility Test", "type": "CDASH Domain"}, "parentProduct": {"href": "/mdr/cdashig/2-1", "title": "Clinical Data Acquisition Standards Harmonization Implementation Guide for Human Clinical Trials Version 2.1", "type": "Implementation Guide"}, "parentScenario": {"href": "/mdr/cdashig/2-1/scenarios/MS.LocalProcessing", "title": "Local Processing", "type": "CDASH Scenario"}, "rootItem": {"href": "/mdr/root/cdashig/scenarios/MS.LocalProcessing/fields/VISDAT", "title": "Version-agnostic anchor element for scenario field MS.LocalProcessing.VISDAT", "type": "Root Data Element"}, "self": {"href": "/mdr/cdashig/2-1/scenarios/MS.LocalProcessing/fields/VISDAT", "title": "Visit Date", "type": "Data Collection Field"}}, "completionInstructions": "Record the [date/start date] of the visit using DD-MON-YYYY format.", "core": "R/C", "definition": "Date the clinical encounter occurred (or started).", "implementationNotes": "The date of Microscopic Findings were collected can be determined from the Visit Date variable (VISDAT) and applying that date to all of the Microscopic Findings at that visit, or the collection date can be included on the Microscopic Findings CRF using the date (MSDAT) field.", "label": "Visit Date", "mappingInstructions": "This field is not an SDTM variable. The date of a measurement, test, observation can be determined from the date/time of visit (VISDAT/VISTIM) and then concatenating the CDASH VISDAT/VISTIM components and populating the SDTMIG variable MIDTC in ISO 8601 format.", "name": "VISDAT", "ordinal": "5", "prompt": "(Visit) Date", "questionText": "What [is/was] the date of the visit?", "simpleDatatype": "Char"}, {"_links": {"codelist": [{"href": "/mdr/root/ct/sdtmct/codelists/C66742", "title": "Version-agnostic anchor resource for codelist C66742", "type": "Root Value Domain"}], "parentDomain": {"href": "/mdr/cdashig/2-1/domains/MS", "title": "Microbiology Susceptibility Test", "type": "CDASH Domain"}, "parentProduct": {"href": "/mdr/cdashig/2-1", "title": "Clinical Data Acquisition Standards Harmonization Implementation Guide for Human Clinical Trials Version 2.1", "type": "Implementation Guide"}, "parentScenario": {"href": "/mdr/cdashig/2-1/scenarios/MS.LocalProcessing", "title": "Local Processing", "type": "CDASH Scenario"}, "rootItem": {"href": "/mdr/root/cdashig/scenarios/MS.LocalProcessing/fields/MSPERF", "title": "Version-agnostic anchor element for scenario field MS.LocalProcessing.MSPERF", "type": "Root Data Element"}, "sdtmigDatasetMappingTargets": [{"href": "/mdr/sdtmig/3-2/datasets/MS/variables/MSSTAT", "title": "Completion Status", "type": "SDTM Dataset Variable"}], "self": {"href": "/mdr/cdashig/2-1/scenarios/MS.LocalProcessing/fields/MSPERF", "title": "MS Susceptibility Test Performed", "type": "Data Collection Field"}}, "completionInstructions": "Indicate whether or not microbiology susceptibility test was performed.", "core": "O", "definition": "An indication of whether or not a planned measurement, series of measurements, tests or observations was performed.", "implementationNotes": "This may be implemented for an entire panel. General prompt question to be used as a data management tool to verify that missing results are confirmed missing.", "label": "MS Susceptibility Test Performed", "mappingInstructions": "This does not map directly to an SDTMIG variable. May be used to derive a value into the SDTM variable MSSTAT. If MSPERF = \"N\", the value of MSSTAT will be \"NOT DONE\". If MSPERF = \"Y\", MSSTAT should be null. A combination of SDTMIG variables (e.g., MSCAT and MSSCAT, MSTPT ) is used to indicate that multiple tests were not done. In this situation, the SDTMIG variable MSTESTCD would be populated as MSALL and an appropriate test name (MSTEST) provided. See SDTMIG Section 4.1.5.1.2.", "name": "MSPERF", "ordinal": "6", "prompt": "Microbiology Susceptibility Performed", "questionText": "Was the microbiology susceptibility test performed?", "simpleDatatype": "Char"}, {"_links": {"parentDomain": {"href": "/mdr/cdashig/2-1/domains/MS", "title": "Microbiology Susceptibility Test", "type": "CDASH Domain"}, "parentProduct": {"href": "/mdr/cdashig/2-1", "title": "Clinical Data Acquisition Standards Harmonization Implementation Guide for Human Clinical Trials Version 2.1", "type": "Implementation Guide"}, "parentScenario": {"href": "/mdr/cdashig/2-1/scenarios/MS.LocalProcessing", "title": "Local Processing", "type": "CDASH Scenario"}, "rootItem": {"href": "/mdr/root/cdashig/scenarios/MS.LocalProcessing/fields/MSREFID", "title": "Version-agnostic anchor element for scenario field MS.LocalProcessing.MSREFID", "type": "Root Data Element"}, "sdtmigDatasetMappingTargets": [{"href": "/mdr/sdtmig/3-2/datasets/MS/variables/MSREFID", "title": "Reference ID", "type": "SDTM Dataset Variable"}], "self": {"href": "/mdr/cdashig/2-1/scenarios/MS.LocalProcessing/fields/MSREFID", "title": "MS Reference ID", "type": "Data Collection Field"}}, "completionInstructions": "Record the specimen [accession/reference] number assigned.", "core": "O", "definition": "An internal or external identifier such as specimen identifier.", "implementationNotes": "This can be used to reconcile CRF data). May be included for linking back to specimens (e.g., Specimen ID).", "label": "MS Reference ID", "mappingInstructions": "Maps directly to the SDTMIG variable listed in the column with the heading SDTMIG Target. May be used to create RELREC to link this record with a record in another domain.", "name": "MSREFID", "ordinal": "7", "prompt": "(Microbiology Susceptibility test) [Reference identifier/Accession Number]", "questionText": "What was the (microbiology susceptibility test) [reference identifier/accession number]?", "simpleDatatype": "Char"}, {"_links": {"parentDomain": {"href": "/mdr/cdashig/2-1/domains/MS", "title": "Microbiology Susceptibility Test", "type": "CDASH Domain"}, "parentProduct": {"href": "/mdr/cdashig/2-1", "title": "Clinical Data Acquisition Standards Harmonization Implementation Guide for Human Clinical Trials Version 2.1", "type": "Implementation Guide"}, "parentScenario": {"href": "/mdr/cdashig/2-1/scenarios/MS.LocalProcessing", "title": "Local Processing", "type": "CDASH Scenario"}, "rootItem": {"href": "/mdr/root/cdashig/scenarios/MS.LocalProcessing/fields/MSSPID", "title": "Version-agnostic anchor element for scenario field MS.LocalProcessing.MSSPID", "type": "Root Data Element"}, "sdtmigDatasetMappingTargets": [{"href": "/mdr/sdtmig/3-2/datasets/MS/variables/MSSPID", "title": "Sponsor-Defined Identifier", "type": "SDTM Dataset Variable"}], "self": {"href": "/mdr/cdashig/2-1/scenarios/MS.LocalProcessing/fields/MSSPID", "title": "MS Sponsor-Defined Identifier", "type": "Data Collection Field"}}, "completionInstructions": "If collected on the CRF, sponsor may insert instructions to ensure each record has a unique identifier.", "core": "O", "definition": "A sponsor-defined identifier. In CDASH, This is typically used for preprinted or auto-generated numbers on the CRF, or any other type of identifier that does not already have a defined CDASH identifier field.", "implementationNotes": "Because SPID is a sponsor-defined identifier, conformance to Question Text or Item Prompt is not applicable. Typically used as an identifier in a data query to communicate clearly to the site the specific record in question or to reconcile data. May be used to record preprinted number (e.g. line number, record number) on the CRF. This field may be populated by the sponsor's data collection system.", "label": "MS Sponsor-Defined Identifier", "mappingInstructions": "Maps directly to the SDTMIG variable listed in the column with the heading SDTMIG Target. May be used to create RELREC to link this record with a record in another domain.", "name": "MSSPID", "ordinal": "8", "prompt": "[Sponsor defined]", "questionText": "[Sponsor-defined question]", "simpleDatatype": "Char"}, {"_links": {"parentDomain": {"href": "/mdr/cdashig/2-1/domains/MS", "title": "Microbiology Susceptibility Test", "type": "CDASH Domain"}, "parentProduct": {"href": "/mdr/cdashig/2-1", "title": "Clinical Data Acquisition Standards Harmonization Implementation Guide for Human Clinical Trials Version 2.1", "type": "Implementation Guide"}, "parentScenario": {"href": "/mdr/cdashig/2-1/scenarios/MS.LocalProcessing", "title": "Local Processing", "type": "CDASH Scenario"}, "rootItem": {"href": "/mdr/root/cdashig/scenarios/MS.LocalProcessing/fields/MSLNKID", "title": "Version-agnostic anchor element for scenario field MS.LocalProcessing.MSLNKID", "type": "Root Data Element"}, "self": {"href": "/mdr/cdashig/2-1/scenarios/MS.LocalProcessing/fields/MSLNKID", "title": "MS Link ID", "type": "Data Collection Field"}}, "completionInstructions": "If collected on the CRF, sponsor may insert instructions to ensure each microbiology susceptibility result has an identifier that will link records across domains.", "core": "O", "definition": "An identifier used to link related records across domains.", "implementationNotes": "This may be a one-to- one or a one-to-many relationship. For example, a single microbiology specimen or result may have multiple measurements/assessments performed (e.g., susceptibility testing).", "label": "MS Link ID", "mappingInstructions": "Maps directly to the SDTM variable listed in the column with the heading \"SDTM Target\". May be used to create RELREC to link this record with a record in another domain.", "name": "MSLNKID", "ordinal": "9", "prompt": "[Domain/Observation] Link Identifier", "questionText": "What [is/was] the [test/procedure/observation] link identifier?", "simpleDatatype": "Char"}, {"_links": {"parentDomain": {"href": "/mdr/cdashig/2-1/domains/MS", "title": "Microbiology Susceptibility Test", "type": "CDASH Domain"}, "parentProduct": {"href": "/mdr/cdashig/2-1", "title": "Clinical Data Acquisition Standards Harmonization Implementation Guide for Human Clinical Trials Version 2.1", "type": "Implementation Guide"}, "parentScenario": {"href": "/mdr/cdashig/2-1/scenarios/MS.LocalProcessing", "title": "Local Processing", "type": "CDASH Scenario"}, "rootItem": {"href": "/mdr/root/cdashig/scenarios/MS.LocalProcessing/fields/MSDAT", "title": "Version-agnostic anchor element for scenario field MS.LocalProcessing.MSDAT", "type": "Root Data Element"}, "sdtmigDatasetMappingTargets": [{"href": "/mdr/sdtmig/3-2/datasets/MS/variables/MSDTC", "title": "Date/Time of Test", "type": "SDTM Dataset Variable"}], "self": {"href": "/mdr/cdashig/2-1/scenarios/MS.LocalProcessing/fields/MSDAT", "title": "MS Specimen Collection Date", "type": "Data Collection Field"}}, "completionInstructions": "Record the date of specimen collection using this format (DD-MON-YYYY).", "core": "R/C", "definition": "The date of specimen collection ,represented in an unambiguous date format (e.g., DD-MON-YYYY).", "implementationNotes": "A complete date is expected. The date of collection may be determined from the date of visit (VISDAT) and if so, a separate assessment date field is not required.", "label": "MS Specimen Collection Date", "mappingInstructions": "This does not map directly to an SDTMIG variable. For the SDTM submission dataset, concatenate all collected CDASH DATE and TIME components and populate the SDTMIG variable MSDTC in ISO 8601 format.", "name": "MSDAT", "ordinal": "10", "prompt": "Collection Date", "questionText": "What was the (start) date of the (microbiology) specimen collection?", "simpleDatatype": "Char"}, {"_links": {"parentDomain": {"href": "/mdr/cdashig/2-1/domains/MS", "title": "Microbiology Susceptibility Test", "type": "CDASH Domain"}, "parentProduct": {"href": "/mdr/cdashig/2-1", "title": "Clinical Data Acquisition Standards Harmonization Implementation Guide for Human Clinical Trials Version 2.1", "type": "Implementation Guide"}, "parentScenario": {"href": "/mdr/cdashig/2-1/scenarios/MS.LocalProcessing", "title": "Local Processing", "type": "CDASH Scenario"}, "rootItem": {"href": "/mdr/root/cdashig/scenarios/MS.LocalProcessing/fields/MSTIM", "title": "Version-agnostic anchor element for scenario field MS.LocalProcessing.MSTIM", "type": "Root Data Element"}, "sdtmigDatasetMappingTargets": [{"href": "/mdr/sdtmig/3-2/datasets/MS/variables/MSDTC", "title": "Date/Time of Test", "type": "SDTM Dataset Variable"}], "self": {"href": "/mdr/cdashig/2-1/scenarios/MS.LocalProcessing/fields/MSTIM", "title": "MS Specimen Collection Time", "type": "Data Collection Field"}}, "completionInstructions": "Record time of collection (as complete as possible).", "core": "R/C", "definition": "The time of specimen collection, represented in an unambiguous time format (e.g., hh:mm:ss).", "implementationNotes": "May be required when multiple assessments are done on one day or when the timing in relationship to study treatment is required for analysis.", "label": "MS Specimen Collection Time", "mappingInstructions": "This does not map directly to an SDTMIG variable. For the SDTM submission dataset, concatenate all collected CDASH DATE and TIME components and populate the SDTMIG variable MSDTC in ISO 8601 format.", "name": "MSTIM", "ordinal": "11", "prompt": "Collection Time", "questionText": "What was the (start) time of the the (microbiology) collection?", "simpleDatatype": "Char"}, {"_links": {"parentDomain": {"href": "/mdr/cdashig/2-1/domains/MS", "title": "Microbiology Susceptibility Test", "type": "CDASH Domain"}, "parentProduct": {"href": "/mdr/cdashig/2-1", "title": "Clinical Data Acquisition Standards Harmonization Implementation Guide for Human Clinical Trials Version 2.1", "type": "Implementation Guide"}, "parentScenario": {"href": "/mdr/cdashig/2-1/scenarios/MS.LocalProcessing", "title": "Local Processing", "type": "CDASH Scenario"}, "rootItem": {"href": "/mdr/root/cdashig/scenarios/MS.LocalProcessing/fields/MSCAT", "title": "Version-agnostic anchor element for scenario field MS.LocalProcessing.MSCAT", "type": "Root Data Element"}, "self": {"href": "/mdr/cdashig/2-1/scenarios/MS.LocalProcessing/fields/MSCAT", "title": "MS Category for Organism Findings", "type": "Data Collection Field"}}, "completionInstructions": "Record the microscopic finding category, if not preprinted on the CRF.", "core": "O", "definition": "A grouping of topic-variable values based on user-defined characteristics.", "implementationNotes": "Sponsor-defined controlled terminology. This would most commonly be either a heading, or a preprinted category value on the CRF and not a question to which the site would provide an answer. If a question is asked, the response would typically be a sponsor-defined codelist. If the form is laid out as a grid, then words such as \"Category\" can be included as the column header.", "label": "MS Category for Organism Findings", "mappingInstructions": "Maps directly to the SDTMIG variable listed in the column with the heading SDTMIG Target.", "name": "MSCAT", "ordinal": "12", "prompt": "[Microbiology Susceptibility Category]; NULL", "questionText": "What was the category of the Microbiology Susceptibility finding?", "simpleDatatype": "Char"}, {"_links": {"parentDomain": {"href": "/mdr/cdashig/2-1/domains/MS", "title": "Microbiology Susceptibility Test", "type": "CDASH Domain"}, "parentProduct": {"href": "/mdr/cdashig/2-1", "title": "Clinical Data Acquisition Standards Harmonization Implementation Guide for Human Clinical Trials Version 2.1", "type": "Implementation Guide"}, "parentScenario": {"href": "/mdr/cdashig/2-1/scenarios/MS.LocalProcessing", "title": "Local Processing", "type": "CDASH Scenario"}, "rootItem": {"href": "/mdr/root/cdashig/scenarios/MS.LocalProcessing/fields/MSSCAT", "title": "Version-agnostic anchor element for scenario field MS.LocalProcessing.MSSCAT", "type": "Root Data Element"}, "sdtmigDatasetMappingTargets": [{"href": "/mdr/sdtmig/3-2/datasets/MS/variables/MSSCAT", "title": "Subcategory for Organism Findings", "type": "SDTM Dataset Variable"}], "self": {"href": "/mdr/cdashig/2-1/scenarios/MS.LocalProcessing/fields/MSSCAT", "title": "MS Subcategory for Organism Findings", "type": "Data Collection Field"}}, "completionInstructions": "Record the microscopic finding subcategory, if not preprinted on the CRF.", "core": "O", "definition": "A sub-division of the MSCAT values based on user-defined characteristics.", "implementationNotes": "Sponsor-defined controlled terminology. This would most commonly be either a heading or a preprinted category value on the CRF, and not a question to which the site would provide an answer. If a question is asked, the response would typically be a sponsor-defined codelist. If the form is laid out as a grid, then words such as \"Subcategory\" can be included as the column header. MSSCAT can only be used if there is an MSCAT and it must be a subcategorization of MSCAT.", "label": "MS Subcategory for Organism Findings", "mappingInstructions": "Maps directly to the SDTMIG variable listed in the column with the heading SDTMIG Target.", "name": "MSSCAT", "ordinal": "13", "prompt": "[Microbiology Susceptibility Subcategory]; NULL", "questionText": "What was the subcategory of the Microbiology Susceptibility finding?", "simpleDatatype": "Char"}, {"_links": {"codelist": [{"href": "/mdr/root/ct/sdtmct/codelists/C120528", "title": "Version-agnostic anchor resource for codelist C120528", "type": "Root Value Domain"}], "parentDomain": {"href": "/mdr/cdashig/2-1/domains/MS", "title": "Microbiology Susceptibility Test", "type": "CDASH Domain"}, "parentProduct": {"href": "/mdr/cdashig/2-1", "title": "Clinical Data Acquisition Standards Harmonization Implementation Guide for Human Clinical Trials Version 2.1", "type": "Implementation Guide"}, "parentScenario": {"href": "/mdr/cdashig/2-1/scenarios/MS.LocalProcessing", "title": "Local Processing", "type": "CDASH Scenario"}, "rootItem": {"href": "/mdr/root/cdashig/scenarios/MS.LocalProcessing/fields/MSTEST", "title": "Version-agnostic anchor element for scenario field MS.LocalProcessing.MSTEST", "type": "Root Data Element"}, "sdtmigDatasetMappingTargets": [{"href": "/mdr/sdtmig/3-2/datasets/MS/variables/MSTESTCD", "title": "Microbiology Organism Finding Short Name", "type": "SDTM Dataset Variable"}, {"href": "/mdr/sdtmig/3-2/datasets/MS/variables/MSTEST", "title": "Organism Test or Finding Name", "type": "SDTM Dataset Variable"}], "self": {"href": "/mdr/cdashig/2-1/scenarios/MS.LocalProcessing/fields/MSTEST", "title": "MS Organism Test or Finding Name", "type": "Data Collection Field"}}, "completionInstructions": "Record the type or name of the microscopic examination, if not preprinted on the CRF. If collected on the CRF, the sponsor may provide additional instructions to ensure the data is entered as intended.", "core": "HR", "definition": "Descriptive name of the Microbiology Susceptibility test or examination used to obtain the measurement or finding.", "implementationNotes": "Required to identify which test the result is for. It is recommended that the test names be preprinted on the CRF rather than collected in a field that requires the site to enter text. If the form is laid out as a grid, then words such as \"Test\" can be included as the column header.", "label": "MS Organism Test or Finding Name", "mappingInstructions": "Maps directly to the SDTMIG variable listed in the column with the heading SDTMIG Target. The SDTMIG variable MSTESTCD may be determined from the value collected in MSTEST. Both MSTESTCD and MSTEST are required in the SDTM submission datasets. Use appropriate CDISC Controlled Terminology for the test and test code.", "name": "MSTEST", "ordinal": "14", "prompt": "[Microbiology Susceptibility Test Name]", "questionText": "What was the Microbiology Susceptibility test name?", "simpleDatatype": "Char"}, {"_links": {"parentDomain": {"href": "/mdr/cdashig/2-1/domains/MS", "title": "Microbiology Susceptibility Test", "type": "CDASH Domain"}, "parentProduct": {"href": "/mdr/cdashig/2-1", "title": "Clinical Data Acquisition Standards Harmonization Implementation Guide for Human Clinical Trials Version 2.1", "type": "Implementation Guide"}, "parentScenario": {"href": "/mdr/cdashig/2-1/scenarios/MS.LocalProcessing", "title": "Local Processing", "type": "CDASH Scenario"}, "rootItem": {"href": "/mdr/root/cdashig/scenarios/MS.LocalProcessing/fields/MSTSTDTL", "title": "Version-agnostic anchor element for scenario field MS.LocalProcessing.MSTSTDTL", "type": "Root Data Element"}, "self": {"href": "/mdr/cdashig/2-1/scenarios/MS.LocalProcessing/fields/MSTSTDTL", "title": "Microbiology Susceptibility Test Detail", "type": "Data Collection Field"}}, "completionInstructions": "Record the detail of the microbiology susceptibility test, if not preprinted on the CRF.", "core": "O", "definition": "Detail of the Microbiology Susceptibility Test used to obtain the measurement or finding. Helps to establish a unque record.", "implementationNotes": "Provides additional details for the microbiology susceptibility test if necessary to define a unique record. It is recommended that the test detail be preprinted on the CRF. If the form is laid out as a grid, then words such as \"Test Detail\" can be included as the column header.", "label": "Microbiology Susceptibility Test Detail", "mappingInstructions": "Maps directly to the SDTMIG variable listed in the column with the heading SDTMIG Target.", "name": "MSTSTDTL", "ordinal": "15", "prompt": "Test Detail", "questionText": "What was the Microbiology Susceptibility Test detail?", "simpleDatatype": "Char"}, {"_links": {"parentDomain": {"href": "/mdr/cdashig/2-1/domains/MS", "title": "Microbiology Susceptibility Test", "type": "CDASH Domain"}, "parentProduct": {"href": "/mdr/cdashig/2-1", "title": "Clinical Data Acquisition Standards Harmonization Implementation Guide for Human Clinical Trials Version 2.1", "type": "Implementation Guide"}, "parentScenario": {"href": "/mdr/cdashig/2-1/scenarios/MS.LocalProcessing", "title": "Local Processing", "type": "CDASH Scenario"}, "rootItem": {"href": "/mdr/root/cdashig/scenarios/MS.LocalProcessing/fields/MSORRES", "title": "Version-agnostic anchor element for scenario field MS.LocalProcessing.MSORRES", "type": "Root Data Element"}, "sdtmigDatasetMappingTargets": [{"href": "/mdr/sdtmig/3-2/datasets/MS/variables/MSORRES", "title": "Result or Finding in Original Units", "type": "SDTM Dataset Variable"}], "self": {"href": "/mdr/cdashig/2-1/scenarios/MS.LocalProcessing/fields/MSORRES", "title": "MS Result or Finding in Original Units", "type": "Data Collection Field"}}, "completionInstructions": "Record test result, interpretation or finding.", "core": "HR", "definition": "Result of the measurement or finding as originally received or collected.", "implementationNotes": "Both quantitative results and interpretive findings or summaries may be recorded here.", "label": "MS Result or Finding in Original Units", "mappingInstructions": "Maps directly to the SDTMIG variable listed in the column with the heading SDTMIG Target.", "name": "MSORRES", "ordinal": "16", "prompt": "(Result)", "questionText": "What was the result of the examination?", "simpleDatatype": "Char"}, {"_links": {"codelist": [{"href": "/mdr/root/ct/sdtmct/codelists/C71620", "title": "Version-agnostic anchor resource for codelist C71620", "type": "Root Value Domain"}], "parentDomain": {"href": "/mdr/cdashig/2-1/domains/MS", "title": "Microbiology Susceptibility Test", "type": "CDASH Domain"}, "parentProduct": {"href": "/mdr/cdashig/2-1", "title": "Clinical Data Acquisition Standards Harmonization Implementation Guide for Human Clinical Trials Version 2.1", "type": "Implementation Guide"}, "parentScenario": {"href": "/mdr/cdashig/2-1/scenarios/MS.LocalProcessing", "title": "Local Processing", "type": "CDASH Scenario"}, "rootItem": {"href": "/mdr/root/cdashig/scenarios/MS.LocalProcessing/fields/MSORRESU", "title": "Version-agnostic anchor element for scenario field MS.LocalProcessing.MSORRESU", "type": "Root Data Element"}, "sdtmigDatasetMappingTargets": [{"href": "/mdr/sdtmig/3-2/datasets/MS/variables/MSORRESU", "title": "Original Units", "type": "SDTM Dataset Variable"}], "self": {"href": "/mdr/cdashig/2-1/scenarios/MS.LocalProcessing/fields/MSORRESU", "title": "MS Original Units", "type": "Data Collection Field"}}, "completionInstructions": "Record or select the original unit in which these data were collected, if not preprinted on CRF.", "core": "R/C", "definition": "The unit of the result as originally received or collected.", "implementationNotes": "Should be preprinted on the CRF with the associated test when possible, rather than collected in a field that requires the site to enter text. Should be included if applicable and not available elsewhere. For some tests the units may not be applicable (e.g., where MSTEST requires simply a qualitative result).", "label": "MS Original Units", "mappingInstructions": "Maps directly to the SDTMIG variable listed in the column with the heading SDTMIG Target.", "name": "MSORRESU", "ordinal": "17", "prompt": "Unit", "questionText": "What was the unit of the result?", "simpleDatatype": "Char"}, {"_links": {"codelist": [{"href": "/mdr/root/ct/sdtmct/codelists/C66742", "title": "Version-agnostic anchor resource for codelist C66742", "type": "Root Value Domain"}], "parentDomain": {"href": "/mdr/cdashig/2-1/domains/MS", "title": "Microbiology Susceptibility Test", "type": "CDASH Domain"}, "parentProduct": {"href": "/mdr/cdashig/2-1", "title": "Clinical Data Acquisition Standards Harmonization Implementation Guide for Human Clinical Trials Version 2.1", "type": "Implementation Guide"}, "parentScenario": {"href": "/mdr/cdashig/2-1/scenarios/MS.LocalProcessing", "title": "Local Processing", "type": "CDASH Scenario"}, "rootItem": {"href": "/mdr/root/cdashig/scenarios/MS.LocalProcessing/fields/MSCLSIG", "title": "Version-agnostic anchor element for scenario field MS.LocalProcessing.MSCLSIG", "type": "Root Data Element"}, "sdtmigDatasetMappingTargets": [{"href": "/mdr/sdtmig/3-2/datasets/SUPPQUAL/variables/QVAL", "title": "Data Value", "type": "SDTM Dataset Variable"}], "self": {"href": "/mdr/cdashig/2-1/scenarios/MS.LocalProcessing/fields/MSCLSIG", "title": "MS Clinical Significance", "type": "Data Collection Field"}}, "completionInstructions": "Indicate whether the results were clinically significant.", "core": "O", "definition": "An indication whether the test results were clinically significant.", "label": "MS Clinical Significance", "mappingInstructions": "This does not map directly to an SDTMIG variable. This information could be submitted in a SUPPMS dataset as the value of SUPPMS.QVAL where SUPPMS.QNAM=\"MSCLSIG\" and SUPPMS.QLABEL=\"Clinically Significant\". Refer to the current SDTM and SDTMIG for instructions on placement of non-standard variables in SDTM domains.", "name": "MSCLSIG", "ordinal": "18", "prompt": "Clinically Significant", "questionText": "Was the result clinically significant?", "simpleDatatype": "Char"}, {"_links": {"parentDomain": {"href": "/mdr/cdashig/2-1/domains/MS", "title": "Microbiology Susceptibility Test", "type": "CDASH Domain"}, "parentProduct": {"href": "/mdr/cdashig/2-1", "title": "Clinical Data Acquisition Standards Harmonization Implementation Guide for Human Clinical Trials Version 2.1", "type": "Implementation Guide"}, "parentScenario": {"href": "/mdr/cdashig/2-1/scenarios/MS.LocalProcessing", "title": "Local Processing", "type": "CDASH Scenario"}, "rootItem": {"href": "/mdr/root/cdashig/scenarios/MS.LocalProcessing/fields/MSRESCAT", "title": "Version-agnostic anchor element for scenario field MS.LocalProcessing.MSRESCAT", "type": "Root Data Element"}, "sdtmigDatasetMappingTargets": [{"href": "/mdr/sdtmig/3-2/datasets/MS/variables/MSRESCAT", "title": "Result Category", "type": "SDTM Dataset Variable"}], "self": {"href": "/mdr/cdashig/2-1/scenarios/MS.LocalProcessing/fields/MSRESCAT", "title": "MS Result Category", "type": "Data Collection Field"}}, "completionInstructions": "Record the category of the test results.", "core": "O", "definition": "Used to categorize the result of a finding.", "implementationNotes": "Used to categorize the results of a finding (e.g., \"SUSCEPTIBLE\", \"RESISTANT\").", "label": "MS Result Category", "mappingInstructions": "Maps directly to the SDTMIG variable listed in the column with the heading SDTMIG Target.", "name": "MSRESCAT", "ordinal": "19", "prompt": "Result Category", "questionText": "What was the result category?", "simpleDatatype": "Char"}, {"_links": {"parentDomain": {"href": "/mdr/cdashig/2-1/domains/MS", "title": "Microbiology Susceptibility Test", "type": "CDASH Domain"}, "parentProduct": {"href": "/mdr/cdashig/2-1", "title": "Clinical Data Acquisition Standards Harmonization Implementation Guide for Human Clinical Trials Version 2.1", "type": "Implementation Guide"}, "parentScenario": {"href": "/mdr/cdashig/2-1/scenarios/MS.LocalProcessing", "title": "Local Processing", "type": "CDASH Scenario"}, "rootItem": {"href": "/mdr/root/cdashig/scenarios/MS.LocalProcessing/fields/MSNAM", "title": "Version-agnostic anchor element for scenario field MS.LocalProcessing.MSNAM", "type": "Root Data Element"}, "sdtmigDatasetMappingTargets": [{"href": "/mdr/sdtmig/3-2/datasets/MS/variables/MSNAM", "title": "Vendor Name", "type": "SDTM Dataset Variable"}], "self": {"href": "/mdr/cdashig/2-1/scenarios/MS.LocalProcessing/fields/MSNAM", "title": "MS Vendor Name", "type": "Data Collection Field"}}, "completionInstructions": "Record the laboratory name.", "core": "O", "definition": "The name or identifier of the vendor (e.g., laboratory) that provided the test results.", "implementationNotes": "Recommended to collect on the CRF if lab names was not collected at the site/study level or if multiple labs are used by a site.", "label": "MS Vendor Name", "mappingInstructions": "Maps directly to the SDTMIG variable listed in the column with the heading SDTMIG Target.", "name": "MSNAM", "ordinal": "20", "prompt": "Vendor Name", "questionText": "What was the name of the vendor used?", "simpleDatatype": "Char"}, {"_links": {"codelist": [{"href": "/mdr/root/ct/sdtmct/codelists/C78734", "title": "Version-agnostic anchor resource for codelist C78734", "type": "Root Value Domain"}], "parentDomain": {"href": "/mdr/cdashig/2-1/domains/MS", "title": "Microbiology Susceptibility Test", "type": "CDASH Domain"}, "parentProduct": {"href": "/mdr/cdashig/2-1", "title": "Clinical Data Acquisition Standards Harmonization Implementation Guide for Human Clinical Trials Version 2.1", "type": "Implementation Guide"}, "parentScenario": {"href": "/mdr/cdashig/2-1/scenarios/MS.LocalProcessing", "title": "Local Processing", "type": "CDASH Scenario"}, "rootItem": {"href": "/mdr/root/cdashig/scenarios/MS.LocalProcessing/fields/MSSPEC", "title": "Version-agnostic anchor element for scenario field MS.LocalProcessing.MSSPEC", "type": "Root Data Element"}, "self": {"href": "/mdr/cdashig/2-1/scenarios/MS.LocalProcessing/fields/MSSPEC", "title": "MS Specimen Type", "type": "Data Collection Field"}}, "completionInstructions": "Record the specimen material type.", "core": "R/C", "definition": "Defines the type of specimen used for a measurement.", "implementationNotes": "The type of specimen used for a measure. Should be collected if not available elsewhere, or if required to differentiate multiple specimens.", "label": "MS Specimen Type", "mappingInstructions": "Maps directly to the SDTMIG variable listed in the column with the heading SDTMIG Target.", "name": "MSSPEC", "ordinal": "21", "prompt": "Specimen Type", "questionText": "What is the specimen material type?", "simpleDatatype": "Char"}, {"_links": {"codelist": [{"href": "/mdr/root/ct/sdtmct/codelists/C78733", "title": "Version-agnostic anchor resource for codelist C78733", "type": "Root Value Domain"}], "parentDomain": {"href": "/mdr/cdashig/2-1/domains/MS", "title": "Microbiology Susceptibility Test", "type": "CDASH Domain"}, "parentProduct": {"href": "/mdr/cdashig/2-1", "title": "Clinical Data Acquisition Standards Harmonization Implementation Guide for Human Clinical Trials Version 2.1", "type": "Implementation Guide"}, "parentScenario": {"href": "/mdr/cdashig/2-1/scenarios/MS.LocalProcessing", "title": "Local Processing", "type": "CDASH Scenario"}, "rootItem": {"href": "/mdr/root/cdashig/scenarios/MS.LocalProcessing/fields/MSSPCCND", "title": "Version-agnostic anchor element for scenario field MS.LocalProcessing.MSSPCCND", "type": "Root Data Element"}, "self": {"href": "/mdr/cdashig/2-1/scenarios/MS.LocalProcessing/fields/MSSPCCND", "title": "MS Specimen Condition", "type": "Data Collection Field"}}, "completionInstructions": "Record condition of specimen.", "core": "O", "definition": "Describes the condition of the specimen.", "implementationNotes": "May be collected using free or standardized text. This can be used when results may be affected by whether conditions for specimen were properly met.", "label": "MS Specimen Condition", "mappingInstructions": "Maps directly to the SDTMIG variable listed in the column with the heading SDTMIG Target.", "name": "MSSPCCND", "ordinal": "22", "prompt": "Specimen Condition", "questionText": "What was the condition of the specimen?", "simpleDatatype": "Char"}, {"_links": {"codelist": [{"href": "/mdr/root/ct/sdtmct/codelists/C74456", "title": "Version-agnostic anchor resource for codelist C74456", "type": "Root Value Domain"}], "parentDomain": {"href": "/mdr/cdashig/2-1/domains/MS", "title": "Microbiology Susceptibility Test", "type": "CDASH Domain"}, "parentProduct": {"href": "/mdr/cdashig/2-1", "title": "Clinical Data Acquisition Standards Harmonization Implementation Guide for Human Clinical Trials Version 2.1", "type": "Implementation Guide"}, "parentScenario": {"href": "/mdr/cdashig/2-1/scenarios/MS.LocalProcessing", "title": "Local Processing", "type": "CDASH Scenario"}, "rootItem": {"href": "/mdr/root/cdashig/scenarios/MS.LocalProcessing/fields/MSLOC", "title": "Version-agnostic anchor element for scenario field MS.LocalProcessing.MSLOC", "type": "Root Data Element"}, "self": {"href": "/mdr/cdashig/2-1/scenarios/MS.LocalProcessing/fields/MSLOC", "title": "MS Specimen Collection Location", "type": "Data Collection Field"}}, "completionInstructions": "Record or select the anatomical location of specimen collection.", "core": "O", "definition": "A description of the anatomical location of the subject relevant to the collection of specimen.", "implementationNotes": "Collected or preprinted when the sponsor needs to identify the specific anatomical location. Sponsors may collect the data using a subset list of controlled terminology on the CRF. LAT, DIR, and PORTOT are used to further describe the anatomical location.", "label": "MS Specimen Collection Location", "mappingInstructions": "Maps directly to the SDTMIG variable listed in the column with the heading SDTMIG Target.", "name": "MSLOC", "ordinal": "23", "prompt": "Anatomical Location", "questionText": "What was the anatomical location where the specimen was collected?", "simpleDatatype": "Char"}, {"_links": {"codelist": [{"href": "/mdr/root/ct/sdtmct/codelists/C99073", "title": "Version-agnostic anchor resource for codelist C99073", "type": "Root Value Domain"}], "parentDomain": {"href": "/mdr/cdashig/2-1/domains/MS", "title": "Microbiology Susceptibility Test", "type": "CDASH Domain"}, "parentProduct": {"href": "/mdr/cdashig/2-1", "title": "Clinical Data Acquisition Standards Harmonization Implementation Guide for Human Clinical Trials Version 2.1", "type": "Implementation Guide"}, "parentScenario": {"href": "/mdr/cdashig/2-1/scenarios/MS.LocalProcessing", "title": "Local Processing", "type": "CDASH Scenario"}, "rootItem": {"href": "/mdr/root/cdashig/scenarios/MS.LocalProcessing/fields/MSLAT", "title": "Version-agnostic anchor element for scenario field MS.LocalProcessing.MSLAT", "type": "Root Data Element"}, "self": {"href": "/mdr/cdashig/2-1/scenarios/MS.LocalProcessing/fields/MSLAT", "title": "MS Specimen Collection Laterality", "type": "Data Collection Field"}}, "completionInstructions": "Record the side of the anatomical location of the specimen collection.", "core": "O", "definition": "Qualifier for anatomical location further detailing the side of the body.", "implementationNotes": "May be preprinted or collected when the sponsor needs to identify the specific side of the anatomical location. Sponsors may collect the data using a subset list of controlled terminology on the CRF.", "label": "MS Specimen Collection Laterality", "mappingInstructions": "Maps directly to the SDTMIG variable listed in the column with the heading SDTMIG Target.", "name": "MSLAT", "ordinal": "24", "prompt": "Side", "questionText": "What was the side of the anatomical location of the specimen collection?", "simpleDatatype": "Char"}, {"_links": {"codelist": [{"href": "/mdr/root/ct/sdtmct/codelists/C99074", "title": "Version-agnostic anchor resource for codelist C99074", "type": "Root Value Domain"}], "parentDomain": {"href": "/mdr/cdashig/2-1/domains/MS", "title": "Microbiology Susceptibility Test", "type": "CDASH Domain"}, "parentProduct": {"href": "/mdr/cdashig/2-1", "title": "Clinical Data Acquisition Standards Harmonization Implementation Guide for Human Clinical Trials Version 2.1", "type": "Implementation Guide"}, "parentScenario": {"href": "/mdr/cdashig/2-1/scenarios/MS.LocalProcessing", "title": "Local Processing", "type": "CDASH Scenario"}, "rootItem": {"href": "/mdr/root/cdashig/scenarios/MS.LocalProcessing/fields/MSDIR", "title": "Version-agnostic anchor element for scenario field MS.LocalProcessing.MSDIR", "type": "Root Data Element"}, "self": {"href": "/mdr/cdashig/2-1/scenarios/MS.LocalProcessing/fields/MSDIR", "title": "MS Specimen Collection Directionality", "type": "Data Collection Field"}}, "completionInstructions": "Record the directionality of the anatomical location of the specimen collection.", "core": "O", "definition": "Qualifier further detailing the position of the anatomical location relative to the center of the body, organ, or specimen.", "implementationNotes": "May be preprinted or collected when the sponsor needs to identify the directionality of the anatomical location. Sponsors may collect the data using a subset list of controlled terminology on the CRF.", "label": "MS Specimen Collection Directionality", "mappingInstructions": "Maps directly to the SDTMIG variable listed in the column with the heading SDTMIG Target.", "name": "MSDIR", "ordinal": "25", "prompt": "Directionality", "questionText": "What was the directionality of the anatomical location of the specimen collection?", "simpleDatatype": "Char"}, {"_links": {"codelist": [{"href": "/mdr/root/ct/sdtmct/codelists/C85492", "title": "Version-agnostic anchor resource for codelist C85492", "type": "Root Value Domain"}], "parentDomain": {"href": "/mdr/cdashig/2-1/domains/MS", "title": "Microbiology Susceptibility Test", "type": "CDASH Domain"}, "parentProduct": {"href": "/mdr/cdashig/2-1", "title": "Clinical Data Acquisition Standards Harmonization Implementation Guide for Human Clinical Trials Version 2.1", "type": "Implementation Guide"}, "parentScenario": {"href": "/mdr/cdashig/2-1/scenarios/MS.LocalProcessing", "title": "Local Processing", "type": "CDASH Scenario"}, "rootItem": {"href": "/mdr/root/cdashig/scenarios/MS.LocalProcessing/fields/MSMETHOD", "title": "Version-agnostic anchor element for scenario field MS.LocalProcessing.MSMETHOD", "type": "Root Data Element"}, "sdtmigDatasetMappingTargets": [{"href": "/mdr/sdtmig/3-2/datasets/MS/variables/MSMETHOD", "title": "Method of Test or Examination", "type": "SDTM Dataset Variable"}], "self": {"href": "/mdr/cdashig/2-1/scenarios/MS.LocalProcessing/fields/MSMETHOD", "title": "MS Method of Test or Examination", "type": "Data Collection Field"}}, "completionInstructions": "Record the method of test or examination.", "core": "O", "definition": "Method of the test or examination.", "implementationNotes": "This information may be collected when more than one method is possible, and collecting the method used is necessary. This could include technique or type of staining used for the slides.", "label": "MS Method of Test or Examination", "mappingInstructions": "Maps directly to the SDTMIG variable listed in the column with the heading SDTMIG Target.", "name": "MSMETHOD", "ordinal": "26", "prompt": "Method", "questionText": "What was the method used for the test or examination?", "simpleDatatype": "Char"}, {"_links": {"codelist": [{"href": "/mdr/root/ct/sdtmct/codelists/C78735", "title": "Version-agnostic anchor resource for codelist C78735", "type": "Root Value Domain"}], "parentDomain": {"href": "/mdr/cdashig/2-1/domains/MS", "title": "Microbiology Susceptibility Test", "type": "CDASH Domain"}, "parentProduct": {"href": "/mdr/cdashig/2-1", "title": "Clinical Data Acquisition Standards Harmonization Implementation Guide for Human Clinical Trials Version 2.1", "type": "Implementation Guide"}, "parentScenario": {"href": "/mdr/cdashig/2-1/scenarios/MS.LocalProcessing", "title": "Local Processing", "type": "CDASH Scenario"}, "rootItem": {"href": "/mdr/root/cdashig/scenarios/MS.LocalProcessing/fields/MSEVAL", "title": "Version-agnostic anchor element for scenario field MS.LocalProcessing.MSEVAL", "type": "Root Data Element"}, "self": {"href": "/mdr/cdashig/2-1/scenarios/MS.LocalProcessing/fields/MSEVAL", "title": "MS Evaluator", "type": "Data Collection Field"}}, "completionInstructions": "Select the role of the person who provided the evaluation (e.g., INVESTIGATOR, ADJUDICATION COMMITTEE, VENDOR).", "core": "O", "definition": "The role of the person who provided the evaluation.", "implementationNotes": "Used only for results that are subjective (e.g., assigned by a person or a group). May be preprinted or collected. Sponsors may collect the data using a subset list of controlled terminology on the CRF.", "label": "MS Evaluator", "mappingInstructions": "Maps directly to the SDTMIG variable listed in the column with the heading SDTMIG Target.", "name": "MSEVAL", "ordinal": "27", "prompt": "[Evaluator/Reporter]", "questionText": "Who was the evaluator?", "simpleDatatype": "Char"}, {"_links": {"parentDomain": {"href": "/mdr/cdashig/2-1/domains/MS", "title": "Microbiology Susceptibility Test", "type": "CDASH Domain"}, "parentProduct": {"href": "/mdr/cdashig/2-1", "title": "Clinical Data Acquisition Standards Harmonization Implementation Guide for Human Clinical Trials Version 2.1", "type": "Implementation Guide"}, "parentScenario": {"href": "/mdr/cdashig/2-1/scenarios/MS.LocalProcessing", "title": "Local Processing", "type": "CDASH Scenario"}, "rootItem": {"href": "/mdr/root/cdashig/scenarios/MS.LocalProcessing/fields/NHOID", "title": "Version-agnostic anchor element for scenario field MS.LocalProcessing.NHOID", "type": "Root Data Element"}, "sdtmigDatasetMappingTargets": [{"href": "/mdr/sdtmig/3-2/datasets/SUPPQUAL/variables/QVAL", "title": "Data Value", "type": "SDTM Dataset Variable"}], "self": {"href": "/mdr/cdashig/2-1/scenarios/MS.LocalProcessing/fields/NHOID", "title": "Non-host Organism ID", "type": "Data Collection Field"}}, "completionInstructions": "Record the identifier for a non-host organism that is the subject of the test.", "core": "O", "definition": "The identifier for a non-host organism which should only be used when the organism is the subject of the test.", "implementationNotes": "Sponsor-defined identifier for a non-host organism which should only be used when the organism is the subject of the test. These variables were added as core SDTM variables in SDTMIG v3.3.", "label": "Non-host Organism ID", "mappingInstructions": "This does not map directly to an SDTMIG variable. This information could be submitted in a SUPPMS dataset as the value of SUPPMS.QVAL where SUPPMS.QNAM=\"NHOID\" and SUPPMS.QLABEL=\"Non-host Organism ID\". Refer to the current SDTM and SDTMIG for instructions on placement of non-standard variables in SDTM domains.", "name": "NHOID", "ordinal": "28", "prompt": "Non-host Organism ID", "questionText": "What was the Non-host Organism ID?", "simpleDatatype": "Char"}, {"_links": {"parentDomain": {"href": "/mdr/cdashig/2-1/domains/MS", "title": "Microbiology Susceptibility Test", "type": "CDASH Domain"}, "parentProduct": {"href": "/mdr/cdashig/2-1", "title": "Clinical Data Acquisition Standards Harmonization Implementation Guide for Human Clinical Trials Version 2.1", "type": "Implementation Guide"}, "parentScenario": {"href": "/mdr/cdashig/2-1/scenarios/MS.LocalProcessing", "title": "Local Processing", "type": "CDASH Scenario"}, "rootItem": {"href": "/mdr/root/cdashig/scenarios/MS.LocalProcessing/fields/MSAGENT", "title": "Version-agnostic anchor element for scenario field MS.LocalProcessing.MSAGENT", "type": "Root Data Element"}, "sdtmigDatasetMappingTargets": [{"href": "/mdr/sdtmig/3-2/datasets/SUPPQUAL/variables/QVAL", "title": "Data Value", "type": "SDTM Dataset Variable"}], "self": {"href": "/mdr/cdashig/2-1/scenarios/MS.LocalProcessing/fields/MSAGENT", "title": "Microbiology Susceptibility Agent", "type": "Data Collection Field"}}, "completionInstructions": "Record the name of the agent for which resistance is being tested.", "core": "O", "definition": "The name of the agent for which resistance is tested", "implementationNotes": "These variables were added as core SDTM variables in SDTMIG v3.3.", "label": "Microbiology Susceptibility Agent", "mappingInstructions": "This does not map directly to an SDTMIG variable. This information could be submitted in a SUPPMS dataset as the value of SUPPMS.QVAL where SUPPMS.QNAM=\"MSAGENT\" and SUPPMS.QLABEL= \"Microbiology Susceptibility Agent\". Refer to the current SDTM and SDTMIG for instructions on placement of non-standard variables in SDTM domains.", "name": "MSAGENT", "ordinal": "29", "prompt": "Microbiology Susceptibility Agent", "questionText": "What was the name of the agent for which resistance is being tested?", "simpleDatatype": "Char"}, {"_links": {"parentDomain": {"href": "/mdr/cdashig/2-1/domains/MS", "title": "Microbiology Susceptibility Test", "type": "CDASH Domain"}, "parentProduct": {"href": "/mdr/cdashig/2-1", "title": "Clinical Data Acquisition Standards Harmonization Implementation Guide for Human Clinical Trials Version 2.1", "type": "Implementation Guide"}, "parentScenario": {"href": "/mdr/cdashig/2-1/scenarios/MS.LocalProcessing", "title": "Local Processing", "type": "CDASH Scenario"}, "rootItem": {"href": "/mdr/root/cdashig/scenarios/MS.LocalProcessing/fields/MSCONC", "title": "Version-agnostic anchor element for scenario field MS.LocalProcessing.MSCONC", "type": "Root Data Element"}, "sdtmigDatasetMappingTargets": [{"href": "/mdr/sdtmig/3-2/datasets/SUPPQUAL/variables/QVAL", "title": "Data Value", "type": "SDTM Dataset Variable"}], "self": {"href": "/mdr/cdashig/2-1/scenarios/MS.LocalProcessing/fields/MSCONC", "title": "MS Agent Concentration", "type": "Data Collection Field"}}, "completionInstructions": "Record the concentration of the agent.", "core": "O", "definition": "The concentration of the agent for which resistance is tested.", "implementationNotes": "These variables were added as core SDTM variables in SDTMIG v3.3.", "label": "MS Agent Concentration", "mappingInstructions": "This does not map directly to an SDTMIG variable. This information could be submitted in a SUPPMS.QVAL where SUPPMS.QNAM=\"MSCONC\" and SUPPMS.QLABEL=\"MS Agent Concentration\". Refer to the current SDTM and SDTMIG for instructions on placement of non-standard variables in SDTM domains.", "name": "MSCONC", "ordinal": "30", "prompt": "Agent Concentration", "questionText": "What was the concentration of the agent?", "simpleDatatype": "Char"}, {"_links": {"parentDomain": {"href": "/mdr/cdashig/2-1/domains/MS", "title": "Microbiology Susceptibility Test", "type": "CDASH Domain"}, "parentProduct": {"href": "/mdr/cdashig/2-1", "title": "Clinical Data Acquisition Standards Harmonization Implementation Guide for Human Clinical Trials Version 2.1", "type": "Implementation Guide"}, "parentScenario": {"href": "/mdr/cdashig/2-1/scenarios/MS.LocalProcessing", "title": "Local Processing", "type": "CDASH Scenario"}, "rootItem": {"href": "/mdr/root/cdashig/scenarios/MS.LocalProcessing/fields/MSCONCU", "title": "Version-agnostic anchor element for scenario field MS.LocalProcessing.MSCONCU", "type": "Root Data Element"}, "sdtmigDatasetMappingTargets": [{"href": "/mdr/sdtmig/3-2/datasets/SUPPQUAL/variables/QVAL", "title": "Data Value", "type": "SDTM Dataset Variable"}], "self": {"href": "/mdr/cdashig/2-1/scenarios/MS.LocalProcessing/fields/MSCONCU", "title": "MS Agent Concentration Unit", "type": "Data Collection Field"}}, "completionInstructions": "Record the concentration unit of the agent.", "core": "O", "definition": "The concentration unit of the agent for which resistance is tested.", "implementationNotes": "These variables were added as core SDTM variables in SDTMIG v3.3.", "label": "MS Agent Concentration Unit", "mappingInstructions": "This does not map directly to an SDTMIG variable. This information could be submitted in a SUPPMS dataset as the value of SUPPMS.QVAL where SUPPMS.QNAM=\"MSCONCU\" and SUPPMS.QLABEL=\"MS Agent Concentration Unit\". Refer to the current SDTM and SDTMIG for instructions on placement of non-standard variables in SDTM domains.", "name": "MSCONCU", "ordinal": "31", "prompt": "Agent Concentration Unit", "questionText": "What was the agent concentration unit?", "simpleDatatype": "Char"}], "ordinal": "14", "scenario": "Local Processing"}
