{"_links": {"parentClass": {"href": "/mdr/cdashig/2-1/classes/Findings", "title": "Findings", "type": "Class"}, "parentDomain": {"href": "/mdr/cdashig/2-1/domains/VS", "title": "Vital Signs", "type": "CDASH Domain"}, "parentProduct": {"href": "/mdr/cdashig/2-1", "title": "Clinical Data Acquisition Standards Harmonization Implementation Guide for Human Clinical Trials Version 2.1", "type": "Implementation Guide"}, "priorVersion": {"href": "/mdr/cdashig/2-0/scenarios/VS.HorizontalGeneric", "title": "VS - Implementation Options: Horizontal-Generic", "type": "CDASH Scenario"}, "self": {"href": "/mdr/cdashig/2-1/scenarios/VS.HorizontalGeneric", "title": "VS - Implementation Options: HorizontalGeneric", "type": "CDASH Scenario"}}, "domain": "Vital Signs", "domainName": "VS", "fields": [{"_links": {"parentDomain": {"href": "/mdr/cdashig/2-1/domains/VS", "title": "Vital Signs", "type": "CDASH Domain"}, "parentProduct": {"href": "/mdr/cdashig/2-1", "title": "Clinical Data Acquisition Standards Harmonization Implementation Guide for Human Clinical Trials Version 2.1", "type": "Implementation Guide"}, "parentScenario": {"href": "/mdr/cdashig/2-1/scenarios/VS.HorizontalGeneric", "title": "VS - Implementation Options: HorizontalGeneric", "type": "CDASH Scenario"}, "priorVersion": {"href": "/mdr/cdashig/2-0/scenarios/VS.Generic/fields/STUDYID", "title": "Study Identifier", "type": "Data Collection Field"}, "rootItem": {"href": "/mdr/root/cdashig/scenarios/VS.Generic/fields/STUDYID", "title": "Version-agnostic anchor element for scenario field VS.Generic.STUDYID", "type": "Root Data Element"}, "sdtmigDatasetMappingTargets": [{"href": "/mdr/sdtmig/3-2/datasets/VS/variables/STUDYID", "title": "Study Identifier", "type": "SDTM Dataset Variable"}], "self": {"href": "/mdr/cdashig/2-1/scenarios/VS.Generic/fields/STUDYID", "title": "Study Identifier", "type": "Data Collection Field"}}, "core": "HR", "definition": "A unique identifier for a study.", "implementationNotes": "While this field is not typically captured on a CRF, it should be displayed clearly on the CRF and/or the EDC system. This field can be included into the database or populated during SDTM-based dataset creation before submission.", "label": "Study Identifier", "mappingInstructions": "Maps directly to the SDTMIG variable listed in the column with the heading SDTMIG Target.", "name": "STUDYID", "ordinal": "1", "prompt": "[Protocol/Study]", "questionText": "What is the study identifier?", "simpleDatatype": "Char"}, {"_links": {"parentDomain": {"href": "/mdr/cdashig/2-1/domains/VS", "title": "Vital Signs", "type": "CDASH Domain"}, "parentProduct": {"href": "/mdr/cdashig/2-1", "title": "Clinical Data Acquisition Standards Harmonization Implementation Guide for Human Clinical Trials Version 2.1", "type": "Implementation Guide"}, "parentScenario": {"href": "/mdr/cdashig/2-1/scenarios/VS.HorizontalGeneric", "title": "VS - Implementation Options: HorizontalGeneric", "type": "CDASH Scenario"}, "priorVersion": {"href": "/mdr/cdashig/2-0/scenarios/VS.Generic/fields/SITEID", "title": "Study Site Identifier", "type": "Data Collection Field"}, "rootItem": {"href": "/mdr/root/cdashig/scenarios/VS.Generic/fields/SITEID", "title": "Version-agnostic anchor element for scenario field VS.Generic.SITEID", "type": "Root Data Element"}, "sdtmigDatasetMappingTargets": [{"href": "/mdr/sdtmig/3-2/datasets/DM/variables/SITEID", "title": "Study Site Identifier", "type": "SDTM Dataset Variable"}], "self": {"href": "/mdr/cdashig/2-1/scenarios/VS.Generic/fields/SITEID", "title": "Study Site Identifier", "type": "Data Collection Field"}}, "core": "HR", "definition": "A unique identifier for a site within a study.", "implementationNotes": "Paper: This is typically preprinted in the header of each CRF page for single site studies. For studies with multiple sites, this field may be left blank so that the number can be recorded by the site, or it may be preprinted on the CRFs that are shipped to each site. EDC: This should be prepopulated.", "label": "Study Site Identifier", "mappingInstructions": "Maps directly to the SDTMIG variable listed in the column with the heading SDTMIG Target.", "name": "SITEID", "ordinal": "2", "prompt": "Site (Identifier)", "questionText": "What is the site identifier?", "simpleDatatype": "Char"}, {"_links": {"parentDomain": {"href": "/mdr/cdashig/2-1/domains/VS", "title": "Vital Signs", "type": "CDASH Domain"}, "parentProduct": {"href": "/mdr/cdashig/2-1", "title": "Clinical Data Acquisition Standards Harmonization Implementation Guide for Human Clinical Trials Version 2.1", "type": "Implementation Guide"}, "parentScenario": {"href": "/mdr/cdashig/2-1/scenarios/VS.HorizontalGeneric", "title": "VS - Implementation Options: HorizontalGeneric", "type": "CDASH Scenario"}, "priorVersion": {"href": "/mdr/cdashig/2-0/scenarios/VS.Generic/fields/SUBJID", "title": "Subject Identifier for the Study", "type": "Data Collection Field"}, "rootItem": {"href": "/mdr/root/cdashig/scenarios/VS.Generic/fields/SUBJID", "title": "Version-agnostic anchor element for scenario field VS.Generic.SUBJID", "type": "Root Data Element"}, "sdtmigDatasetMappingTargets": [{"href": "/mdr/sdtmig/3-2/datasets/DM/variables/SUBJID", "title": "Subject Identifier for the Study", "type": "SDTM Dataset Variable"}], "self": {"href": "/mdr/cdashig/2-1/scenarios/VS.Generic/fields/SUBJID", "title": "Subject Identifier for the Study", "type": "Data Collection Field"}}, "completionInstructions": "Record the identifier for the subject.", "core": "HR", "definition": "A unique subject identifier within a site and a study.", "implementationNotes": "Paper: This is typically recorded in the header of each CRF page. EDC: The subject identifiers may be system generated. This CDASH variable is typically collected in all CDASH domains. However, this CDASH variable is populated only in the SDTMIG DM domain. For more information, refer to the SDTM Implementation Guide.", "label": "Subject Identifier for the Study", "mappingInstructions": "Maps directly to the SDTMIG variable listed in the column with the heading SDTMIG Target.", "name": "SUBJID", "ordinal": "3", "prompt": "[Subject/Participant] (Identifier)", "questionText": "What [is/was] the (study) [subject/participant] identifier?", "simpleDatatype": "Char"}, {"_links": {"parentDomain": {"href": "/mdr/cdashig/2-1/domains/VS", "title": "Vital Signs", "type": "CDASH Domain"}, "parentProduct": {"href": "/mdr/cdashig/2-1", "title": "Clinical Data Acquisition Standards Harmonization Implementation Guide for Human Clinical Trials Version 2.1", "type": "Implementation Guide"}, "parentScenario": {"href": "/mdr/cdashig/2-1/scenarios/VS.HorizontalGeneric", "title": "VS - Implementation Options: HorizontalGeneric", "type": "CDASH Scenario"}, "priorVersion": {"href": "/mdr/cdashig/2-0/scenarios/VS.Generic/fields/VISIT", "title": "Visit Name", "type": "Data Collection Field"}, "rootItem": {"href": "/mdr/root/cdashig/scenarios/VS.Generic/fields/VISIT", "title": "Version-agnostic anchor element for scenario field VS.Generic.VISIT", "type": "Root Data Element"}, "sdtmigDatasetMappingTargets": [{"href": "/mdr/sdtmig/3-2/datasets/VS/variables/VISIT", "title": "Visit Name", "type": "SDTM Dataset Variable"}], "self": {"href": "/mdr/cdashig/2-1/scenarios/VS.Generic/fields/VISIT", "title": "Visit Name", "type": "Data Collection Field"}}, "core": "R/C", "definition": "The name of a clinical encounter that encompasses planned and unplanned trial interventions, procedures, and assessments that may be performed on a subject.", "implementationNotes": "This CDASH variable is typically collected in all CDASH domains. However, this CDASH variable is represented only in the SDTMIG DM domain. For more information, refer to SDTM Table 2.2.4.", "label": "Visit Name", "mappingInstructions": "Maps directly to the SDTMIG variable listed in the column with the heading SDTMIG Target.", "name": "VISIT", "ordinal": "4", "prompt": "[Visit]", "questionText": "What is the visit name?", "simpleDatatype": "Char"}, {"_links": {"parentDomain": {"href": "/mdr/cdashig/2-1/domains/VS", "title": "Vital Signs", "type": "CDASH Domain"}, "parentProduct": {"href": "/mdr/cdashig/2-1", "title": "Clinical Data Acquisition Standards Harmonization Implementation Guide for Human Clinical Trials Version 2.1", "type": "Implementation Guide"}, "parentScenario": {"href": "/mdr/cdashig/2-1/scenarios/VS.HorizontalGeneric", "title": "VS - Implementation Options: HorizontalGeneric", "type": "CDASH Scenario"}, "priorVersion": {"href": "/mdr/cdashig/2-0/scenarios/VS.Generic/fields/VISDAT", "title": "Visit Date", "type": "Data Collection Field"}, "rootItem": {"href": "/mdr/root/cdashig/scenarios/VS.Generic/fields/VISDAT", "title": "Version-agnostic anchor element for scenario field VS.Generic.VISDAT", "type": "Root Data Element"}, "self": {"href": "/mdr/cdashig/2-1/scenarios/VS.Generic/fields/VISDAT", "title": "Visit Date", "type": "Data Collection Field"}}, "completionInstructions": "Record the [date/start date] of the visit using DD-MON-YYYY format.", "core": "R/C", "definition": "Date the clinical encounter occurred (or started).", "implementationNotes": "The date the VS measurements were collected can be determined from the Visit Date variable (VISDAT) and applying that date to all of the observations at that visit, or the collection date can be included on the VS CRF using the Vital Signs Date (VSDAT) field.", "label": "Visit Date", "mappingInstructions": "This field is not an SDTM variable. The date of a measurement, test, observation can be determined from the date/time of visit (VISDAT/VISTIM) and then concatenating the CDASH VISDAT/VISTIM components and populating the SDTMIG variable VSDTC in ISO 8601 format.", "name": "VISDAT", "ordinal": "5", "prompt": "(Visit) Date", "questionText": "What [is/was] the date of the visit?", "simpleDatatype": "Char"}, {"_links": {"codelist": [{"href": "/mdr/root/ct/sdtmct/codelists/C66742", "title": "Version-agnostic anchor resource for codelist C66742", "type": "Root Value Domain"}], "parentDomain": {"href": "/mdr/cdashig/2-1/domains/VS", "title": "Vital Signs", "type": "CDASH Domain"}, "parentProduct": {"href": "/mdr/cdashig/2-1", "title": "Clinical Data Acquisition Standards Harmonization Implementation Guide for Human Clinical Trials Version 2.1", "type": "Implementation Guide"}, "parentScenario": {"href": "/mdr/cdashig/2-1/scenarios/VS.HorizontalGeneric", "title": "VS - Implementation Options: HorizontalGeneric", "type": "CDASH Scenario"}, "priorVersion": {"href": "/mdr/cdashig/2-0/scenarios/VS.Generic/fields/VSPERF", "title": "Vital Signs Performed", "type": "Data Collection Field"}, "rootItem": {"href": "/mdr/root/cdashig/scenarios/VS.Generic/fields/VSPERF", "title": "Version-agnostic anchor element for scenario field VS.Generic.VSPERF", "type": "Root Data Element"}, "sdtmigDatasetMappingTargets": [{"href": "/mdr/sdtmig/3-2/datasets/VS/variables/VSSTAT", "title": "Completion Status", "type": "SDTM Dataset Variable"}], "self": {"href": "/mdr/cdashig/2-1/scenarios/VS.Generic/fields/VSPERF", "title": "Vital Signs Performed", "type": "Data Collection Field"}}, "completionInstructions": "Indicate if the vital signs were collected. If yes, include the appropriate details where indicated on the CRF.", "core": "O", "definition": "An indication whether or not a planned vital signs measurement, series of vital signs measurements, tests, or observations was performed.", "implementationNotes": "This general prompt question is used as a data management tool to verify that missing results are confirmed missing. This may be implemented for all tests collected on the same horizontal record or for each specific test. When mapped to SDTM, the value of VSPERF would apply to all tests on the same record. Use the CDASH variable [VSTESTCD]_VSPERF when implemented on a specific test basis.", "label": "Vital Signs Performed", "mappingInstructions": "This does not map directly to an SDTMIG variable. May be used to derive a value into the SDTM variable VSSTAT. If VSPERF=\"N\", the value of VSSTAT will be \"NOT DONE\". If VSPERF=\"Y\", VSSTAT should be null. A combination of SDTMIG variables (e.g., VSCAT and VSSCAT, VSTPT) is used to indicate that multiple tests were not done. In this situation, the SDTMIG variable VSTESTCD would be populated as VSALL and an appropriate test name (VSTEST) provided. See SDTMIG v3.2 Section 4.1.5.1.2.", "name": "[VSTESTCD]_VSPERF", "ordinal": "6", "prompt": "Vital Signs Performed ; [VSTEST] Performed", "questionText": "Were [vital signs/[VSTEST] performed?", "simpleDatatype": "Char"}, {"_links": {"parentDomain": {"href": "/mdr/cdashig/2-1/domains/VS", "title": "Vital Signs", "type": "CDASH Domain"}, "parentProduct": {"href": "/mdr/cdashig/2-1", "title": "Clinical Data Acquisition Standards Harmonization Implementation Guide for Human Clinical Trials Version 2.1", "type": "Implementation Guide"}, "parentScenario": {"href": "/mdr/cdashig/2-1/scenarios/VS.HorizontalGeneric", "title": "VS - Implementation Options: HorizontalGeneric", "type": "CDASH Scenario"}, "priorVersion": {"href": "/mdr/cdashig/2-0/scenarios/VS.Generic/fields/VSDAT", "title": "Vital Signs Date", "type": "Data Collection Field"}, "rootItem": {"href": "/mdr/root/cdashig/scenarios/VS.Generic/fields/VSDAT", "title": "Version-agnostic anchor element for scenario field VS.Generic.VSDAT", "type": "Root Data Element"}, "sdtmigDatasetMappingTargets": [{"href": "/mdr/sdtmig/3-2/datasets/VS/variables/VSDTC", "title": "Date/Time of Measurements", "type": "SDTM Dataset Variable"}], "self": {"href": "/mdr/cdashig/2-1/scenarios/VS.Generic/fields/VSDAT", "title": "Vital Signs Date", "type": "Data Collection Field"}}, "completionInstructions": "Record date of measurements using this format (DD-MON-YYYY).", "core": "R/C", "definition": "The date of the vital signs measurement, represented in an unambiguous date format (e.g., DD-MON-YYYY).", "implementationNotes": "A single date may be collected for all the vital sign measurements when they are performed on the same date. The date of each measurement can also be collected for each measurement using a CDASH variable [VSTESTCD]_VSDAT. The date of the measurements may be determined from a collected date of visit and in such cases a separate measurement date field is not required.", "label": "Vital Signs Date", "mappingInstructions": "This does not map directly to an SDTMIG variable. For the SDTM submission dataset, concatenate all collected CDASH DATE and TIME components and populate the SDTMIG variable VSDTC in ISO 8601 format.", "name": "[VSTESTCD]_VSDAT", "ordinal": "7", "prompt": "[VSTEST] Date", "questionText": "What was the date of the measurement(s)?", "simpleDatatype": "Char"}, {"_links": {"parentDomain": {"href": "/mdr/cdashig/2-1/domains/VS", "title": "Vital Signs", "type": "CDASH Domain"}, "parentProduct": {"href": "/mdr/cdashig/2-1", "title": "Clinical Data Acquisition Standards Harmonization Implementation Guide for Human Clinical Trials Version 2.1", "type": "Implementation Guide"}, "parentScenario": {"href": "/mdr/cdashig/2-1/scenarios/VS.HorizontalGeneric", "title": "VS - Implementation Options: HorizontalGeneric", "type": "CDASH Scenario"}, "priorVersion": {"href": "/mdr/cdashig/2-0/scenarios/VS.Generic/fields/VSTIM", "title": "Vital Signs Time", "type": "Data Collection Field"}, "rootItem": {"href": "/mdr/root/cdashig/scenarios/VS.Generic/fields/VSTIM", "title": "Version-agnostic anchor element for scenario field VS.Generic.VSTIM", "type": "Root Data Element"}, "sdtmigDatasetMappingTargets": [{"href": "/mdr/sdtmig/3-2/datasets/VS/variables/VSDTC", "title": "Date/Time of Measurements", "type": "SDTM Dataset Variable"}], "self": {"href": "/mdr/cdashig/2-1/scenarios/VS.Generic/fields/VSTIM", "title": "Vital Signs Time", "type": "Data Collection Field"}}, "completionInstructions": "Record time of measurement (as complete as possible).", "core": "R/C", "definition": "The time of measurement, represented in an unambiguous time format (e.g., hh:mm:ss).", "implementationNotes": "A single collection time (e.g., VSTIM) may be collected for all the measurements when they are performed at the same time. The time of each measurement can also be collected using a CDASH variable [VSTESTCD]_VSTIM.", "label": "Vital Signs Time", "mappingInstructions": "This does not map directly to an SDTMIG variable. For the SDTM submission dataset, concatenate all collected CDASH DATE and TIME components and populate the SDTMIG variable VSDTC in ISO 8601 format.", "name": "[VSTESTCD]_VSTIM", "ordinal": "8", "prompt": "[VSTEST] Time", "questionText": "What was the time of the measurement(s)?", "simpleDatatype": "Char"}, {"_links": {"parentDomain": {"href": "/mdr/cdashig/2-1/domains/VS", "title": "Vital Signs", "type": "CDASH Domain"}, "parentProduct": {"href": "/mdr/cdashig/2-1", "title": "Clinical Data Acquisition Standards Harmonization Implementation Guide for Human Clinical Trials Version 2.1", "type": "Implementation Guide"}, "parentScenario": {"href": "/mdr/cdashig/2-1/scenarios/VS.HorizontalGeneric", "title": "VS - Implementation Options: HorizontalGeneric", "type": "CDASH Scenario"}, "priorVersion": {"href": "/mdr/cdashig/2-0/scenarios/VS.Generic/fields/VSCAT", "title": "Category for Vital Signs", "type": "Data Collection Field"}, "rootItem": {"href": "/mdr/root/cdashig/scenarios/VS.Generic/fields/VSCAT", "title": "Version-agnostic anchor element for scenario field VS.Generic.VSCAT", "type": "Root Data Element"}, "sdtmigDatasetMappingTargets": [{"href": "/mdr/sdtmig/3-2/datasets/VS/variables/VSCAT", "title": "Category for Vital Signs", "type": "SDTM Dataset Variable"}], "self": {"href": "/mdr/cdashig/2-1/scenarios/VS.Generic/fields/VSCAT", "title": "Category for Vital Signs", "type": "Data Collection Field"}}, "completionInstructions": "Record the vital signs category, if not preprinted on the CRF.", "core": "O", "definition": "A grouping of topic-variable values based on user-defined characteristics.", "implementationNotes": "Sponsor-defined controlled terminology. This would most commonly be either a heading, or a preprinted category value on the CRF and not a question to which the site would provide an answer. If a question is asked, the response would typically be a sponsor-defined codelist. If the form is laid out as a grid, then words such as \"Category\" can be included as the column header.", "label": "Category for Vital Signs", "mappingInstructions": "Maps directly to the SDTMIG variable listed in the column with the heading SDTMIG Target.", "name": "VSCAT", "ordinal": "9", "prompt": "[Vital Signs Category]; NULL", "questionText": "What was the category of the vital signs?", "simpleDatatype": "Char"}, {"_links": {"parentDomain": {"href": "/mdr/cdashig/2-1/domains/VS", "title": "Vital Signs", "type": "CDASH Domain"}, "parentProduct": {"href": "/mdr/cdashig/2-1", "title": "Clinical Data Acquisition Standards Harmonization Implementation Guide for Human Clinical Trials Version 2.1", "type": "Implementation Guide"}, "parentScenario": {"href": "/mdr/cdashig/2-1/scenarios/VS.HorizontalGeneric", "title": "VS - Implementation Options: HorizontalGeneric", "type": "CDASH Scenario"}, "priorVersion": {"href": "/mdr/cdashig/2-0/scenarios/VS.Generic/fields/VSSCAT", "title": "Subcategory for Vital Signs", "type": "Data Collection Field"}, "rootItem": {"href": "/mdr/root/cdashig/scenarios/VS.Generic/fields/VSSCAT", "title": "Version-agnostic anchor element for scenario field VS.Generic.VSSCAT", "type": "Root Data Element"}, "sdtmigDatasetMappingTargets": [{"href": "/mdr/sdtmig/3-2/datasets/VS/variables/VSSCAT", "title": "Subcategory for Vital Signs", "type": "SDTM Dataset Variable"}], "self": {"href": "/mdr/cdashig/2-1/scenarios/VS.Generic/fields/VSSCAT", "title": "Subcategory for Vital Signs", "type": "Data Collection Field"}}, "completionInstructions": "Record the vital signs subcategory, if not preprinted on the CRF.", "core": "O", "definition": "A sub-division of the VSCAT values based on user-defined characteristics.", "implementationNotes": "Sponsor-defined controlled terminology. This would most commonly be either a heading, or a preprinted category value on the CRF and not a question to which the site would provide an answer. If a question is asked, the response would typically be a sponsor-defined codelist. If the form is laid out as a grid, then words such as \"Subcategory\" can be included as the column header. VSSCAT can only be used if there is a VSCAT and it must be a subcategorization of VSCAT.", "label": "Subcategory for Vital Signs", "mappingInstructions": "Maps directly to the SDTMIG variable listed in the column with the heading SDTMIG Target.", "name": "VSSCAT", "ordinal": "10", "prompt": "[Vital Signs Subcategory]; NULL", "questionText": "What was the subcategory of the vital signs?", "simpleDatatype": "Char"}, {"_links": {"parentDomain": {"href": "/mdr/cdashig/2-1/domains/VS", "title": "Vital Signs", "type": "CDASH Domain"}, "parentProduct": {"href": "/mdr/cdashig/2-1", "title": "Clinical Data Acquisition Standards Harmonization Implementation Guide for Human Clinical Trials Version 2.1", "type": "Implementation Guide"}, "parentScenario": {"href": "/mdr/cdashig/2-1/scenarios/VS.HorizontalGeneric", "title": "VS - Implementation Options: HorizontalGeneric", "type": "CDASH Scenario"}, "priorVersion": {"href": "/mdr/cdashig/2-0/scenarios/VS.Generic/fields/VSGRPID", "title": "Vital Signs Group ID", "type": "Data Collection Field"}, "rootItem": {"href": "/mdr/root/cdashig/scenarios/VS.Generic/fields/VSGRPID", "title": "Version-agnostic anchor element for scenario field VS.Generic.VSGRPID", "type": "Root Data Element"}, "sdtmigDatasetMappingTargets": [{"href": "/mdr/sdtmig/3-2/datasets/VS/variables/VSGRPID", "title": "Group ID", "type": "SDTM Dataset Variable"}], "self": {"href": "/mdr/cdashig/2-1/scenarios/VS.Generic/fields/VSGRPID", "title": "Vital Signs Group ID", "type": "Data Collection Field"}}, "completionInstructions": "Record unique group identifier. Sponsor may insert additional instructions to ensure each record has a unique group identifier.", "core": "O", "definition": "A sponsor-defined identifier used to tie a block of related records in a single domain.", "implementationNotes": "It can be beneficial to use an identifier in a data query to communicate clearly to the site the specific record in question. This group identifier ties together all the tests collected on the same horizontal record. This field may be populated by the sponsor's data collection system.", "label": "Vital Signs Group ID", "mappingInstructions": "Maps directly to the SDTMIG variable listed in the column with the heading SDTMIG Target.", "name": "VSGRPID", "ordinal": "11", "prompt": "Test Group ID", "questionText": "What is the vital signs group identifier?", "simpleDatatype": "Char"}, {"_links": {"parentDomain": {"href": "/mdr/cdashig/2-1/domains/VS", "title": "Vital Signs", "type": "CDASH Domain"}, "parentProduct": {"href": "/mdr/cdashig/2-1", "title": "Clinical Data Acquisition Standards Harmonization Implementation Guide for Human Clinical Trials Version 2.1", "type": "Implementation Guide"}, "parentScenario": {"href": "/mdr/cdashig/2-1/scenarios/VS.HorizontalGeneric", "title": "VS - Implementation Options: HorizontalGeneric", "type": "CDASH Scenario"}, "priorVersion": {"href": "/mdr/cdashig/2-0/scenarios/VS.Generic/fields/VSTPT", "title": "Vital Signs Planned Time Point Name", "type": "Data Collection Field"}, "rootItem": {"href": "/mdr/root/cdashig/scenarios/VS.Generic/fields/VSTPT", "title": "Version-agnostic anchor element for scenario field VS.Generic.VSTPT", "type": "Root Data Element"}, "sdtmigDatasetMappingTargets": [{"href": "/mdr/sdtmig/3-2/datasets/VS/variables/VSTPT", "title": "Planned Time Point Name", "type": "SDTM Dataset Variable"}], "self": {"href": "/mdr/cdashig/2-1/scenarios/VS.Generic/fields/VSTPT", "title": "Vital Signs Planned Time Point Name", "type": "Data Collection Field"}}, "completionInstructions": "Record the planned time point labels for vital signs, if not preprinted on the CRF.", "core": "R/C", "definition": "A text description of planned time point when measurements should be taken as defined in the protocol.", "implementationNotes": "Planned time points are needed to differentiate multiple sequential assessments. It is recommended that time points should be preprinted on the CRF rather than collected in a field that requires the site to enter text. If the form is laid out as a grid, then words such as \"Planned Time Point\" can be included as the column header. The planned time point of each measurement can also be collected using a CDASH variable [VSTESTCD]_VSTPT.", "label": "Vital Signs Planned Time Point Name", "mappingInstructions": "Maps directly to the SDTMIG variable listed in the column with the heading SDTMIG Target. See SDTMIG for additional information on representing time points. The SDTMIG time point anchors VSTPTREF (text description) and VSRFTDTC (date/time) may be needed, as well as SDTMIG variables VSTPTNUM, VSELTM.", "name": "[VSTESTCD]_VSTPT", "ordinal": "12", "prompt": "[Planned Time Point Name]", "questionText": "What is the planned time point for this vital signs measurement?", "simpleDatatype": "Char"}, {"_links": {"codelist": [{"href": "/mdr/root/ct/sdtmct/codelists/C66789", "title": "Version-agnostic anchor resource for codelist C66789", "type": "Root Value Domain"}], "parentDomain": {"href": "/mdr/cdashig/2-1/domains/VS", "title": "Vital Signs", "type": "CDASH Domain"}, "parentProduct": {"href": "/mdr/cdashig/2-1", "title": "Clinical Data Acquisition Standards Harmonization Implementation Guide for Human Clinical Trials Version 2.1", "type": "Implementation Guide"}, "parentScenario": {"href": "/mdr/cdashig/2-1/scenarios/VS.HorizontalGeneric", "title": "VS - Implementation Options: HorizontalGeneric", "type": "CDASH Scenario"}, "priorVersion": {"href": "/mdr/cdashig/2-0/scenarios/VS.Generic/fields/VSSTAT", "title": "Vital Signs Completion Status", "type": "Data Collection Field"}, "rootItem": {"href": "/mdr/root/cdashig/scenarios/VS.Generic/fields/VSSTAT", "title": "Version-agnostic anchor element for scenario field VS.Generic.VSSTAT", "type": "Root Data Element"}, "sdtmigDatasetMappingTargets": [{"href": "/mdr/sdtmig/3-2/datasets/VS/variables/VSSTAT", "title": "Completion Status", "type": "SDTM Dataset Variable"}], "self": {"href": "/mdr/cdashig/2-1/scenarios/VS.Generic/fields/VSSTAT", "title": "Vital Signs Completion Status", "type": "Data Collection Field"}}, "completionInstructions": "Indicate if the vital signs measurement was not done.", "core": "O", "definition": "The variable used to indicate that data are not available by having the site recording the value as \"Not Done\".", "implementationNotes": "A single \"Not Done\" can be collected once for all the tests on the same horizontal record using VSSTAT. The value of VSSTAT applies to all measurements on that record when mapped to SDTM. If needed, for each test \"NOT DONE\" may be collected using the CDASH variable [VSTESTCD]_VSSTAT.", "label": "Vital Signs Completion Status", "mappingInstructions": "Maps directly to the SDTMIG variable listed in the column with the heading SDTMIG Target.", "name": "[VSTESTCD]_VSSTAT", "ordinal": "13", "prompt": "Not Done", "questionText": "Indicate if the [VSTEST] measurement was not done", "simpleDatatype": "Char"}, {"_links": {"parentDomain": {"href": "/mdr/cdashig/2-1/domains/VS", "title": "Vital Signs", "type": "CDASH Domain"}, "parentProduct": {"href": "/mdr/cdashig/2-1", "title": "Clinical Data Acquisition Standards Harmonization Implementation Guide for Human Clinical Trials Version 2.1", "type": "Implementation Guide"}, "parentScenario": {"href": "/mdr/cdashig/2-1/scenarios/VS.HorizontalGeneric", "title": "VS - Implementation Options: HorizontalGeneric", "type": "CDASH Scenario"}, "priorVersion": {"href": "/mdr/cdashig/2-0/scenarios/VS.Generic/fields/VSORRES", "title": "Vital Signs Result", "type": "Data Collection Field"}, "rootItem": {"href": "/mdr/root/cdashig/scenarios/VS.Generic/fields/VSORRES", "title": "Version-agnostic anchor element for scenario field VS.Generic.VSORRES", "type": "Root Data Element"}, "sdtmigDatasetMappingTargets": [{"href": "/mdr/sdtmig/3-2/datasets/VS/variables/VSTESTCD", "title": "Vital Signs Test Short Name", "type": "SDTM Dataset Variable"}, {"href": "/mdr/sdtmig/3-2/datasets/VS/variables/VSORRES", "title": "Result or Finding in Original Units", "type": "SDTM Dataset Variable"}, {"href": "/mdr/sdtmig/3-2/datasets/VS/variables/VSTEST", "title": "Vital Signs Test Name", "type": "SDTM Dataset Variable"}], "self": {"href": "/mdr/cdashig/2-1/scenarios/VS.Generic/fields/VSORRES", "title": "VS Result or Finding in Original Units", "type": "Data Collection Field"}}, "completionInstructions": "Record the vital sign results.", "core": "HR", "definition": "Result of the vital signs measurement as originally received or collected.", "implementationNotes": "Each test may be collected using the CDASH variable [TESTCD] e.g., SYSBP or [TESTCD]_VSORRES where TESTCD is the appropriate CT for the VS test code e.g., SYSBP_VSORRES. This CDASH variable name is an example of what \"variable name\" can be used in a denormalized data structure.", "label": "VS Result or Finding in Original Units", "mappingInstructions": "Maps directly to the SDTMIG variable listed in the column with the heading SDTMIG Target. In addition to the SDTMIG variable VSORRES, create VSTESTCD from the CDASH variable name and determine the value of VSTEST from VSTESTCD. The CDASH prompt may also contain the VSTEST. Use appropriate CDISC Controlled Terminology for the test and test code.", "name": "[VSTESTCD]_VSORRES", "ordinal": "14", "prompt": "[VSTEST] (Result)", "questionText": "What was the result of the [VSTEST] measurement?", "simpleDatatype": "Char"}, {"_links": {"codelist": [{"href": "/mdr/root/ct/sdtmct/codelists/C66770", "title": "Version-agnostic anchor resource for codelist C66770", "type": "Root Value Domain"}], "parentDomain": {"href": "/mdr/cdashig/2-1/domains/VS", "title": "Vital Signs", "type": "CDASH Domain"}, "parentProduct": {"href": "/mdr/cdashig/2-1", "title": "Clinical Data Acquisition Standards Harmonization Implementation Guide for Human Clinical Trials Version 2.1", "type": "Implementation Guide"}, "parentScenario": {"href": "/mdr/cdashig/2-1/scenarios/VS.HorizontalGeneric", "title": "VS - Implementation Options: HorizontalGeneric", "type": "CDASH Scenario"}, "priorVersion": {"href": "/mdr/cdashig/2-0/scenarios/VS.Generic/fields/VSORRESU", "title": "Vital Signs Result Unit", "type": "Data Collection Field"}, "rootItem": {"href": "/mdr/root/cdashig/scenarios/VS.Generic/fields/VSORRESU", "title": "Version-agnostic anchor element for scenario field VS.Generic.VSORRESU", "type": "Root Data Element"}, "sdtmigDatasetMappingTargets": [{"href": "/mdr/sdtmig/3-2/datasets/VS/variables/VSORRESU", "title": "Original Units", "type": "SDTM Dataset Variable"}], "self": {"href": "/mdr/cdashig/2-1/scenarios/VS.Generic/fields/VSORRESU", "title": "VS Original Units", "type": "Data Collection Field"}}, "completionInstructions": "Record or select the original unit in which these data were collected, if not preprinted on CRF.", "core": "R/C", "definition": "The unit of the result as originally received or collected.", "implementationNotes": "A single Unit field can be collected once for all measurements collected on the same horizontal record using VSUNIT. The value of VSUNIT applies to all measurements on that record when mapped to SDTM. If needed for each measurement, unit may be collected using the CDASH variable [VSTESTCD]_VSSTAT. Should be preprinted on the CRF with the associated test when possible, rather than collected in a field that requires the site to enter text.", "label": "VS Original Units", "mappingInstructions": "Maps directly to the SDTMIG variable listed in the column with the heading SDTMIG Target.", "name": "[VSTESTCD]_VSORRESU", "ordinal": "15", "prompt": "[VSTEST] Unit", "questionText": "What was the unit of the [VSTEST] measurement?", "simpleDatatype": "Char"}, {"_links": {"codelist": [{"href": "/mdr/root/ct/sdtmct/codelists/C66742", "title": "Version-agnostic anchor resource for codelist C66742", "type": "Root Value Domain"}], "parentDomain": {"href": "/mdr/cdashig/2-1/domains/VS", "title": "Vital Signs", "type": "CDASH Domain"}, "parentProduct": {"href": "/mdr/cdashig/2-1", "title": "Clinical Data Acquisition Standards Harmonization Implementation Guide for Human Clinical Trials Version 2.1", "type": "Implementation Guide"}, "parentScenario": {"href": "/mdr/cdashig/2-1/scenarios/VS.HorizontalGeneric", "title": "VS - Implementation Options: HorizontalGeneric", "type": "CDASH Scenario"}, "priorVersion": {"href": "/mdr/cdashig/2-0/scenarios/VS.Generic/fields/VSCLSIG", "title": "Vital Signs Clinical Significance", "type": "Data Collection Field"}, "rootItem": {"href": "/mdr/root/cdashig/scenarios/VS.Generic/fields/VSCLSIG", "title": "Version-agnostic anchor element for scenario field VS.Generic.VSCLSIG", "type": "Root Data Element"}, "sdtmigDatasetMappingTargets": [{"href": "/mdr/sdtmig/3-2/datasets/SUPPQUAL/variables/QVAL", "title": "Data Value", "type": "SDTM Dataset Variable"}], "self": {"href": "/mdr/cdashig/2-1/scenarios/VS.Generic/fields/VSCLSIG", "title": "Vital Signs Clinical Significance", "type": "Data Collection Field"}}, "completionInstructions": "Record whether vital sign result was clinically significant.", "core": "O", "definition": "An indication whether the vital signs results were clinically significant.", "implementationNotes": "In horizontal data collection, a CDASH variable [VSTESTCD]_VSCLSIG may be created for each VSTESTCD and added to the CRF if needed.", "label": "Vital Signs Clinical Significance", "mappingInstructions": "This does not map directly to an SDTMIG variable. This information could be submitted in a SUPPVS dataset as the value of SUPPVS.QVAL where SUPPVS.QNAM = \"VSCLSIG\" and SUPPVS.QLABEL=\"Clinically Significant\". Refer to the current SDTM and SDTMIG for instructions on placement of non-standard variables in SDTM domains.", "name": "[VSTESTCD]_VSCLSIG", "ordinal": "16", "prompt": "[VSTEST] Clinically Significant", "questionText": "Was the [VSTEST] result clinically significant?", "simpleDatatype": "Char"}, {"_links": {"codelist": [{"href": "/mdr/root/ct/sdtmct/codelists/C71148", "title": "Version-agnostic anchor resource for codelist C71148", "type": "Root Value Domain"}, {"href": "/mdr/root/ct/cdashct/codelists/C78431", "title": "Version-agnostic anchor resource for codelist C78431", "type": "Root Value Domain"}], "parentDomain": {"href": "/mdr/cdashig/2-1/domains/VS", "title": "Vital Signs", "type": "CDASH Domain"}, "parentProduct": {"href": "/mdr/cdashig/2-1", "title": "Clinical Data Acquisition Standards Harmonization Implementation Guide for Human Clinical Trials Version 2.1", "type": "Implementation Guide"}, "parentScenario": {"href": "/mdr/cdashig/2-1/scenarios/VS.HorizontalGeneric", "title": "VS - Implementation Options: HorizontalGeneric", "type": "CDASH Scenario"}, "priorVersion": {"href": "/mdr/cdashig/2-0/scenarios/VS.Generic/fields/VSPOS", "title": "Vital Signs Position of Subject", "type": "Data Collection Field"}, "rootItem": {"href": "/mdr/root/cdashig/scenarios/VS.Generic/fields/VSPOS", "title": "Version-agnostic anchor element for scenario field VS.Generic.VSPOS", "type": "Root Data Element"}, "sdtmigDatasetMappingTargets": [{"href": "/mdr/sdtmig/3-2/datasets/VS/variables/VSPOS", "title": "Vital Signs Position of Subject", "type": "SDTM Dataset Variable"}], "self": {"href": "/mdr/cdashig/2-1/scenarios/VS.Generic/fields/VSPOS", "title": "Vital Signs Position of Subject", "type": "Data Collection Field"}}, "completionInstructions": "Record the position of subject at time of test (e.g. SITTING).", "core": "R/C", "definition": "The position of the subject during a measurement or examination.", "implementationNotes": "Results may be affected by whether conditions for vital signs as specified in the protocol were properly met. One common condition is the subject's position. If the protocol requires this type of information, then a CDASH variable [VSTESTCD]_VSPOS may be created for each VSTESTCD and added to the CRF, if needed.", "label": "Vital Signs Position of Subject", "mappingInstructions": "Maps directly to the SDTMIG variable listed in the column with the heading SDTMIG Target.", "name": "[VSTESTCD]_VSPOS", "ordinal": "17", "prompt": "[VSTEST] Position", "questionText": "What was the position of the subject during the [VSTEST] measurement?", "simpleDatatype": "Char"}, {"_links": {"codelist": [{"href": "/mdr/root/ct/sdtmct/codelists/C74456", "title": "Version-agnostic anchor resource for codelist C74456", "type": "Root Value Domain"}], "parentDomain": {"href": "/mdr/cdashig/2-1/domains/VS", "title": "Vital Signs", "type": "CDASH Domain"}, "parentProduct": {"href": "/mdr/cdashig/2-1", "title": "Clinical Data Acquisition Standards Harmonization Implementation Guide for Human Clinical Trials Version 2.1", "type": "Implementation Guide"}, "parentScenario": {"href": "/mdr/cdashig/2-1/scenarios/VS.HorizontalGeneric", "title": "VS - Implementation Options: HorizontalGeneric", "type": "CDASH Scenario"}, "priorVersion": {"href": "/mdr/cdashig/2-0/scenarios/VS.Generic/fields/VSLOC", "title": "Vital Signs Location", "type": "Data Collection Field"}, "rootItem": {"href": "/mdr/root/cdashig/scenarios/VS.Generic/fields/VSLOC", "title": "Version-agnostic anchor element for scenario field VS.Generic.VSLOC", "type": "Root Data Element"}, "sdtmigDatasetMappingTargets": [{"href": "/mdr/sdtmig/3-2/datasets/VS/variables/VSLOC", "title": "Location of Vital Signs Measurement", "type": "SDTM Dataset Variable"}], "self": {"href": "/mdr/cdashig/2-1/scenarios/VS.Generic/fields/VSLOC", "title": "Location of Vital Signs Measurement", "type": "Data Collection Field"}}, "completionInstructions": "Record or select location on body where measurement was performed, if not preprinted on CRF.", "core": "O", "definition": "A description of the anatomical location of the subject relevant to the collection of Vital Signs measurement.", "implementationNotes": "Collected or preprinted when the sponsor needs to identify the specific anatomical location (e.g., ARM for blood pressure). Sponsors may collect the data using a subset list of controlled terminology on the CRF. In horizontal data collection, a CDASH variable [VSTESTCD]_VSLOC may be created for each VSTESTCD and added to the CRF, if needed. LAT, DIR, and PORTOT are used to further describe the anatomical location.", "label": "Location of Vital Signs Measurement", "mappingInstructions": "Maps directly to the SDTMIG variable listed in the column with the heading SDTMIG Target.", "name": "[VSTESTCD]_VSLOC", "ordinal": "18", "prompt": "[VSTEST] Anatomical Location", "questionText": "What was the anatomical location where the [VSTEST] measurement was taken?", "simpleDatatype": "Char"}, {"_links": {"codelist": [{"href": "/mdr/root/ct/sdtmct/codelists/C99073", "title": "Version-agnostic anchor resource for codelist C99073", "type": "Root Value Domain"}], "parentDomain": {"href": "/mdr/cdashig/2-1/domains/VS", "title": "Vital Signs", "type": "CDASH Domain"}, "parentProduct": {"href": "/mdr/cdashig/2-1", "title": "Clinical Data Acquisition Standards Harmonization Implementation Guide for Human Clinical Trials Version 2.1", "type": "Implementation Guide"}, "parentScenario": {"href": "/mdr/cdashig/2-1/scenarios/VS.HorizontalGeneric", "title": "VS - Implementation Options: HorizontalGeneric", "type": "CDASH Scenario"}, "priorVersion": {"href": "/mdr/cdashig/2-0/scenarios/VS.Generic/fields/VSLAT", "title": "Vital Signs Laterality", "type": "Data Collection Field"}, "rootItem": {"href": "/mdr/root/cdashig/scenarios/VS.Generic/fields/VSLAT", "title": "Version-agnostic anchor element for scenario field VS.Generic.VSLAT", "type": "Root Data Element"}, "sdtmigDatasetMappingTargets": [{"href": "/mdr/sdtmig/3-2/datasets/VS/variables/VSLAT", "title": "Laterality", "type": "SDTM Dataset Variable"}], "self": {"href": "/mdr/cdashig/2-1/scenarios/VS.Generic/fields/VSLAT", "title": "Vital Signs Laterality", "type": "Data Collection Field"}}, "completionInstructions": "Record the side of the anatomical location of the vital signs measurement.", "core": "O", "definition": "Qualifier for anatomical location further detailing the side of the body.", "implementationNotes": "May be preprinted or collected when the sponsor needs to identify the specific side of the anatomical location. Sponsors may collect the data using a subset list of controlled terminology on the CRF.", "label": "Vital Signs Laterality", "mappingInstructions": "Maps directly to the SDTMIG variable listed in the column with the heading SDTMIG Target.", "name": "[VSTESTCD]_VSLAT", "ordinal": "19", "prompt": "Side", "questionText": "What was the side of the anatomical location of the [VSTEST] measurement?", "simpleDatatype": "Char"}], "ordinal": "19", "scenario": "VS - Implementation Options: HorizontalGeneric"}
