{"_links": {"parentProduct": {"href": "/mdr/sdtm/2-0", "title": "Study Data Tabulation Model Version 2.0", "type": "Foundational Model"}, "priorVersion": {"href": "/mdr/sdtm/1-8/classes/GeneralObservations", "title": "General Observation Class", "type": "Class"}, "self": {"href": "/mdr/sdtm/2-0/classes/GeneralObservations", "title": "General Observations", "type": "Class"}, "subclasses": [{"href": "/mdr/sdtm/2-0/classes/Interventions", "title": "Interventions", "type": "Class"}, {"href": "/mdr/sdtm/2-0/classes/Events", "title": "Events", "type": "Class"}, {"href": "/mdr/sdtm/2-0/classes/Findings", "title": "Findings", "type": "Class"}]}, "classVariables": [{"_links": {"parentClass": {"href": "/mdr/sdtm/2-0/classes/GeneralObservations", "title": "General Observations", "type": "Class"}, "parentProduct": {"href": "/mdr/sdtm/2-0", "title": "Study Data Tabulation Model Version 2.0", "type": "Foundational Model"}, "priorVersion": {"href": "/mdr/sdtm/1-8/classes/GeneralObservations/variables/STUDYID", "title": "Study Identifier", "type": "Class Variable"}, "rootItem": {"href": "/mdr/root/sdtm/classes/GeneralObservations/variables/STUDYID", "title": "Version-agnostic anchor resource for SDTM variable GeneralObservations.STUDYID", "type": "Root Data Element"}, "self": {"href": "/mdr/sdtm/2-0/classes/GeneralObservations/variables/STUDYID", "title": "Study Identifier", "type": "SDTM Class Variable"}}, "definition": "A sequence of characters used by the sponsor to uniquely identify the study.", "label": "Study Identifier", "name": "STUDYID", "ordinal": "1", "role": "Identifier", "simpleDatatype": "Char", "variableCcode": "C83082"}, {"_links": {"parentClass": {"href": "/mdr/sdtm/2-0/classes/GeneralObservations", "title": "General Observations", "type": "Class"}, "parentProduct": {"href": "/mdr/sdtm/2-0", "title": "Study Data Tabulation Model Version 2.0", "type": "Foundational Model"}, "priorVersion": {"href": "/mdr/sdtm/1-8/classes/GeneralObservations/variables/DOMAIN", "title": "Domain Abbreviation", "type": "Class Variable"}, "rootItem": {"href": "/mdr/root/sdtm/classes/GeneralObservations/variables/DOMAIN", "title": "Version-agnostic anchor resource for SDTM variable GeneralObservations.DOMAIN", "type": "Root Data Element"}, "self": {"href": "/mdr/sdtm/2-0/classes/GeneralObservations/variables/DOMAIN", "title": "Domain Abbreviation", "type": "SDTM Class Variable"}}, "definition": "An abbreviation for a collection of observations, with a topic-specific commonality.", "label": "Domain Abbreviation", "name": "DOMAIN", "notes": "2-character abbreviation. The domain abbreviation is also used as a prefix for variables to ensure uniqueness when datasets are merged.", "ordinal": "2", "role": "Identifier", "simpleDatatype": "Char", "variableCcode": "C49558"}, {"_links": {"parentClass": {"href": "/mdr/sdtm/2-0/classes/GeneralObservations", "title": "General Observations", "type": "Class"}, "parentProduct": {"href": "/mdr/sdtm/2-0", "title": "Study Data Tabulation Model Version 2.0", "type": "Foundational Model"}, "priorVersion": {"href": "/mdr/sdtm/1-8/classes/GeneralObservations/variables/USUBJID", "title": "Unique Subject Identifier", "type": "Class Variable"}, "rootItem": {"href": "/mdr/root/sdtm/classes/GeneralObservations/variables/USUBJID", "title": "Version-agnostic anchor resource for SDTM variable GeneralObservations.USUBJID", "type": "Root Data Element"}, "self": {"href": "/mdr/sdtm/2-0/classes/GeneralObservations/variables/USUBJID", "title": "Unique Subject Identifier", "type": "SDTM Class Variable"}}, "definition": "A sequence of characters used to uniquely identify a subject across all studies for all applications or submissions involving the product.", "label": "Unique Subject Identifier", "name": "USUBJID", "ordinal": "3", "role": "Identifier", "simpleDatatype": "Char", "variableCcode": "C69256"}, {"_links": {"parentClass": {"href": "/mdr/sdtm/2-0/classes/GeneralObservations", "title": "General Observations", "type": "Class"}, "parentProduct": {"href": "/mdr/sdtm/2-0", "title": "Study Data Tabulation Model Version 2.0", "type": "Foundational Model"}, "priorVersion": {"href": "/mdr/sdtm/1-8/classes/GeneralObservations/variables/POOLID", "title": "Pool Identifier", "type": "Class Variable"}, "rootItem": {"href": "/mdr/root/sdtm/classes/GeneralObservations/variables/POOLID", "title": "Version-agnostic anchor resource for SDTM variable GeneralObservations.POOLID", "type": "Root Data Element"}, "self": {"href": "/mdr/sdtm/2-0/classes/GeneralObservations/variables/POOLID", "title": "Pool Identifier", "type": "SDTM Class Variable"}}, "definition": "A sequence of characters used to uniquely identify a group of subjects that have been pooled together.", "label": "Pool Identifier", "name": "POOLID", "notes": "Used for results that are not assignable to a specific subject.", "ordinal": "4", "role": "Identifier", "simpleDatatype": "Char", "variableCcode": "C117053"}, {"_links": {"parentClass": {"href": "/mdr/sdtm/2-0/classes/GeneralObservations", "title": "General Observations", "type": "Class"}, "parentProduct": {"href": "/mdr/sdtm/2-0", "title": "Study Data Tabulation Model Version 2.0", "type": "Foundational Model"}, "priorVersion": {"href": "/mdr/sdtm/1-8/classes/GeneralObservations/variables/SPDEVID", "title": "Sponsor Device Identifier", "type": "Class Variable"}, "rootItem": {"href": "/mdr/root/sdtm/classes/GeneralObservations/variables/SPDEVID", "title": "Version-agnostic anchor resource for SDTM variable GeneralObservations.SPDEVID", "type": "Root Data Element"}, "self": {"href": "/mdr/sdtm/2-0/classes/GeneralObservations/variables/SPDEVID", "title": "Sponsor Device Identifier", "type": "SDTM Class Variable"}}, "definition": "A sequence of characters used by the sponsor to uniquely identify a specific device.", "label": "Sponsor Device Identifier", "name": "SPDEVID", "ordinal": "5", "role": "Identifier", "simpleDatatype": "Char", "variableCcode": "C117060"}, {"_links": {"parentClass": {"href": "/mdr/sdtm/2-0/classes/GeneralObservations", "title": "General Observations", "type": "Class"}, "parentProduct": {"href": "/mdr/sdtm/2-0", "title": "Study Data Tabulation Model Version 2.0", "type": "Foundational Model"}, "priorVersion": {"href": "/mdr/sdtm/1-8/classes/GeneralObservations/variables/NHOID", "title": "Non-Host Organism Identifier", "type": "Class Variable"}, "rootItem": {"href": "/mdr/root/sdtm/classes/GeneralObservations/variables/NHOID", "title": "Version-agnostic anchor resource for SDTM variable GeneralObservations.NHOID", "type": "Root Data Element"}, "self": {"href": "/mdr/sdtm/2-0/classes/GeneralObservations/variables/NHOID", "title": "Non-Host Organism Identifier", "type": "SDTM Class Variable"}}, "examples": "A/California/7/2009 (H1N1)", "label": "Non-Host Organism Identifier", "name": "NHOID", "notes": "Sponsor-defined identifier for a non-host organism. This variable should be populated with an intuitive name based on the identity of the non-host organism as reported by the lab.", "ordinal": "6", "role": "Identifier", "simpleDatatype": "Char"}, {"_links": {"parentClass": {"href": "/mdr/sdtm/2-0/classes/GeneralObservations", "title": "General Observations", "type": "Class"}, "parentProduct": {"href": "/mdr/sdtm/2-0", "title": "Study Data Tabulation Model Version 2.0", "type": "Foundational Model"}, "priorVersion": {"href": "/mdr/sdtm/1-8/classes/GeneralObservations/variables/FETUSID", "title": "Fetus Identifier", "type": "Class Variable"}, "rootItem": {"href": "/mdr/root/sdtm/classes/GeneralObservations/variables/FETUSID", "title": "Version-agnostic anchor resource for SDTM variable GeneralObservations.FETUSID", "type": "Root Data Element"}, "self": {"href": "/mdr/sdtm/2-0/classes/GeneralObservations/variables/FETUSID", "title": "Fetus Identifier", "type": "SDTM Class Variable"}}, "definition": "A sequence of characters used to uniquely identify a fetus associated with a maternal subject, for a particular prenatal evaluation.", "label": "Fetus Identifier", "name": "FETUSID", "ordinal": "7", "role": "Identifier", "simpleDatatype": "Char", "usageRestrictions": "Not in human clinical trials", "variableCcode": "C170497"}, {"_links": {"parentClass": {"href": "/mdr/sdtm/2-0/classes/GeneralObservations", "title": "General Observations", "type": "Class"}, "parentProduct": {"href": "/mdr/sdtm/2-0", "title": "Study Data Tabulation Model Version 2.0", "type": "Foundational Model"}, "priorVersion": {"href": "/mdr/sdtm/1-8/classes/GeneralObservations/variables/FOCID", "title": "Focus of Study-Specific Interest", "type": "Class Variable"}, "rootItem": {"href": "/mdr/root/sdtm/classes/GeneralObservations/variables/FOCID", "title": "Version-agnostic anchor resource for SDTM variable GeneralObservations.FOCID", "type": "Root Data Element"}, "self": {"href": "/mdr/sdtm/2-0/classes/GeneralObservations/variables/FOCID", "title": "Focus of Study-Specific Interest", "type": "SDTM Class Variable"}}, "examples": "A drug application site (e.g., \"Injection site 1\", \"Biopsy site 1\", \"Treated site 1\"), or a more specific focus (e.g., \"OD\" (right eye), \"Upper left quadrant of the back\")", "label": "Focus of Study-Specific Interest", "name": "FOCID", "notes": "Identification of a focus of study-specific interest on or within a subject or specimen as called out in the protocol for which a measurement, test, or examination was performed. The value in this variable should have inherent semantic meaning.", "ordinal": "8", "role": "Identifier", "simpleDatatype": "Char"}, {"_links": {"parentClass": {"href": "/mdr/sdtm/2-0/classes/GeneralObservations", "title": "General Observations", "type": "Class"}, "parentProduct": {"href": "/mdr/sdtm/2-0", "title": "Study Data Tabulation Model Version 2.0", "type": "Foundational Model"}, "priorVersion": {"href": "/mdr/sdtm/1-8/classes/GeneralObservations/variables/--SEQ", "title": "Sequence Number", "type": "Class Variable"}, "rootItem": {"href": "/mdr/root/sdtm/classes/GeneralObservations/variables/--SEQ", "title": "Version-agnostic anchor resource for SDTM variable GeneralObservations.--SEQ", "type": "Root Data Element"}, "self": {"href": "/mdr/sdtm/2-0/classes/GeneralObservations/variables/--SEQ", "title": "Sequence Number", "type": "SDTM Class Variable"}}, "definition": "A number used in combination with the identifier of the subject of the observation to uniquely identify a record within a domain.", "label": "Sequence Number", "name": "--SEQ", "notes": "May be any valid number (including decimals) and does not have to start at 1. Datasets that do not contain subject data, such as the Trial Summary (TS) domain and the Device Tracking (DT) domains, use --SEQ as a sequence number to ensure uniqueness within the dataset.", "ordinal": "9", "role": "Identifier", "simpleDatatype": "Num", "variableCcode": "C70710"}, {"_links": {"parentClass": {"href": "/mdr/sdtm/2-0/classes/GeneralObservations", "title": "General Observations", "type": "Class"}, "parentProduct": {"href": "/mdr/sdtm/2-0", "title": "Study Data Tabulation Model Version 2.0", "type": "Foundational Model"}, "priorVersion": {"href": "/mdr/sdtm/1-8/classes/GeneralObservations/variables/--GRPID", "title": "Group ID", "type": "Class Variable"}, "rootItem": {"href": "/mdr/root/sdtm/classes/GeneralObservations/variables/--GRPID", "title": "Version-agnostic anchor resource for SDTM variable GeneralObservations.--GRPID", "type": "Root Data Element"}, "self": {"href": "/mdr/sdtm/2-0/classes/GeneralObservations/variables/--GRPID", "title": "Group ID", "type": "SDTM Class Variable"}}, "definition": "A sequence of characters used to uniquely identify related records for a subject within a domain, or related parameters in the Trial Summary (TS) dataset.", "label": "Group ID", "name": "--GRPID", "notes": "See also Section 5.1.6, Trial Summary Information and Section 5.1.7, Challenge Agent Characterization.", "ordinal": "10", "role": "Identifier", "simpleDatatype": "Char", "variableCcode": "C170996"}, {"_links": {"parentClass": {"href": "/mdr/sdtm/2-0/classes/GeneralObservations", "title": "General Observations", "type": "Class"}, "parentProduct": {"href": "/mdr/sdtm/2-0", "title": "Study Data Tabulation Model Version 2.0", "type": "Foundational Model"}, "priorVersion": {"href": "/mdr/sdtm/1-8/classes/GeneralObservations/variables/--REFID", "title": "Reference ID", "type": "Class Variable"}, "rootItem": {"href": "/mdr/root/sdtm/classes/GeneralObservations/variables/--REFID", "title": "Version-agnostic anchor resource for SDTM variable GeneralObservations.--REFID", "type": "Root Data Element"}, "self": {"href": "/mdr/sdtm/2-0/classes/GeneralObservations/variables/--REFID", "title": "Reference ID", "type": "SDTM Class Variable"}}, "definition": "A sequence of characters used to uniquely identify a source of information.", "examples": "A lab specimen ID, the UUID for an ECG waveform or a medical image.", "label": "Reference ID", "name": "--REFID", "ordinal": "11", "role": "Identifier", "simpleDatatype": "Char", "variableCcode": "C82531"}, {"_links": {"parentClass": {"href": "/mdr/sdtm/2-0/classes/GeneralObservations", "title": "General Observations", "type": "Class"}, "parentProduct": {"href": "/mdr/sdtm/2-0", "title": "Study Data Tabulation Model Version 2.0", "type": "Foundational Model"}, "priorVersion": {"href": "/mdr/sdtm/1-8/classes/GeneralObservations/variables/--RECID", "title": "Invariant Record Identifier", "type": "Class Variable"}, "rootItem": {"href": "/mdr/root/sdtm/classes/GeneralObservations/variables/--RECID", "title": "Version-agnostic anchor resource for SDTM variable GeneralObservations.--RECID", "type": "Root Data Element"}, "self": {"href": "/mdr/sdtm/2-0/classes/GeneralObservations/variables/--RECID", "title": "Invariant Record Identifier", "type": "SDTM Class Variable"}}, "label": "Invariant Record Identifier", "name": "--RECID", "notes": "Identifier for a record that is unique within a domain for a study and that remains invariant through subsequent versions of the dataset, even if the content of the record is modified. When a record is deleted, this value must not be reused to identify another record in either the current or future versions of the domain.", "ordinal": "12", "role": "Identifier", "simpleDatatype": "Char"}, {"_links": {"parentClass": {"href": "/mdr/sdtm/2-0/classes/GeneralObservations", "title": "General Observations", "type": "Class"}, "parentProduct": {"href": "/mdr/sdtm/2-0", "title": "Study Data Tabulation Model Version 2.0", "type": "Foundational Model"}, "priorVersion": {"href": "/mdr/sdtm/1-8/classes/GeneralObservations/variables/--SPID", "title": "Sponsor-Defined Identifier", "type": "Class Variable"}, "rootItem": {"href": "/mdr/root/sdtm/classes/GeneralObservations/variables/--SPID", "title": "Version-agnostic anchor resource for SDTM variable GeneralObservations.--SPID", "type": "Root Data Element"}, "self": {"href": "/mdr/sdtm/2-0/classes/GeneralObservations/variables/--SPID", "title": "Sponsor-Defined Identifier", "type": "SDTM Class Variable"}}, "definition": "A sponsor-defined sequence of characters used to identify an instance of an observation.", "examples": "A preprinted line identifier on a Concomitant Medications form.", "label": "Sponsor-Defined Identifier", "name": "--SPID", "ordinal": "13", "role": "Identifier", "simpleDatatype": "Char", "variableCcode": "C82530"}, {"_links": {"parentClass": {"href": "/mdr/sdtm/2-0/classes/GeneralObservations", "title": "General Observations", "type": "Class"}, "parentProduct": {"href": "/mdr/sdtm/2-0", "title": "Study Data Tabulation Model Version 2.0", "type": "Foundational Model"}, "priorVersion": {"href": "/mdr/sdtm/1-8/classes/GeneralObservations/variables/--LNKID", "title": "Link ID", "type": "Class Variable"}, "rootItem": {"href": "/mdr/root/sdtm/classes/GeneralObservations/variables/--LNKID", "title": "Version-agnostic anchor resource for SDTM variable GeneralObservations.--LNKID", "type": "Root Data Element"}, "self": {"href": "/mdr/sdtm/2-0/classes/GeneralObservations/variables/--LNKID", "title": "Link ID", "type": "SDTM Class Variable"}}, "definition": "A sequence of characters used to uniquely identify a record, for a subject, in one domain and link it to 1 or more records for that subject in another domain.", "examples": "A value that links a single tumor to multiple measurements/assessments performed at different times.", "label": "Link ID", "name": "--LNKID", "notes": "This may be a one-to-one or a one-to-many relationship.", "ordinal": "14", "role": "Identifier", "simpleDatatype": "Char", "variableCcode": "C117050"}, {"_links": {"parentClass": {"href": "/mdr/sdtm/2-0/classes/GeneralObservations", "title": "General Observations", "type": "Class"}, "parentProduct": {"href": "/mdr/sdtm/2-0", "title": "Study Data Tabulation Model Version 2.0", "type": "Foundational Model"}, "priorVersion": {"href": "/mdr/sdtm/1-8/classes/GeneralObservations/variables/--LNKGRP", "title": "Link Group ID", "type": "Class Variable"}, "rootItem": {"href": "/mdr/root/sdtm/classes/GeneralObservations/variables/--LNKGRP", "title": "Version-agnostic anchor resource for SDTM variable GeneralObservations.--LNKGRP", "type": "Root Data Element"}, "self": {"href": "/mdr/sdtm/2-0/classes/GeneralObservations/variables/--LNKGRP", "title": "Link Group ID", "type": "SDTM Class Variable"}}, "definition": "A sequence of characters used to uniquely identify a group of records, for a subject, in one domain and link it to 1 or more records for that subject in another domain.", "examples": "A value that links multiple tumor measurement/assessments to a single response to therapy.", "label": "Link Group ID", "name": "--LNKGRP", "notes": "This will usually be a many-to-one relationship.", "ordinal": "15", "role": "Identifier", "simpleDatatype": "Char", "variableCcode": "C117049"}, {"_links": {"parentClass": {"href": "/mdr/sdtm/2-0/classes/GeneralObservations", "title": "General Observations", "type": "Class"}, "parentProduct": {"href": "/mdr/sdtm/2-0", "title": "Study Data Tabulation Model Version 2.0", "type": "Foundational Model"}, "rootItem": {"href": "/mdr/root/sdtm/classes/GeneralObservations/variables/--BEATNO", "title": "Version-agnostic anchor resource for SDTM variable GeneralObservations.--BEATNO", "type": "Root Data Element"}, "self": {"href": "/mdr/sdtm/2-0/classes/GeneralObservations/variables/--BEATNO", "title": "ECG Beat Number", "type": "SDTM Class Variable"}}, "label": "ECG Beat Number", "name": "--BEATNO", "notes": "A sequence number that identifies the beat within an ECG.", "ordinal": "16", "role": "Identifier", "simpleDatatype": "Num", "usageRestrictions": "EG Domain only"}, {"_links": {"parentClass": {"href": "/mdr/sdtm/2-0/classes/GeneralObservations", "title": "General Observations", "type": "Class"}, "parentProduct": {"href": "/mdr/sdtm/2-0", "title": "Study Data Tabulation Model Version 2.0", "type": "Foundational Model"}, "priorVersion": {"href": "/mdr/sdtm/1-8/classes/GeneralObservations/variables/VISITNUM", "title": "Visit Number", "type": "Class Variable"}, "rootItem": {"href": "/mdr/root/sdtm/classes/GeneralObservations/variables/VISITNUM", "title": "Version-agnostic anchor resource for SDTM variable GeneralObservations.VISITNUM", "type": "Root Data Element"}, "self": {"href": "/mdr/sdtm/2-0/classes/GeneralObservations/variables/VISITNUM", "title": "Visit Number", "type": "SDTM Class Variable"}}, "definition": "An assigned numeric identifier that aligns to the chronological order of a clinical encounter.", "examples": "1, 1.1, 503.75", "label": "Visit Number", "name": "VISITNUM", "notes": "Numeric version of VISIT, used for sorting. VISITNUM does not have to be an integer value.", "ordinal": "17", "role": "Timing", "simpleDatatype": "Num", "variableCcode": "C83101"}, {"_links": {"parentClass": {"href": "/mdr/sdtm/2-0/classes/GeneralObservations", "title": "General Observations", "type": "Class"}, "parentProduct": {"href": "/mdr/sdtm/2-0", "title": "Study Data Tabulation Model Version 2.0", "type": "Foundational Model"}, "priorVersion": {"href": "/mdr/sdtm/1-8/classes/GeneralObservations/variables/VISIT", "title": "Visit Name", "type": "Class Variable"}, "rootItem": {"href": "/mdr/root/sdtm/classes/GeneralObservations/variables/VISIT", "title": "Version-agnostic anchor resource for SDTM variable GeneralObservations.VISIT", "type": "Root Data Element"}, "self": {"href": "/mdr/sdtm/2-0/classes/GeneralObservations/variables/VISIT", "title": "Visit Name", "type": "SDTM Class Variable"}}, "definition": "The label for a protocol-defined clinical encounter.", "label": "Visit Name", "name": "VISIT", "ordinal": "18", "role": "Timing", "simpleDatatype": "Char", "variableCcode": "C171010"}, {"_links": {"parentClass": {"href": "/mdr/sdtm/2-0/classes/GeneralObservations", "title": "General Observations", "type": "Class"}, "parentProduct": {"href": "/mdr/sdtm/2-0", "title": "Study Data Tabulation Model Version 2.0", "type": "Foundational Model"}, "priorVersion": {"href": "/mdr/sdtm/1-8/classes/GeneralObservations/variables/VISITDY", "title": "Planned Study Day of Visit", "type": "Class Variable"}, "rootItem": {"href": "/mdr/root/sdtm/classes/GeneralObservations/variables/VISITDY", "title": "Version-agnostic anchor resource for SDTM variable GeneralObservations.VISITDY", "type": "Root Data Element"}, "self": {"href": "/mdr/sdtm/2-0/classes/GeneralObservations/variables/VISITDY", "title": "Planned Study Day of Visit", "type": "SDTM Class Variable"}}, "definition": "The planned study day of a clinical encounter relative to the sponsor-defined reference start date.", "label": "Planned Study Day of Visit", "name": "VISITDY", "notes": "Should be an integer.", "ordinal": "19", "role": "Timing", "simpleDatatype": "Num", "variableCcode": "C171011"}, {"_links": {"parentClass": {"href": "/mdr/sdtm/2-0/classes/GeneralObservations", "title": "General Observations", "type": "Class"}, "parentProduct": {"href": "/mdr/sdtm/2-0", "title": "Study Data Tabulation Model Version 2.0", "type": "Foundational Model"}, "priorVersion": {"href": "/mdr/sdtm/1-8/classes/GeneralObservations/variables/TAETORD", "title": "Planned Order of Element Within Arm", "type": "Class Variable"}, "rootItem": {"href": "/mdr/root/sdtm/classes/GeneralObservations/variables/TAETORD", "title": "Version-agnostic anchor resource for SDTM variable GeneralObservations.TAETORD", "type": "Root Data Element"}, "self": {"href": "/mdr/sdtm/2-0/classes/GeneralObservations/variables/TAETORD", "title": "Planned Order of Element Within Arm", "type": "SDTM Class Variable"}}, "definition": "An assigned numeric identifier that gives the planned order of the element within the trial arm of the study.", "label": "Planned Order of Element Within Arm", "name": "TAETORD", "notes": "See Section 5.1.1.2, Trial Arms.", "ordinal": "20", "role": "Timing", "simpleDatatype": "Num", "variableCcode": "C83438"}, {"_links": {"parentClass": {"href": "/mdr/sdtm/2-0/classes/GeneralObservations", "title": "General Observations", "type": "Class"}, "parentProduct": {"href": "/mdr/sdtm/2-0", "title": "Study Data Tabulation Model Version 2.0", "type": "Foundational Model"}, "priorVersion": {"href": "/mdr/sdtm/1-8/classes/GeneralObservations/variables/EPOCH", "title": "Epoch", "type": "Class Variable"}, "rootItem": {"href": "/mdr/root/sdtm/classes/GeneralObservations/variables/EPOCH", "title": "Version-agnostic anchor resource for SDTM variable GeneralObservations.EPOCH", "type": "Root Data Element"}, "self": {"href": "/mdr/sdtm/2-0/classes/GeneralObservations/variables/EPOCH", "title": "Epoch", "type": "SDTM Class Variable"}}, "definition": "A time period defined in the protocol with a study-specific purpose.", "label": "Epoch", "name": "EPOCH", "notes": "The epoch associated with an observation is determined by the start date or start date and time of the observation, or the date/time of collection if start date/time is not collected (see Section 5.1.1.2, Trial Arms).", "ordinal": "21", "role": "Timing", "simpleDatatype": "Char", "variableCcode": "C71738"}, {"_links": {"parentClass": {"href": "/mdr/sdtm/2-0/classes/GeneralObservations", "title": "General Observations", "type": "Class"}, "parentProduct": {"href": "/mdr/sdtm/2-0", "title": "Study Data Tabulation Model Version 2.0", "type": "Foundational Model"}, "priorVersion": {"href": "/mdr/sdtm/1-8/classes/GeneralObservations/variables/RPHASE", "title": "Repro Phase", "type": "Class Variable"}, "rootItem": {"href": "/mdr/root/sdtm/classes/GeneralObservations/variables/RPHASE", "title": "Version-agnostic anchor resource for SDTM variable GeneralObservations.RPHASE", "type": "Root Data Element"}, "self": {"href": "/mdr/sdtm/2-0/classes/GeneralObservations/variables/RPHASE", "title": "Repro Phase", "type": "SDTM Class Variable"}}, "label": "Repro Phase", "name": "RPHASE", "notes": "Reproductive phase with which the reproductive stage of the reproductive path is associated. Defined in Trial Paths domain. The RPHASE variable is Required when any Reproductive Phase Day variable is used.", "ordinal": "22", "role": "Timing", "simpleDatatype": "Char", "usageRestrictions": "Not in human clinical trials"}, {"_links": {"parentClass": {"href": "/mdr/sdtm/2-0/classes/GeneralObservations", "title": "General Observations", "type": "Class"}, "parentProduct": {"href": "/mdr/sdtm/2-0", "title": "Study Data Tabulation Model Version 2.0", "type": "Foundational Model"}, "priorVersion": {"href": "/mdr/sdtm/1-8/classes/GeneralObservations/variables/RPPLDY", "title": "Planned Repro Phase Day of Observation", "type": "Class Variable"}, "rootItem": {"href": "/mdr/root/sdtm/classes/GeneralObservations/variables/RPPLDY", "title": "Version-agnostic anchor resource for SDTM variable GeneralObservations.RPPLDY", "type": "Root Data Element"}, "self": {"href": "/mdr/sdtm/2-0/classes/GeneralObservations/variables/RPPLDY", "title": "Planned Repro Phase Day of Observation", "type": "SDTM Class Variable"}}, "definition": "The day within the reproductive phase on which the test or observation was scheduled to occur.", "label": "Planned Repro Phase Day of Observation", "name": "RPPLDY", "notes": "Expressed as an integer.", "ordinal": "23", "role": "Timing", "simpleDatatype": "Num", "usageRestrictions": "Not in human clinical trials", "variableCcode": "C170506"}, {"_links": {"parentClass": {"href": "/mdr/sdtm/2-0/classes/GeneralObservations", "title": "General Observations", "type": "Class"}, "parentProduct": {"href": "/mdr/sdtm/2-0", "title": "Study Data Tabulation Model Version 2.0", "type": "Foundational Model"}, "priorVersion": {"href": "/mdr/sdtm/1-8/classes/GeneralObservations/variables/RPPLSTDY", "title": "Planned Repro Phase Day of Obs Start", "type": "Class Variable"}, "rootItem": {"href": "/mdr/root/sdtm/classes/GeneralObservations/variables/RPPLSTDY", "title": "Version-agnostic anchor resource for SDTM variable GeneralObservations.RPPLSTDY", "type": "Root Data Element"}, "self": {"href": "/mdr/sdtm/2-0/classes/GeneralObservations/variables/RPPLSTDY", "title": "Planned Repro Phase Day of Obs Start", "type": "SDTM Class Variable"}}, "definition": "The day within the reproductive phase on which the test or observation was scheduled to begin.", "label": "Planned Repro Phase Day of Obs Start", "name": "RPPLSTDY", "notes": "Expressed as an integer.", "ordinal": "24", "role": "Timing", "simpleDatatype": "Num", "usageRestrictions": "Not in human clinical trials", "variableCcode": "C170508"}, {"_links": {"parentClass": {"href": "/mdr/sdtm/2-0/classes/GeneralObservations", "title": "General Observations", "type": "Class"}, "parentProduct": {"href": "/mdr/sdtm/2-0", "title": "Study Data Tabulation Model Version 2.0", "type": "Foundational Model"}, "priorVersion": {"href": "/mdr/sdtm/1-8/classes/GeneralObservations/variables/RPPLENDY", "title": "Planned Repro Phase Day of Obs End", "type": "Class Variable"}, "rootItem": {"href": "/mdr/root/sdtm/classes/GeneralObservations/variables/RPPLENDY", "title": "Version-agnostic anchor resource for SDTM variable GeneralObservations.RPPLENDY", "type": "Root Data Element"}, "self": {"href": "/mdr/sdtm/2-0/classes/GeneralObservations/variables/RPPLENDY", "title": "Planned Repro Phase Day of Obs End", "type": "SDTM Class Variable"}}, "definition": "The day within the reproductive phase on which the test or observation was scheduled to end.", "label": "Planned Repro Phase Day of Obs End", "name": "RPPLENDY", "notes": "Expressed as an integer.", "ordinal": "25", "role": "Timing", "simpleDatatype": "Num", "usageRestrictions": "Not in human clinical trials", "variableCcode": "C170507"}, {"_links": {"parentClass": {"href": "/mdr/sdtm/2-0/classes/GeneralObservations", "title": "General Observations", "type": "Class"}, "parentProduct": {"href": "/mdr/sdtm/2-0", "title": "Study Data Tabulation Model Version 2.0", "type": "Foundational Model"}, "priorVersion": {"href": "/mdr/sdtm/1-8/classes/GeneralObservations/variables/--DTC", "title": "Date/Time of Collection", "type": "Class Variable"}, "rootItem": {"href": "/mdr/root/sdtm/classes/GeneralObservations/variables/--DTC", "title": "Version-agnostic anchor resource for SDTM variable GeneralObservations.--DTC", "type": "Root Data Element"}, "self": {"href": "/mdr/sdtm/2-0/classes/GeneralObservations/variables/--DTC", "title": "Date/Time of Collection", "type": "SDTM Class Variable"}}, "definition": "The date or date and time of the assessment or the specimen or data collection from the subject, represented in a standardized character format.", "describedValueDomain": "ISO 8601 datetime or interval", "label": "Date/Time of Collection", "name": "--DTC", "ordinal": "26", "role": "Timing", "simpleDatatype": "Char", "variableCcode": "C82515"}, {"_links": {"parentClass": {"href": "/mdr/sdtm/2-0/classes/GeneralObservations", "title": "General Observations", "type": "Class"}, "parentProduct": {"href": "/mdr/sdtm/2-0", "title": "Study Data Tabulation Model Version 2.0", "type": "Foundational Model"}, "priorVersion": {"href": "/mdr/sdtm/1-8/classes/GeneralObservations/variables/--STDTC", "title": "Start Date/Time of Observation", "type": "Class Variable"}, "rootItem": {"href": "/mdr/root/sdtm/classes/GeneralObservations/variables/--STDTC", "title": "Version-agnostic anchor resource for SDTM variable GeneralObservations.--STDTC", "type": "Root Data Element"}, "self": {"href": "/mdr/sdtm/2-0/classes/GeneralObservations/variables/--STDTC", "title": "Start Date/Time of Observation", "type": "SDTM Class Variable"}}, "definition": "The start date or date and time of an intervention or event, represented in a standardized character format.", "describedValueDomain": "ISO 8601 datetime or interval", "label": "Start Date/Time of Observation", "name": "--STDTC", "notes": "The start date of a Findings class record is stored in the --DTC variable.", "ordinal": "27", "role": "Timing", "simpleDatatype": "Char", "usageRestrictions": "Not in Findings class domains", "variableCcode": "C82517"}, {"_links": {"parentClass": {"href": "/mdr/sdtm/2-0/classes/GeneralObservations", "title": "General Observations", "type": "Class"}, "parentProduct": {"href": "/mdr/sdtm/2-0", "title": "Study Data Tabulation Model Version 2.0", "type": "Foundational Model"}, "priorVersion": {"href": "/mdr/sdtm/1-8/classes/GeneralObservations/variables/--ENDTC", "title": "End Date/Time of Observation", "type": "Class Variable"}, "rootItem": {"href": "/mdr/root/sdtm/classes/GeneralObservations/variables/--ENDTC", "title": "Version-agnostic anchor resource for SDTM variable GeneralObservations.--ENDTC", "type": "Root Data Element"}, "self": {"href": "/mdr/sdtm/2-0/classes/GeneralObservations/variables/--ENDTC", "title": "End Date/Time of Observation", "type": "SDTM Class Variable"}}, "definition": "The end date or date and time of an intervention, event, or finding, represented in a standardized character format.", "describedValueDomain": "ISO 8601 datetime or interval", "label": "End Date/Time of Observation", "name": "--ENDTC", "ordinal": "28", "role": "Timing", "simpleDatatype": "Char", "variableCcode": "C82516"}, {"_links": {"parentClass": {"href": "/mdr/sdtm/2-0/classes/GeneralObservations", "title": "General Observations", "type": "Class"}, "parentProduct": {"href": "/mdr/sdtm/2-0", "title": "Study Data Tabulation Model Version 2.0", "type": "Foundational Model"}, "priorVersion": {"href": "/mdr/sdtm/1-8/classes/GeneralObservations/variables/--DY", "title": "Study Day of Visit/Collection/Exam", "type": "Class Variable"}, "rootItem": {"href": "/mdr/root/sdtm/classes/GeneralObservations/variables/--DY", "title": "Version-agnostic anchor resource for SDTM variable GeneralObservations.--DY", "type": "Root Data Element"}, "self": {"href": "/mdr/sdtm/2-0/classes/GeneralObservations/variables/--DY", "title": "Study Day of Visit/Collection/Exam", "type": "SDTM Class Variable"}}, "definition": "The number of days from the sponsor-defined reference start date to the date of collection (--DTC), used in study data tabulation.", "label": "Study Day of Visit/Collection/Exam", "name": "--DY", "notes": "The sponsor-defined reference start date is RFSTDTC in Demographics.", "ordinal": "29", "role": "Timing", "simpleDatatype": "Num", "variableCcode": "C170993"}, {"_links": {"parentClass": {"href": "/mdr/sdtm/2-0/classes/GeneralObservations", "title": "General Observations", "type": "Class"}, "parentProduct": {"href": "/mdr/sdtm/2-0", "title": "Study Data Tabulation Model Version 2.0", "type": "Foundational Model"}, "priorVersion": {"href": "/mdr/sdtm/1-8/classes/GeneralObservations/variables/--STDY", "title": "Study Day of Start of Observation", "type": "Class Variable"}, "rootItem": {"href": "/mdr/root/sdtm/classes/GeneralObservations/variables/--STDY", "title": "Version-agnostic anchor resource for SDTM variable GeneralObservations.--STDY", "type": "Root Data Element"}, "self": {"href": "/mdr/sdtm/2-0/classes/GeneralObservations/variables/--STDY", "title": "Study Day of Start of Observation", "type": "SDTM Class Variable"}}, "definition": "The number of days from the sponsor-defined reference start date to the start of an intervention or event (--STDTC), used for study data tabulation.", "label": "Study Day of Start of Observation", "name": "--STDY", "notes": "The sponsor-defined reference start date is RFSTDTC in Demographics.", "ordinal": "30", "role": "Timing", "simpleDatatype": "Num", "usageRestrictions": "Not in Findings class domains", "variableCcode": "C171005"}, {"_links": {"parentClass": {"href": "/mdr/sdtm/2-0/classes/GeneralObservations", "title": "General Observations", "type": "Class"}, "parentProduct": {"href": "/mdr/sdtm/2-0", "title": "Study Data Tabulation Model Version 2.0", "type": "Foundational Model"}, "priorVersion": {"href": "/mdr/sdtm/1-8/classes/GeneralObservations/variables/--ENDY", "title": "Study Day of End of Observation", "type": "Class Variable"}, "rootItem": {"href": "/mdr/root/sdtm/classes/GeneralObservations/variables/--ENDY", "title": "Version-agnostic anchor resource for SDTM variable GeneralObservations.--ENDY", "type": "Root Data Element"}, "self": {"href": "/mdr/sdtm/2-0/classes/GeneralObservations/variables/--ENDY", "title": "Study Day of End of Observation", "type": "SDTM Class Variable"}}, "definition": "The number of days from the sponsor-defined reference start date to the end of an intervention, event, or finding (--ENDTC), used for study data tabulation.", "label": "Study Day of End of Observation", "name": "--ENDY", "notes": "The sponsor-defined reference start date is RFSTDTC in Demographics.", "ordinal": "31", "role": "Timing", "simpleDatatype": "Num", "variableCcode": "C170995"}, {"_links": {"parentClass": {"href": "/mdr/sdtm/2-0/classes/GeneralObservations", "title": "General Observations", "type": "Class"}, "parentProduct": {"href": "/mdr/sdtm/2-0", "title": "Study Data Tabulation Model Version 2.0", "type": "Foundational Model"}, "priorVersion": {"href": "/mdr/sdtm/1-8/classes/GeneralObservations/variables/--NOMDY", "title": "Nominal Study Day for Tabulations", "type": "Class Variable"}, "rootItem": {"href": "/mdr/root/sdtm/classes/GeneralObservations/variables/--NOMDY", "title": "Version-agnostic anchor resource for SDTM variable GeneralObservations.--NOMDY", "type": "Root Data Element"}, "self": {"href": "/mdr/sdtm/2-0/classes/GeneralObservations/variables/--NOMDY", "title": "Nominal Study Day for Tabulations", "type": "SDTM Class Variable"}}, "definition": "The nominal study day, relative to the sponsor-defined reference start date, used by data collection and reporting systems for grouping records for observations that may be scheduled to occur on different days into a single study day (e.g., for output on a tabulation report).", "label": "Nominal Study Day for Tabulations", "name": "--NOMDY", "ordinal": "32", "role": "Timing", "simpleDatatype": "Num", "usageRestrictions": "Not in human clinical trials", "variableCcode": "C170498"}, {"_links": {"parentClass": {"href": "/mdr/sdtm/2-0/classes/GeneralObservations", "title": "General Observations", "type": "Class"}, "parentProduct": {"href": "/mdr/sdtm/2-0", "title": "Study Data Tabulation Model Version 2.0", "type": "Foundational Model"}, "priorVersion": {"href": "/mdr/sdtm/1-8/classes/GeneralObservations/variables/--NOMLBL", "title": "Label for Nominal Study Day", "type": "Class Variable"}, "rootItem": {"href": "/mdr/root/sdtm/classes/GeneralObservations/variables/--NOMLBL", "title": "Version-agnostic anchor resource for SDTM variable GeneralObservations.--NOMLBL", "type": "Root Data Element"}, "self": {"href": "/mdr/sdtm/2-0/classes/GeneralObservations/variables/--NOMLBL", "title": "Label for Nominal Study Day", "type": "SDTM Class Variable"}}, "definition": "The name for a protocol-defined nominal study day.", "label": "Label for Nominal Study Day", "name": "--NOMLBL", "notes": "As presented in the study report.", "ordinal": "33", "role": "Timing", "simpleDatatype": "Char", "usageRestrictions": "Not in human clinical trials", "variableCcode": "C170499"}, {"_links": {"parentClass": {"href": "/mdr/sdtm/2-0/classes/GeneralObservations", "title": "General Observations", "type": "Class"}, "parentProduct": {"href": "/mdr/sdtm/2-0", "title": "Study Data Tabulation Model Version 2.0", "type": "Foundational Model"}, "priorVersion": {"href": "/mdr/sdtm/1-8/classes/GeneralObservations/variables/--RPDY", "title": "Actual Repro Phase Day of Observation", "type": "Class Variable"}, "rootItem": {"href": "/mdr/root/sdtm/classes/GeneralObservations/variables/--RPDY", "title": "Version-agnostic anchor resource for SDTM variable GeneralObservations.--RPDY", "type": "Root Data Element"}, "self": {"href": "/mdr/sdtm/2-0/classes/GeneralObservations/variables/--RPDY", "title": "Actual Repro Phase Day of Observation", "type": "SDTM Class Variable"}}, "definition": "The day within the reproductive phase on which the test or observation occurred.", "label": "Actual Repro Phase Day of Observation", "name": "--RPDY", "notes": "Expressed as an integer.", "ordinal": "34", "role": "Timing", "simpleDatatype": "Num", "usageRestrictions": "Not in human clinical trials", "variableCcode": "C170504"}, {"_links": {"parentClass": {"href": "/mdr/sdtm/2-0/classes/GeneralObservations", "title": "General Observations", "type": "Class"}, "parentProduct": {"href": "/mdr/sdtm/2-0", "title": "Study Data Tabulation Model Version 2.0", "type": "Foundational Model"}, "priorVersion": {"href": "/mdr/sdtm/1-8/classes/GeneralObservations/variables/--RPSTDY", "title": "Actual Repro Phase Day of Obs Start", "type": "Class Variable"}, "rootItem": {"href": "/mdr/root/sdtm/classes/GeneralObservations/variables/--RPSTDY", "title": "Version-agnostic anchor resource for SDTM variable GeneralObservations.--RPSTDY", "type": "Root Data Element"}, "self": {"href": "/mdr/sdtm/2-0/classes/GeneralObservations/variables/--RPSTDY", "title": "Actual Repro Phase Day of Obs Start", "type": "SDTM Class Variable"}}, "definition": "The day within the reproductive phase on which the test or observation began.", "label": "Actual Repro Phase Day of Obs Start", "name": "--RPSTDY", "notes": "Expressed as an integer.", "ordinal": "35", "role": "Timing", "simpleDatatype": "Num", "usageRestrictions": "Not in human clinical trials", "variableCcode": "C170509"}, {"_links": {"parentClass": {"href": "/mdr/sdtm/2-0/classes/GeneralObservations", "title": "General Observations", "type": "Class"}, "parentProduct": {"href": "/mdr/sdtm/2-0", "title": "Study Data Tabulation Model Version 2.0", "type": "Foundational Model"}, "priorVersion": {"href": "/mdr/sdtm/1-8/classes/GeneralObservations/variables/--RPENDY", "title": "Actual Repro Phase Day of Obs End", "type": "Class Variable"}, "rootItem": {"href": "/mdr/root/sdtm/classes/GeneralObservations/variables/--RPENDY", "title": "Version-agnostic anchor resource for SDTM variable GeneralObservations.--RPENDY", "type": "Root Data Element"}, "self": {"href": "/mdr/sdtm/2-0/classes/GeneralObservations/variables/--RPENDY", "title": "Actual Repro Phase Day of Obs End", "type": "SDTM Class Variable"}}, "definition": "The day within the reproductive phase on which the test or observation ended.", "label": "Actual Repro Phase Day of Obs End", "name": "--RPENDY", "notes": "Expressed as an integer.", "ordinal": "36", "role": "Timing", "simpleDatatype": "Num", "usageRestrictions": "Not in human clinical trials", "variableCcode": "C170505"}, {"_links": {"parentClass": {"href": "/mdr/sdtm/2-0/classes/GeneralObservations", "title": "General Observations", "type": "Class"}, "parentProduct": {"href": "/mdr/sdtm/2-0", "title": "Study Data Tabulation Model Version 2.0", "type": "Foundational Model"}, "priorVersion": {"href": "/mdr/sdtm/1-8/classes/GeneralObservations/variables/--XDY", "title": "Day of Obs Relative to Exposure", "type": "Class Variable"}, "rootItem": {"href": "/mdr/root/sdtm/classes/GeneralObservations/variables/--XDY", "title": "Version-agnostic anchor resource for SDTM variable GeneralObservations.--XDY", "type": "Root Data Element"}, "self": {"href": "/mdr/sdtm/2-0/classes/GeneralObservations/variables/--XDY", "title": "Day of Obs Relative to Exposure", "type": "SDTM Class Variable"}}, "label": "Day of Obs Relative to Exposure", "name": "--XDY", "notes": "The actual study day of an intervention, event, or finding, derived relative to the first exposure to any protocol-specified treatment. Expressed in integer days relative to RFXSTDTC in Demographics.", "ordinal": "37", "role": "Timing", "simpleDatatype": "Num"}, {"_links": {"parentClass": {"href": "/mdr/sdtm/2-0/classes/GeneralObservations", "title": "General Observations", "type": "Class"}, "parentProduct": {"href": "/mdr/sdtm/2-0", "title": "Study Data Tabulation Model Version 2.0", "type": "Foundational Model"}, "priorVersion": {"href": "/mdr/sdtm/1-8/classes/GeneralObservations/variables/--XSTDY", "title": "Start Day of Obs Relative to Exposure", "type": "Class Variable"}, "rootItem": {"href": "/mdr/root/sdtm/classes/GeneralObservations/variables/--XSTDY", "title": "Version-agnostic anchor resource for SDTM variable GeneralObservations.--XSTDY", "type": "Root Data Element"}, "self": {"href": "/mdr/sdtm/2-0/classes/GeneralObservations/variables/--XSTDY", "title": "Start Day of Obs Relative to Exposure", "type": "SDTM Class Variable"}}, "label": "Start Day of Obs Relative to Exposure", "name": "--XSTDY", "notes": "The actual study day of the start of an intervention or event, derived relative to the first exposure to any protocol-specified treatment. Expressed in integer days relative to RFXSTDTC in Demographics.", "ordinal": "38", "role": "Timing", "simpleDatatype": "Num", "usageRestrictions": "Not in Findings class domains"}, {"_links": {"parentClass": {"href": "/mdr/sdtm/2-0/classes/GeneralObservations", "title": "General Observations", "type": "Class"}, "parentProduct": {"href": "/mdr/sdtm/2-0", "title": "Study Data Tabulation Model Version 2.0", "type": "Foundational Model"}, "priorVersion": {"href": "/mdr/sdtm/1-8/classes/GeneralObservations/variables/--XENDY", "title": "End Day of Obs Relative to Exposure", "type": "Class Variable"}, "rootItem": {"href": "/mdr/root/sdtm/classes/GeneralObservations/variables/--XENDY", "title": "Version-agnostic anchor resource for SDTM variable GeneralObservations.--XENDY", "type": "Root Data Element"}, "self": {"href": "/mdr/sdtm/2-0/classes/GeneralObservations/variables/--XENDY", "title": "End Day of Obs Relative to Exposure", "type": "SDTM Class Variable"}}, "label": "End Day of Obs Relative to Exposure", "name": "--XENDY", "notes": "The actual study day of the end of an intervention, event, or finding, derived relative to the first exposure to any protocol-specified treatment. Expressed in integer days relative to RFXSTDTC in Demographics.", "ordinal": "39", "role": "Timing", "simpleDatatype": "Num"}, {"_links": {"parentClass": {"href": "/mdr/sdtm/2-0/classes/GeneralObservations", "title": "General Observations", "type": "Class"}, "parentProduct": {"href": "/mdr/sdtm/2-0", "title": "Study Data Tabulation Model Version 2.0", "type": "Foundational Model"}, "priorVersion": {"href": "/mdr/sdtm/1-8/classes/GeneralObservations/variables/--CHDY", "title": "Day of Obs Rel to Challenge Agent", "type": "Class Variable"}, "rootItem": {"href": "/mdr/root/sdtm/classes/GeneralObservations/variables/--CHDY", "title": "Version-agnostic anchor resource for SDTM variable GeneralObservations.--CHDY", "type": "Root Data Element"}, "self": {"href": "/mdr/sdtm/2-0/classes/GeneralObservations/variables/--CHDY", "title": "Day of Obs Rel to Challenge Agent", "type": "SDTM Class Variable"}}, "label": "Day of Obs Rel to Challenge Agent", "name": "--CHDY", "notes": "The actual study day of an intervention, event, or finding, derived relative to the first exposure to the challenge agent that induces the disease or condition that the investigational treatment is intended to cure, mitigate, treat, or prevent. Expressed in integer days relative to RFCSTDTC in Demographics.", "ordinal": "40", "role": "Timing", "simpleDatatype": "Num"}, {"_links": {"parentClass": {"href": "/mdr/sdtm/2-0/classes/GeneralObservations", "title": "General Observations", "type": "Class"}, "parentProduct": {"href": "/mdr/sdtm/2-0", "title": "Study Data Tabulation Model Version 2.0", "type": "Foundational Model"}, "priorVersion": {"href": "/mdr/sdtm/1-8/classes/GeneralObservations/variables/--CHSTDY", "title": "Start Day of Obs Rel to Challenge Agent", "type": "Class Variable"}, "rootItem": {"href": "/mdr/root/sdtm/classes/GeneralObservations/variables/--CHSTDY", "title": "Version-agnostic anchor resource for SDTM variable GeneralObservations.--CHSTDY", "type": "Root Data Element"}, "self": {"href": "/mdr/sdtm/2-0/classes/GeneralObservations/variables/--CHSTDY", "title": "Start Day of Obs Rel to Challenge Agent", "type": "SDTM Class Variable"}}, "label": "Start Day of Obs Rel to Challenge Agent", "name": "--CHSTDY", "notes": "The actual study day of the start of an intervention or event derived relative to the first exposure to the challenge agent that induces the disease or condition that the investigational treatment is intended to c ure, mitigate, treat, or prevent. Expressed in integer days relative to RFCSTDTC in Demographics.", "ordinal": "41", "role": "Timing", "simpleDatatype": "Num", "usageRestrictions": "Not in Findings class domains"}, {"_links": {"parentClass": {"href": "/mdr/sdtm/2-0/classes/GeneralObservations", "title": "General Observations", "type": "Class"}, "parentProduct": {"href": "/mdr/sdtm/2-0", "title": "Study Data Tabulation Model Version 2.0", "type": "Foundational Model"}, "priorVersion": {"href": "/mdr/sdtm/1-8/classes/GeneralObservations/variables/--CHENDY", "title": "End Day of Obs Rel to Challenge Agent", "type": "Class Variable"}, "rootItem": {"href": "/mdr/root/sdtm/classes/GeneralObservations/variables/--CHENDY", "title": "Version-agnostic anchor resource for SDTM variable GeneralObservations.--CHENDY", "type": "Root Data Element"}, "self": {"href": "/mdr/sdtm/2-0/classes/GeneralObservations/variables/--CHENDY", "title": "End Day of Obs Rel to Challenge Agent", "type": "SDTM Class Variable"}}, "label": "End Day of Obs Rel to Challenge Agent", "name": "--CHENDY", "notes": "The actual study day of the end of an intervention, event, or finding derived relative to the first exposure to the challenge agent that induces the disease or condition that the investigational treatment is intended to cure, mitigate, treat, or prevent. Expressed in integer days relative to RFCSTDTC in Demographics.", "ordinal": "42", "role": "Timing", "simpleDatatype": "Num"}, {"_links": {"parentClass": {"href": "/mdr/sdtm/2-0/classes/GeneralObservations", "title": "General Observations", "type": "Class"}, "parentProduct": {"href": "/mdr/sdtm/2-0", "title": "Study Data Tabulation Model Version 2.0", "type": "Foundational Model"}, "priorVersion": {"href": "/mdr/sdtm/1-8/classes/GeneralObservations/variables/--DUR", "title": "Duration", "type": "Class Variable"}, "rootItem": {"href": "/mdr/root/sdtm/classes/GeneralObservations/variables/--DUR", "title": "Version-agnostic anchor resource for SDTM variable GeneralObservations.--DUR", "type": "Root Data Element"}, "self": {"href": "/mdr/sdtm/2-0/classes/GeneralObservations/variables/--DUR", "title": "Collected Duration", "type": "SDTM Class Variable"}}, "definition": "The collected length of time during which an observation continues, represented in a standardized character format.", "describedValueDomain": "ISO 8601 duration", "label": "Collected Duration", "name": "--DUR", "notes": "Used only if collected on the CRF and not derived.", "ordinal": "43", "role": "Timing", "simpleDatatype": "Char", "variableCcode": "C170992"}, {"_links": {"parentClass": {"href": "/mdr/sdtm/2-0/classes/GeneralObservations", "title": "General Observations", "type": "Class"}, "parentProduct": {"href": "/mdr/sdtm/2-0", "title": "Study Data Tabulation Model Version 2.0", "type": "Foundational Model"}, "priorVersion": {"href": "/mdr/sdtm/1-8/classes/GeneralObservations/variables/--TPT", "title": "Planned Time Point Name", "type": "Class Variable"}, "rootItem": {"href": "/mdr/root/sdtm/classes/GeneralObservations/variables/--TPT", "title": "Version-agnostic anchor resource for SDTM variable GeneralObservations.--TPT", "type": "Root Data Element"}, "self": {"href": "/mdr/sdtm/2-0/classes/GeneralObservations/variables/--TPT", "title": "Planned Time Point Name", "type": "SDTM Class Variable"}}, "definition": "The description of the time when a protocol-defined activity is planned to occur, used for study data tabulation.", "examples": "\"PREDOSE\", \"1 HOUR POST-DOSE\"", "label": "Planned Time Point Name", "name": "--TPT", "notes": "This may be represented as an elapsed time relative to a fixed reference point (e.g., time since last dose). See --TPTNUM and --TPTREF.", "ordinal": "44", "role": "Timing", "simpleDatatype": "Char", "variableCcode": "C171029"}, {"_links": {"parentClass": {"href": "/mdr/sdtm/2-0/classes/GeneralObservations", "title": "General Observations", "type": "Class"}, "parentProduct": {"href": "/mdr/sdtm/2-0", "title": "Study Data Tabulation Model Version 2.0", "type": "Foundational Model"}, "priorVersion": {"href": "/mdr/sdtm/1-8/classes/GeneralObservations/variables/--TPTNUM", "title": "Planned Time Point Number", "type": "Class Variable"}, "rootItem": {"href": "/mdr/root/sdtm/classes/GeneralObservations/variables/--TPTNUM", "title": "Version-agnostic anchor resource for SDTM variable GeneralObservations.--TPTNUM", "type": "Root Data Element"}, "self": {"href": "/mdr/sdtm/2-0/classes/GeneralObservations/variables/--TPTNUM", "title": "Planned Time Point Number", "type": "SDTM Class Variable"}}, "definition": "The numeric identifier of when an observation is planned to occur.", "label": "Planned Time Point Number", "name": "--TPTNUM", "notes": "Used in sorting.", "ordinal": "45", "role": "Timing", "simpleDatatype": "Num", "variableCcode": "C82545"}, {"_links": {"parentClass": {"href": "/mdr/sdtm/2-0/classes/GeneralObservations", "title": "General Observations", "type": "Class"}, "parentProduct": {"href": "/mdr/sdtm/2-0", "title": "Study Data Tabulation Model Version 2.0", "type": "Foundational Model"}, "priorVersion": {"href": "/mdr/sdtm/1-8/classes/GeneralObservations/variables/--ELTM", "title": "Planned Elapsed Time from Time Point Ref", "type": "Class Variable"}, "rootItem": {"href": "/mdr/root/sdtm/classes/GeneralObservations/variables/--ELTM", "title": "Version-agnostic anchor resource for SDTM variable GeneralObservations.--ELTM", "type": "Root Data Element"}, "self": {"href": "/mdr/sdtm/2-0/classes/GeneralObservations/variables/--ELTM", "title": "Planned Elapsed Time from Time Point Ref", "type": "SDTM Class Variable"}}, "definition": "The interval of time between a planned time point and a fixed reference point, represented in a standardized character format.", "describedValueDomain": "ISO 8601 duration", "label": "Planned Elapsed Time from Time Point Ref", "name": "--ELTM", "notes": "The fixed reference point is in --TPTREF. This variable is useful where there are repetitive measures. Not a clock time or a date/time variable, but an interval.", "ordinal": "46", "role": "Timing", "simpleDatatype": "Char", "variableCcode": "C170994"}, {"_links": {"parentClass": {"href": "/mdr/sdtm/2-0/classes/GeneralObservations", "title": "General Observations", "type": "Class"}, "parentProduct": {"href": "/mdr/sdtm/2-0", "title": "Study Data Tabulation Model Version 2.0", "type": "Foundational Model"}, "priorVersion": {"href": "/mdr/sdtm/1-8/classes/GeneralObservations/variables/--TPTREF", "title": "Time Point Reference", "type": "Class Variable"}, "rootItem": {"href": "/mdr/root/sdtm/classes/GeneralObservations/variables/--TPTREF", "title": "Version-agnostic anchor resource for SDTM variable GeneralObservations.--TPTREF", "type": "Root Data Element"}, "self": {"href": "/mdr/sdtm/2-0/classes/GeneralObservations/variables/--TPTREF", "title": "Time Point Reference", "type": "SDTM Class Variable"}}, "definition": "The description of a time point that acts as a fixed reference for a series of planned time points, used for study data tabulation.", "examples": "\"PREVIOUS DOSE\", \"PREVIOUS MEAL\"", "label": "Time Point Reference", "name": "--TPTREF", "notes": "Description of the fixed reference point referred to by --ELTM, --TPTNUM, --TPT, --STINT, and --ENINT.", "ordinal": "47", "role": "Timing", "simpleDatatype": "Char", "variableCcode": "C171030"}, {"_links": {"parentClass": {"href": "/mdr/sdtm/2-0/classes/GeneralObservations", "title": "General Observations", "type": "Class"}, "parentProduct": {"href": "/mdr/sdtm/2-0", "title": "Study Data Tabulation Model Version 2.0", "type": "Foundational Model"}, "priorVersion": {"href": "/mdr/sdtm/1-8/classes/GeneralObservations/variables/--RFTDTC", "title": "Date/Time of Reference Time Point", "type": "Class Variable"}, "rootItem": {"href": "/mdr/root/sdtm/classes/GeneralObservations/variables/--RFTDTC", "title": "Version-agnostic anchor resource for SDTM variable GeneralObservations.--RFTDTC", "type": "Root Data Element"}, "self": {"href": "/mdr/sdtm/2-0/classes/GeneralObservations/variables/--RFTDTC", "title": "Date/Time of Reference Time Point", "type": "SDTM Class Variable"}}, "definition": "The actual date or date and time of a time point that acts as a fixed reference for a series of planned time points, represented in a standardized character format.", "describedValueDomain": "ISO 8601 datetime or interval", "label": "Date/Time of Reference Time Point", "name": "--RFTDTC", "notes": "The fixed reference point is in --TPTREF.", "ordinal": "48", "role": "Timing", "simpleDatatype": "Char", "variableCcode": "C82518"}, {"_links": {"parentClass": {"href": "/mdr/sdtm/2-0/classes/GeneralObservations", "title": "General Observations", "type": "Class"}, "parentProduct": {"href": "/mdr/sdtm/2-0", "title": "Study Data Tabulation Model Version 2.0", "type": "Foundational Model"}, "priorVersion": {"href": "/mdr/sdtm/1-8/classes/GeneralObservations/variables/--STRF", "title": "Start Relative to Reference Period", "type": "Class Variable"}, "rootItem": {"href": "/mdr/root/sdtm/classes/GeneralObservations/variables/--STRF", "title": "Version-agnostic anchor resource for SDTM variable GeneralObservations.--STRF", "type": "Root Data Element"}, "self": {"href": "/mdr/sdtm/2-0/classes/GeneralObservations/variables/--STRF", "title": "Start Relative to Reference Period", "type": "SDTM Class Variable"}}, "definition": "The characterization of the start of an observation relative to the study reference period.", "label": "Start Relative to Reference Period", "name": "--STRF", "notes": "The sponsor-defined reference period is a continuous period of time defined by a discrete starting point and a discrete ending point represented by RFSTDTC and RFENDTC in Demographics.", "ordinal": "49", "role": "Timing", "simpleDatatype": "Char", "variableCcode": "C82559"}, {"_links": {"parentClass": {"href": "/mdr/sdtm/2-0/classes/GeneralObservations", "title": "General Observations", "type": "Class"}, "parentProduct": {"href": "/mdr/sdtm/2-0", "title": "Study Data Tabulation Model Version 2.0", "type": "Foundational Model"}, "priorVersion": {"href": "/mdr/sdtm/1-8/classes/GeneralObservations/variables/--ENRF", "title": "End Relative to Reference Period", "type": "Class Variable"}, "rootItem": {"href": "/mdr/root/sdtm/classes/GeneralObservations/variables/--ENRF", "title": "Version-agnostic anchor resource for SDTM variable GeneralObservations.--ENRF", "type": "Root Data Element"}, "self": {"href": "/mdr/sdtm/2-0/classes/GeneralObservations/variables/--ENRF", "title": "End Relative to Reference Period", "type": "SDTM Class Variable"}}, "definition": "The characterization of the end of an observation relative to the study reference period.", "label": "End Relative to Reference Period", "name": "--ENRF", "notes": "The sponsor-defined reference period is a continuous period of time defined by a discrete starting point and a discrete ending point represented by RFSTDTC and RFENDTC in Demographics.", "ordinal": "50", "role": "Timing", "simpleDatatype": "Char", "variableCcode": "C82557"}, {"_links": {"parentClass": {"href": "/mdr/sdtm/2-0/classes/GeneralObservations", "title": "General Observations", "type": "Class"}, "parentProduct": {"href": "/mdr/sdtm/2-0", "title": "Study Data Tabulation Model Version 2.0", "type": "Foundational Model"}, "priorVersion": {"href": "/mdr/sdtm/1-8/classes/GeneralObservations/variables/--EVLINT", "title": "Evaluation Interval", "type": "Class Variable"}, "rootItem": {"href": "/mdr/root/sdtm/classes/GeneralObservations/variables/--EVLINT", "title": "Version-agnostic anchor resource for SDTM variable GeneralObservations.--EVLINT", "type": "Root Data Element"}, "self": {"href": "/mdr/sdtm/2-0/classes/GeneralObservations/variables/--EVLINT", "title": "Evaluation Interval", "type": "SDTM Class Variable"}}, "definition": "The planned time interval for which an observation is assessed, represented in a standardized character format.", "describedValueDomain": "ISO 8601 duration or interval", "examples": "-P2M to represent a period of the past 2 months as the evaluation interval for a question from a questionnaire.", "label": "Evaluation Interval", "name": "--EVLINT", "notes": "Usually used with --DTC to describe an interval of this duration that ended at the time represented in --DTC.", "ordinal": "51", "role": "Timing", "simpleDatatype": "Char", "variableCcode": "C82534"}, {"_links": {"parentClass": {"href": "/mdr/sdtm/2-0/classes/GeneralObservations", "title": "General Observations", "type": "Class"}, "parentProduct": {"href": "/mdr/sdtm/2-0", "title": "Study Data Tabulation Model Version 2.0", "type": "Foundational Model"}, "priorVersion": {"href": "/mdr/sdtm/1-8/classes/GeneralObservations/variables/--EVINTX", "title": "Evaluation Interval Text", "type": "Class Variable"}, "rootItem": {"href": "/mdr/root/sdtm/classes/GeneralObservations/variables/--EVINTX", "title": "Version-agnostic anchor resource for SDTM variable GeneralObservations.--EVINTX", "type": "Root Data Element"}, "self": {"href": "/mdr/sdtm/2-0/classes/GeneralObservations/variables/--EVINTX", "title": "Evaluation Interval Text", "type": "SDTM Class Variable"}}, "definition": "A textual description of the planned time interval for which an observation is assessed, where the interval is not able to be represented in a standardized character format.", "examples": "\"LIFETIME\", \"LAST NIGHT\", \"RECENTLY\", \"OVER THE LAST FEW WEEKS\"", "label": "Evaluation Interval Text", "name": "--EVINTX", "notes": "A value that cannot be represented in ISO 8601 format.", "ordinal": "52", "role": "Timing", "simpleDatatype": "Char", "variableCcode": "C117044"}, {"_links": {"parentClass": {"href": "/mdr/sdtm/2-0/classes/GeneralObservations", "title": "General Observations", "type": "Class"}, "parentProduct": {"href": "/mdr/sdtm/2-0", "title": "Study Data Tabulation Model Version 2.0", "type": "Foundational Model"}, "priorVersion": {"href": "/mdr/sdtm/1-8/classes/GeneralObservations/variables/--STRTPT", "title": "Start Relative to Reference Time Point", "type": "Class Variable"}, "rootItem": {"href": "/mdr/root/sdtm/classes/GeneralObservations/variables/--STRTPT", "title": "Version-agnostic anchor resource for SDTM variable GeneralObservations.--STRTPT", "type": "Root Data Element"}, "self": {"href": "/mdr/sdtm/2-0/classes/GeneralObservations/variables/--STRTPT", "title": "Start Relative to Reference Time Point", "type": "SDTM Class Variable"}}, "definition": "The characterization of the start of an observation relative to a reference time point.", "label": "Start Relative to Reference Time Point", "name": "--STRTPT", "notes": "The sponsor-defined reference time point is in --STTPT.", "ordinal": "53", "role": "Timing", "simpleDatatype": "Char", "variableCcode": "C82560"}, {"_links": {"parentClass": {"href": "/mdr/sdtm/2-0/classes/GeneralObservations", "title": "General Observations", "type": "Class"}, "parentProduct": {"href": "/mdr/sdtm/2-0", "title": "Study Data Tabulation Model Version 2.0", "type": "Foundational Model"}, "priorVersion": {"href": "/mdr/sdtm/1-8/classes/GeneralObservations/variables/--STTPT", "title": "Start Reference Time Point", "type": "Class Variable"}, "rootItem": {"href": "/mdr/root/sdtm/classes/GeneralObservations/variables/--STTPT", "title": "Version-agnostic anchor resource for SDTM variable GeneralObservations.--STTPT", "type": "Root Data Element"}, "self": {"href": "/mdr/sdtm/2-0/classes/GeneralObservations/variables/--STTPT", "title": "Start Reference Time Point", "type": "SDTM Class Variable"}}, "definition": "The description or date and/or time of a time point that acts as a fixed reference for characterizing the start of an observation.", "examples": "\"2003-12-15\", \"VISIT 1\"", "label": "Start Reference Time Point", "name": "--STTPT", "notes": "This is the sponsor-defined reference point referred to by --STRTPT.", "ordinal": "54", "role": "Timing", "simpleDatatype": "Char", "variableCcode": "C82575"}, {"_links": {"parentClass": {"href": "/mdr/sdtm/2-0/classes/GeneralObservations", "title": "General Observations", "type": "Class"}, "parentProduct": {"href": "/mdr/sdtm/2-0", "title": "Study Data Tabulation Model Version 2.0", "type": "Foundational Model"}, "priorVersion": {"href": "/mdr/sdtm/1-8/classes/GeneralObservations/variables/--ENRTPT", "title": "End Relative to Reference Time Point", "type": "Class Variable"}, "rootItem": {"href": "/mdr/root/sdtm/classes/GeneralObservations/variables/--ENRTPT", "title": "Version-agnostic anchor resource for SDTM variable GeneralObservations.--ENRTPT", "type": "Root Data Element"}, "self": {"href": "/mdr/sdtm/2-0/classes/GeneralObservations/variables/--ENRTPT", "title": "End Relative to Reference Time Point", "type": "SDTM Class Variable"}}, "definition": "The characterization of the end of an observation relative to a reference time point.", "label": "End Relative to Reference Time Point", "name": "--ENRTPT", "notes": "The sponsor-defined reference time point is in --ENTPT.", "ordinal": "55", "role": "Timing", "simpleDatatype": "Char", "variableCcode": "C82558"}, {"_links": {"parentClass": {"href": "/mdr/sdtm/2-0/classes/GeneralObservations", "title": "General Observations", "type": "Class"}, "parentProduct": {"href": "/mdr/sdtm/2-0", "title": "Study Data Tabulation Model Version 2.0", "type": "Foundational Model"}, "priorVersion": {"href": "/mdr/sdtm/1-8/classes/GeneralObservations/variables/--ENTPT", "title": "End Reference Time Point", "type": "Class Variable"}, "rootItem": {"href": "/mdr/root/sdtm/classes/GeneralObservations/variables/--ENTPT", "title": "Version-agnostic anchor resource for SDTM variable GeneralObservations.--ENTPT", "type": "Root Data Element"}, "self": {"href": "/mdr/sdtm/2-0/classes/GeneralObservations/variables/--ENTPT", "title": "End Reference Time Point", "type": "SDTM Class Variable"}}, "definition": "The description or date and/or time of a time point that acts as a fixed reference for characterizing the end of an observation.", "examples": "\"2003-12-25\", \"VISIT 2\"", "label": "End Reference Time Point", "name": "--ENTPT", "notes": "This is the sponsor-defined reference point referred to by --ENRTPT.", "ordinal": "56", "role": "Timing", "simpleDatatype": "Char", "variableCcode": "C82574"}, {"_links": {"parentClass": {"href": "/mdr/sdtm/2-0/classes/GeneralObservations", "title": "General Observations", "type": "Class"}, "parentProduct": {"href": "/mdr/sdtm/2-0", "title": "Study Data Tabulation Model Version 2.0", "type": "Foundational Model"}, "priorVersion": {"href": "/mdr/sdtm/1-8/classes/GeneralObservations/variables/MIDS", "title": "Disease Milestone Instance Name", "type": "Class Variable"}, "rootItem": {"href": "/mdr/root/sdtm/classes/GeneralObservations/variables/MIDS", "title": "Version-agnostic anchor resource for SDTM variable GeneralObservations.MIDS", "type": "Root Data Element"}, "self": {"href": "/mdr/sdtm/2-0/classes/GeneralObservations/variables/MIDS", "title": "Disease Milestone Instance Name", "type": "SDTM Class Variable"}}, "label": "Disease Milestone Instance Name", "name": "MIDS", "notes": "The name of a specific instance of a Disease Milestone Type (MIDSTYPE) described in the Trial Disease Milestones dataset (see Section 5.1.4.3, Trial Disease Milestones). This should be unique within a subject. Used only in conjunction with RELMIDS and MIDSDTC.", "ordinal": "57", "role": "Timing", "simpleDatatype": "Char"}, {"_links": {"parentClass": {"href": "/mdr/sdtm/2-0/classes/GeneralObservations", "title": "General Observations", "type": "Class"}, "parentProduct": {"href": "/mdr/sdtm/2-0", "title": "Study Data Tabulation Model Version 2.0", "type": "Foundational Model"}, "priorVersion": {"href": "/mdr/sdtm/1-8/classes/GeneralObservations/variables/RELMIDS", "title": "Temporal Relation to Milestone Instance", "type": "Class Variable"}, "rootItem": {"href": "/mdr/root/sdtm/classes/GeneralObservations/variables/RELMIDS", "title": "Version-agnostic anchor resource for SDTM variable GeneralObservations.RELMIDS", "type": "Root Data Element"}, "self": {"href": "/mdr/sdtm/2-0/classes/GeneralObservations/variables/RELMIDS", "title": "Temporal Relation to Milestone Instance", "type": "SDTM Class Variable"}}, "examples": "\"IMMEDIATELY BEFORE\", \"AT TIME OF\", \"AFTER\"", "label": "Temporal Relation to Milestone Instance", "name": "RELMIDS", "notes": "The temporal relationship of the observation to the Disease Milestone Instance Name in MIDS.", "ordinal": "58", "role": "Timing", "simpleDatatype": "Char"}, {"_links": {"parentClass": {"href": "/mdr/sdtm/2-0/classes/GeneralObservations", "title": "General Observations", "type": "Class"}, "parentProduct": {"href": "/mdr/sdtm/2-0", "title": "Study Data Tabulation Model Version 2.0", "type": "Foundational Model"}, "priorVersion": {"href": "/mdr/sdtm/1-8/classes/GeneralObservations/variables/MIDSDTC", "title": "Disease Milestone Instance Date/Time", "type": "Class Variable"}, "rootItem": {"href": "/mdr/root/sdtm/classes/GeneralObservations/variables/MIDSDTC", "title": "Version-agnostic anchor resource for SDTM variable GeneralObservations.MIDSDTC", "type": "Root Data Element"}, "self": {"href": "/mdr/sdtm/2-0/classes/GeneralObservations/variables/MIDSDTC", "title": "Disease Milestone Instance Date/Time", "type": "SDTM Class Variable"}}, "describedValueDomain": "ISO 8601 datetime or interval", "label": "Disease Milestone Instance Date/Time", "name": "MIDSDTC", "notes": "The start date/time of the Disease Milestone Instance Name in MIDS.", "ordinal": "59", "role": "Timing", "simpleDatatype": "Char"}, {"_links": {"parentClass": {"href": "/mdr/sdtm/2-0/classes/GeneralObservations", "title": "General Observations", "type": "Class"}, "parentProduct": {"href": "/mdr/sdtm/2-0", "title": "Study Data Tabulation Model Version 2.0", "type": "Foundational Model"}, "priorVersion": {"href": "/mdr/sdtm/1-8/classes/GeneralObservations/variables/--STINT", "title": "Planned Start of Assessment Interval", "type": "Class Variable"}, "rootItem": {"href": "/mdr/root/sdtm/classes/GeneralObservations/variables/--STINT", "title": "Version-agnostic anchor resource for SDTM variable GeneralObservations.--STINT", "type": "Root Data Element"}, "self": {"href": "/mdr/sdtm/2-0/classes/GeneralObservations/variables/--STINT", "title": "Planned Start of Assessment Interval", "type": "SDTM Class Variable"}}, "definition": "The start of a planned assessment interval relative to a reference time point, represented in a standardized character format.", "describedValueDomain": "ISO 8601 duration", "label": "Planned Start of Assessment Interval", "name": "--STINT", "notes": "The reference time point is in --TPTREF. As this variable describes planned timing of an assessment, caution should be exercised when using outside of the Findings class of domains. In an Events or Interventions domain, it may refer to the interval over which --OCCUR is assessed.", "ordinal": "60", "role": "Timing", "simpleDatatype": "Char", "variableCcode": "C117061"}, {"_links": {"parentClass": {"href": "/mdr/sdtm/2-0/classes/GeneralObservations", "title": "General Observations", "type": "Class"}, "parentProduct": {"href": "/mdr/sdtm/2-0", "title": "Study Data Tabulation Model Version 2.0", "type": "Foundational Model"}, "priorVersion": {"href": "/mdr/sdtm/1-8/classes/GeneralObservations/variables/--ENINT", "title": "Planned End of Assessment Interval", "type": "Class Variable"}, "rootItem": {"href": "/mdr/root/sdtm/classes/GeneralObservations/variables/--ENINT", "title": "Version-agnostic anchor resource for SDTM variable GeneralObservations.--ENINT", "type": "Root Data Element"}, "self": {"href": "/mdr/sdtm/2-0/classes/GeneralObservations/variables/--ENINT", "title": "Planned End of Assessment Interval", "type": "SDTM Class Variable"}}, "definition": "The end of a planned assessment interval relative to a reference time point, represented in a standardized character format.", "describedValueDomain": "ISO 8601 duration", "label": "Planned End of Assessment Interval", "name": "--ENINT", "notes": "The reference time point is in --TPTREF. As this variable describes planned timing of an assessment, caution should be exercised when using outside of the Findings class of domains. In an Events or Interventions domain, it may refer to the interval over which --OCCUR is assessed.", "ordinal": "61", "role": "Timing", "simpleDatatype": "Char", "variableCcode": "C117042"}, {"_links": {"parentClass": {"href": "/mdr/sdtm/2-0/classes/GeneralObservations", "title": "General Observations", "type": "Class"}, "parentProduct": {"href": "/mdr/sdtm/2-0", "title": "Study Data Tabulation Model Version 2.0", "type": "Foundational Model"}, "priorVersion": {"href": "/mdr/sdtm/1-8/classes/GeneralObservations/variables/--DETECT", "title": "Time in Days to Detection", "type": "Class Variable"}, "rootItem": {"href": "/mdr/root/sdtm/classes/GeneralObservations/variables/--DETECT", "title": "Version-agnostic anchor resource for SDTM variable GeneralObservations.--DETECT", "type": "Root Data Element"}, "self": {"href": "/mdr/sdtm/2-0/classes/GeneralObservations/variables/--DETECT", "title": "Time in Days to Detection", "type": "SDTM Class Variable"}}, "definition": "The number of days from the start of dosing to the earliest detection of a condition or pathogen.", "label": "Time in Days to Detection", "name": "--DETECT", "ordinal": "62", "role": "Timing", "simpleDatatype": "Num", "usageRestrictions": "Not in human clinical trials", "variableCcode": "C117041"}, {"_links": {"parentClass": {"href": "/mdr/sdtm/2-0/classes/GeneralObservations", "title": "General Observations", "type": "Class"}, "parentProduct": {"href": "/mdr/sdtm/2-0", "title": "Study Data Tabulation Model Version 2.0", "type": "Foundational Model"}, "rootItem": {"href": "/mdr/root/sdtm/classes/GeneralObservations/variables/--PTFL", "title": "Version-agnostic anchor resource for SDTM variable GeneralObservations.--PTFL", "type": "Root Data Element"}, "self": {"href": "/mdr/sdtm/2-0/classes/GeneralObservations/variables/--PTFL", "title": "Point in Time Flag", "type": "SDTM Class Variable"}}, "label": "Point in Time Flag", "name": "--PTFL", "notes": "An indication that the specimen was collected at a single point in time. The value is \"Y\" or null.", "ordinal": "63", "role": "Timing", "simpleDatatype": "Char", "usageRestrictions": "Only in Findings class specimen-based domains: BS, CP, GF, IS, LB, MB, MS, MI, PC, PP"}, {"_links": {"parentClass": {"href": "/mdr/sdtm/2-0/classes/GeneralObservations", "title": "General Observations", "type": "Class"}, "parentProduct": {"href": "/mdr/sdtm/2-0", "title": "Study Data Tabulation Model Version 2.0", "type": "Foundational Model"}, "rootItem": {"href": "/mdr/root/sdtm/classes/GeneralObservations/variables/--PDUR", "title": "Version-agnostic anchor resource for SDTM variable GeneralObservations.--PDUR", "type": "Root Data Element"}, "self": {"href": "/mdr/sdtm/2-0/classes/GeneralObservations/variables/--PDUR", "title": "Planned Duration", "type": "SDTM Class Variable"}}, "describedValueDomain": "ISO 8601 duration", "label": "Planned Duration", "name": "--PDUR", "notes": "Planned duration of a finding. For a sample-based finding, this could apply to the planned duration of specimen collection.", "ordinal": "64", "role": "Timing", "simpleDatatype": "Char", "usageRestrictions": "Only in Findings class specimen-based domains: BS, CP, GF, IS, LB, MB, MS, MI, PC, PP"}], "description": "The majority of observations collected during a study can be divided among three general classes: Interventions, Events, or Findings. Datasets based on any of the general observation classes share a set of common Identifier and Timing variables. As a general rule, any valid Identifier or Timing variable is permissible for use in any submission dataset based on a general observation class. (Source: SDTM v2.0, Section 3.1)", "label": "General Observations", "name": "General Observations", "ordinal": "1"}
