basic_std;table;column;label;order;type;length;displayformat;xmldatatype;xmlcodelist;core;origin;origintype;originsource;role;term;algorithm;qualifiers;isnotcdiscstd;comment;IGcomment;map_var_flag;fixed_mapping;include_in_raw;nn_internal;incl_cre_domain;xmlcodelistvalues
Y;AP;STUDYID;Study Identifier;10;C;40;;text;;Req;Protocol;Protocol;Sponsor;Identifier;;;UPPERCASE;;;Unique identifier for a study.;*;;Y;;Y;
Y;AP;DOMAIN;Domain Abbreviation;20;C;8;;text;;Req;Assigned;Assigned;Sponsor;Identifier;;;UPPERCASE;;;Four-character abbreviation for the domain, AP--.;*;;Y;;Y;
Y;AP;APID;Associated Persons Identifier;30;C;60;;text;;Req;Assigned;Assigned;Sponsor;Identifier;;;UPPERCASE;;;Identifier for a single associated person, a group of associated persons, or a pool of associated persons. If APID identifies a pool, POOLDEF records must exist for each associated person (see Section 4.1.3, Pool Definition Dataset and Section 6, Applying Model Fundamentals to Associated Persons).;Y;;Y;;Y;
Y;AP;__SEQ;Sequence Number;40;N;8;;integer;;Req;Assigned;Assigned;Sponsor;Identifier;;;;;;Sequence number to ensure uniqueness of records within a domain for associated persons. Unique within APID within the domain.;*;;Y;;Y;
Y;AP;RSUBJID;Related Subject or Pool Identifier;50;C;60;;text;;Exp;;;;Record Qualifier;;;UPPERCASE;;;Identifier for a related subject or pool of subjects. RSUBJID may be populated with the USUBJID of the related subject or the POOLID of the related pool. RSUBJID will be null for data about associated persons who are related to the study but not to any study subjects.are related to the study but not to any of the study subjects.;Y;;Y;;Y;
Y;AP;RDEVID;Related Device Identifier;60;C;40;;text;;Perm;;;;Record Qualifier;;;UPPERCASE;;;Identifier for a related device. RDEVID will be populated with the SPDEVID of the related device.;Y;;Y;;Y;
Y;AP;SREL;Subject, Device, or Study Relationship;70;C;40;;text;RELSUB;Req;;;;Record Qualifier;(RELSUB);;UPPERCASE;;;If RSUBJID is populated, describes the relationship of the associated person(s) identified in APID to the subject or pool identified in RSUBJID. If RDEVID is populated, describes the relationship of the associated person(s) identified in APID to the device identified in RDEVID. If RSUBJID and RDEVID are null, SREL describes the relationship of the associated person(s) identified in APID to the study identified in STUDYID.;Y;;Y;;Y;
Y;APRELSUB;STUDYID;Study Identifier;10;C;40;;text;;Req;Protocol;Protocol;Sponsor;Identifier;;;UPPERCASE;;;Unique identifier for a study.;;;;;;
Y;APRELSUB;APID;Associated Persons Identifier;20;C;60;;text;;Req;Assigned;Assigned;Sponsor;Identifier;;;UPPERCASE;;;Identifier for a single associated person, a group of associated persons, or a pool of associated persons. If APID identifies a pool, POOLDEF records must exist for each associated person (see Section 4.1.3, Pool Definition Dataset and Section 6, Applying Model Fundamentals to Associated Persons).;;;;;;
Y;APRELSUB;RSUBJID;Related Subject or Pool Identifier;30;C;60;;text;;Exp;CRF;Collected;Investigator;Record Qualifier;;;UPPERCASE;;;Identifier for a related subject or pool of subjects. RSUBJID may be populated with the USUBJID of the related subject or the POOLID of the related pool.  RSUBJID will be null for data about associated persons who are related to the study but not to any study subjects.;;;;;;
Y;APRELSUB;RDEVID;Related Device Identifier;40;C;40;;text;;Perm;CRF;Collected;Investigator;Record Qualifier;;;UPPERCASE;;;Identifier used to identify a related subject or pool of subjects. RSUBJID will be populated with either the USUBJID of the related subject or the POOLID of the related pool.;;;;;;
Y;APRELSUB;SREL;Subject, Device, or Study Relationship;50;C;40;;text;RELSUB;Req;CRF;Collected;Investigator;Record Qualifier;(RELSUB);;UPPERCASE;;;Describes the relationship of the subject identified in USUBJID or the pool identified in POOLID to the subject or pool identified in RSUBJID.;;;;;;
Y;CO;RDOMAIN;Related Domain Abbreviation;10;C;8;;text;;Perm;Assigned;Assigned;Sponsor;Record Qualifier;*;;UPPERCASE;;Domain abbreviations for domains which are related to at least one other domain. Derived from parent record;Domain Abbreviation of the parent record(s). Null for records collected on general comments or additional information CRF page.;Y;;Y;;;
Y;CO;IDVAR;Identifying Variable;20;C;8;;text;;Perm;Assigned;Assigned;Sponsor;Record Qualifier;*;;UPPERCASE;;;Identifying variable in the parent dataset that identifies the record(s) to which the comment applies. Examples: AESEQ or CMGRPID. Used only when individual comments are related to domain records. Null for comments collected on separate CRFs.;Y;;Y;;;
Y;CO;IDVARVAL;Identifying Variable Value;30;C;40;;text;;Perm;Assigned;Assigned;Sponsor;Record Qualifier;;;UPPERCASE;;;Value of identifying variable of the parent record(s). Null for comments collected on separate CRFs.;Y;;Y;;;
Y;CO;COREF;Comment Reference;40;C;200;;text;;Perm;Assigned;Assigned;Sponsor;Record Qualifier;;;UPPERCASE;;For comments originating from the sponsor source system, the COREF value starts with EDC_FORM_COMMENT;"Sponsor-defined reference associated with the comment. May be the CRF page number (e.g., 650), or a module name (e.g., ""DEMOG""), or a combination of information that identifies the reference (e.g., ""650-VITALS-VISIT 2"").";Y;;Y;;;
Y;CO;COVAL;Comment;50;C;200;;text;;Req;eDT;Collected;Vendor;Topic;;;MIXEDCASE;;;The text of the comment. Text over 200 characters can be added to additional columns COVAL1-COVALn.;Y;;Y;;;
;CO;COVAL1;Comment 1;60;C;200;;text;;Perm;eDT;Collected;Vendor;Topic;;;MIXEDCASE;;;;Y;;Y;;;
;CO;COVAL2;Comment 2;70;C;200;;text;;Perm;eDT;Collected;Vendor;Topic;;;MIXEDCASE;;;;Y;;Y;;;
;CO;COVAL3;Comment 3;80;C;200;;text;;Perm;eDT;Collected;Vendor;Topic;;;MIXEDCASE;;;;Y;;Y;;;
;CO;COVAL4;Comment 4;90;C;200;;text;;Perm;eDT;Collected;Vendor;Topic;;;MIXEDCASE;;;;Y;;Y;;;
;CO;COVAL5;Comment 5;100;C;200;;text;;Perm;eDT;Collected;Vendor;Topic;;;MIXEDCASE;;;;Y;;Y;;;
;CO;COVAL6;Comment 6;110;C;200;;text;;Perm;eDT;Collected;Vendor;Topic;;;MIXEDCASE;;;;Y;;Y;;;
;CO;COVAL7;Comment 7;120;C;200;;text;;Perm;eDT;Collected;Vendor;Topic;;;MIXEDCASE;;;;Y;;Y;;;
;CO;COVAL8;Comment 8;130;C;200;;text;;Perm;eDT;Collected;Vendor;Topic;;;MIXEDCASE;;;;Y;;Y;;;
;CO;COVAL9;Comment 9;140;C;200;;text;;Perm;eDT;Collected;Vendor;Topic;;;MIXEDCASE;;;;Y;;Y;;;
Y;DI;DIPARMCD;Device Identifier Element Short Name;10;C;8;;text;;Req;Assigned;Assigned;Sponsor;Topic;*;;UPPERCASE;;;Short name of the identifier characteristic of the device.;;;;;;
Y;DI;DIPARM;Device Identifier Element Name;20;C;80;;text;;Req;Assigned;Assigned;Sponsor;Synonym Qualifier;*;;UPPERCASE;;;Name of the identifier characteristic of the device.;;;;;;
Y;DI;DIVAL;Device Identifier Element Value;30;C;200;;text;;Req;;;;Result Qualifier;*;;UPPERCASE;;;Value for the parameter.;;;;;;
Y;DM;SUBJID;Subject Identifier for the Study;10;C;40;;text;;Req;CRF;Collected;Investigator;Topic;;;UPPERCASE;;;Subject identifier, which must be unique within the study. Often the ID of the subject as recorded on a CRF.;;;;;;
Y;DM;RFSTDTC;Subject Reference Start Date/Time;20;C;64;;datetime;;Exp;Derived;Derived;Sponsor;Record Qualifier;ISO 8601;!!!;UPPERCASE DATETIME;;;"Reference start date or start date and time for the subject. Usually equivalent to date/time when subject was first exposed to study treatment. Required for all randomized subjects; will be null for all subjects who did not meet the milestone the date requires, such as screen failures or unassigned subjects.";;;;;;
Y;DM;RFENDTC;Subject Reference End Date/Time;30;C;64;;datetime;;Exp;Derived;Derived;Sponsor;Record Qualifier;ISO 8601;!!!;UPPERCASE DATETIME;;;"Reference end date/time for the subject. Usually equivalent to the date/time when subject was determined to have ended the trial, and often equivalent to date/time of last exposure to study treatment. Required for all randomized subjects; null for screen failures or unassigned subjects.";;;;;;
Y;DM;RFXSTDTC;Date/Time of First Study Treatment;40;C;64;;datetime;;Exp;Derived;Derived;Sponsor;Record Qualifier;ISO 8601;!!!;UPPERCASE DATETIME;;Set as date of first dose;First date/time of exposure to any protocol-specified treatment or therapy for the subject.;;;;;;
Y;DM;RFXENDTC;Date/Time of Last Study Treatment;50;C;64;;datetime;;Exp;Derived;Derived;Sponsor;Record Qualifier;ISO 8601;!!!;UPPERCASE DATETIME;;Set as date of last dose;Last date/time of exposure to any protocol-specified treatment or therapy for the subject.;;;;;;
Y;DM;RFICDTC;Date/Time of Informed Consent;60;C;64;;datetime;;Exp;Derived;Derived;Sponsor;Record Qualifier;ISO 8601;!!!;UPPERCASE DATETIME;;If DS record exists with DSTERM=INFORMED CONSENT OBTAINED then RFICDTC=DSSTDTC;Date/time of informed consent.;;;;;;
Y;DM;RFPENDTC;Date/Time of End of Participation;70;C;64;;datetime;;Exp;Derived;Derived;Sponsor;Record Qualifier;ISO 8601;!!!;UPPERCASE DATETIME;;Calculated as the maximum of last visit date, date of last dose, discontinuation date, last adverse event start date and date of screening failure;Date/time when subject ended participation or follow-up in a trial. Should correspond to the last known date of contact.;;;;;;
Y;DM;DTHDTC;Date/Time of Death;80;C;64;;datetime;;Exp;Derived;Derived;Sponsor;Record Qualifier;ISO 8601;!!!;UPPERCASE DATETIME;;If AE record exists with AEOUT=FATAL then DTHDTC=AEENDTC;Date/time of death for any subject who died, in ISO 8601 format. Should represent the date/time that is captured in the clinical-trial database.;;;;;Y;
Y;DM;DTHFL;Subject Death Flag;90;C;2;;text;NY;Exp;Derived;Derived;Sponsor;Record Qualifier;;!!!;UPPERCASE;;If AE record exists with AEOUT=FATAL then DTHFL=Y;"A value of ""Y"" indicates the subject died. Should be ""Y"" or null. Should be populated even when the death date is unknown.";;;;;Y;Y
Y;DM;SITEID;Study Site Identifier;100;C;40;;text;;Req;Assigned;Assigned;Sponsor;Record Qualifier;;;UPPERCASE;;;Unique identifier for a site within a study.;;;;;Y;
Y;DM;INVID;Investigator Identifier;110;C;40;;text;;Perm;Assigned;Assigned;Sponsor;Record Qualifier;;;UPPERCASE;;;An identifier to describe the Investigator for the study. May be used in addition to the SITEID. Not needed if SITEID is equivalent to INVID.;;;;;Y;
Y;DM;INVNAM;Investigator Name;120;C;40;;text;;Perm;Assigned;Assigned;Sponsor;Synonym Qualifier;;;UPPERCASE;;;Name of the investigator for a site.;;;;;Y;
Y;DM;BRTHDTC;Date/Time of Birth;130;C;64;;datetime;;Perm;CRF;Collected;Investigator;Record Qualifier;ISO 8601;;UPPERCASE DATETIME;;;Date/time of birth of the subject.;;;;;Y;
Y;DM;AGE;Age;140;N;8;8,1;float;;Exp;Derived;Derived;Sponsor;Record Qualifier;;!!!;;;Age at start of trial;Age expressed in AGEU. May be derived as (RFSTDTC-BRTHDTC), but BRTHDTC may not be available in all cases (due to subject privacy concerns).;;;;;Y;
Y;DM;AGEU;Age Units;150;C;10;;text;AGEU;Exp;Assigned;Assigned;Sponsor;Variable Qualifier;;;UPPERCASE;;;Units associated with AGE or AGETXT.;;;;;Y;
Y;DM;SEX;Sex;160;C;2;;text;SEX;Req;Assigned;Assigned;Sponsor;Record Qualifier;;;UPPERCASE;;;Sex of the subject.;Y;;Y;;Y;
Y;DM;RACE;Race;170;C;80;;text;RACE;Exp;;;;Record Qualifier;;;UPPERCASE;;;"Race of the subject. Sponsors should refer to ""Collection of Race and Ethnicity Data in Clinical Trials"" (FDA, October 2016) for guidance regarding the collection of race (http://www.fda.gov/downloads/RegulatoryInformation/Guidances/ucm126396.pdf).";;;;;Y;
Y;DM;ETHNIC;Ethnicity;180;C;40;;text;ETHNIC;Perm;CRF;Collected;Investigator;Record Qualifier;;;UPPERCASE;;;"The ethnicity of the subject. Sponsors should refer to ""Collection of Race and Ethnicity Data in Clinical Trials"" (FDA, October 2016) for guidance regarding the collection of ethnicity (http://www.fda.gov/downloads/RegulatoryInformation/Guidances/ucm126396.pdf).";;;;;Y;
Y;DM;ARMCD;Planned Arm Code;190;C;20;;text;ARMCD;Exp;Assigned;Assigned;Sponsor;Record Qualifier;;;UPPERCASE;;;Short name for the Arm to which the subject was assigned, limited to 20 characters.;;;;;;
Y;DM;ARM;Description of Planned Arm;200;C;40;;text;ARM;Exp;Protocol;Protocol;Sponsor;Synonym Qualifier;;;UPPERCASE;;;Name of the Arm to which the subject was assigned.;;;;;;
Y;DM;ACTARMCD;Actual Arm Code;210;C;40;;text;ACTARMCD;Exp;Assigned;Assigned;Sponsor;Record Qualifier;;;UPPERCASE;;;Short name for the actual Arm in which the subject participated during the trial, limited to 20 characters.;;;;;;
Y;DM;ACTARM;Description of Actual Arm;220;C;40;;text;ACTARM;Exp;Protocol;Protocol;Sponsor;Synonym Qualifier;;;UPPERCASE;;;Description of the actual Arm in which the subject participated during the trial.;;;;;;
Y;DM;ARMNRS;Reason Arm and/or Actual Arm is Null;230;C;200;;text;;Perm;;;;Record Qualifier;*;;;;;"The reason why the actual arm variables are null or why both the planned and actual arm variables are null. Examples: ""SCREEN FAILURE"", ""NOT ASSIGNED"", ""NOT TREATED"", ""UNPLANNED TREATMENT"". It is assumed that if the arm and actual arm variables are null, the same reason applies to both.";Y;;Y;;;
Y;DM;ACTARMUD;Description of Unplanned Actual Arm;240;C;200;;text;;Perm;;;;Record Qualifier;;;;;;A description of actual treatment for a subject who did not receive treatment described in one of the planned trial arms.;Y;;Y;;;
Y;DM;COUNTRY;Country;250;C;3;;text;COUNTRY;Req;Assigned;Assigned;Sponsor;Record Qualifier;ISO 3166-1 Alpha-3;;UPPERCASE;;;Country of the investigation site at which the subject participated in the trial.;;;;;Y;
Y;EG;EGBEATNO;ECG Beat Number;10;N;8;;integer;;Perm;;;;Variable Qualifier;;;;;;A sequence number that identifies the beat within an ECG.;Y;;Y;;;
Y;EVENTS;__TERM;Reported Term;10;C;200;;text;;Req;CRF;Collected;Investigator;Topic;*;;UPPERCASE;;Topic variable for an event observation, which is the verbatim or pre-specified name of the event.;Topic variable for an event observation, which is the verbatim or pre-specified name of the event.;Y;;Y;;Y;
Y;EVENTS;__MODIFY;Modified Reported Term;20;C;200;;text;;Perm;Assigned;Assigned;Sponsor;Synonym Qualifier;;;UPPERCASE;;If the value for --TERM is modified for coding purposes, then the modified text is placed here.;If the value for --TERM is modified for coding purposes, then the modified text is placed here.;Y;;Y;;;
Y;EVENTS;__LLT;Lowest Level Term;30;C;200;;text;;Exp;Assigned;Assigned;Sponsor;Variable Qualifier;MedDRA;;MIXEDCASE;;MedDRA Lowest Level Term.;MedDRA Lowest Level Term.;;;;;;
Y;EVENTS;__LLTCD;Lowest Level Term Code;40;N;8;;integer;;Exp;Assigned;Assigned;Sponsor;Variable Qualifier;MedDRA;;;;MedDRA Lowest Level Term code.;MedDRA Lowest Level Term code.;Y;;Y;;;
Y;EVENTS;__DECOD;Dictionary-Derived Term;50;C;200;;text;;Perm;Assigned;Assigned;Sponsor;Synonym Qualifier;*;;MIXEDCASE;;Dictionary or sponsor-defined derived text description of the topic variable, --TERM, or the modified topic variable (--MODIFY), if applicable. Equivalent to the Preferred Term (PT in MedDRA).;Dictionary or sponsor-defined derived text description of the topic variable, --TERM, or the modified topic variable (-- MODIFY), if applicable. Equivalent to the Preferred Term (PT in MedDRA).;Y;;Y;;;
Y;EVENTS;__PTCD;Preferred Term Code;60;N;8;;integer;;Exp;Assigned;Assigned;Sponsor;Variable Qualifier;MedDRA;;;;MedDRA Preferred Term code.;MedDRA Preferred Term code.;Y;;Y;;;
Y;EVENTS;__HLT;High Level Term;70;C;200;;text;;Exp;Assigned;Assigned;Sponsor;Variable Qualifier;MedDRA;;MIXEDCASE;;MedDRA High Level Term from the primary path.;MedDRA High Level Term from the primary path.;;;;;;
Y;EVENTS;__HLTCD;High Level Term Code;80;N;8;;integer;;Exp;Assigned;Assigned;Sponsor;Variable Qualifier;MedDRA;;;;MedDRA High Level Term code from the primary path.;MedDRA High Level Term code from the primary path.;Y;;Y;;;
Y;EVENTS;__HLGT;High Level Group Term;90;C;200;;text;;Exp;Assigned;Assigned;Sponsor;Variable Qualifier;MedDRA;;MIXEDCASE;;MedDRA High Level Group Term from the primary path.;MedDRA High Level Group Term from the primary path.;;;;;;
Y;EVENTS;__HLGTCD;High Level Group Term Code;100;N;8;;integer;;Exp;Assigned;Assigned;Sponsor;Variable Qualifier;MedDRA;;;;MedDRA High Level Group Term code from the primary path.;MedDRA High Level Group Term code from the primary path.;Y;;Y;;;
Y;EVENTS;__CAT;Category;110;C;60;;text;;Perm;Assigned;Assigned;Sponsor;Grouping Qualifier;*;;UPPERCASE;;Used to define a category of topic-variable values.;Used to define a category of topic-variable values.;Y;;Y;;Y;
Y;EVENTS;__SCAT;Subcategory;120;C;60;;text;;Perm;Assigned;Assigned;Sponsor;Grouping Qualifier;*;;UPPERCASE;;Used to define a further categorization of --CAT values.;Used to define a further categorization of --CAT values.;Y;;Y;;Y;
Y;EVENTS;__PRESP;Pre-specified;130;C;2;;text;NY;Perm;;;;Variable Qualifier;(NY);;UPPERCASE;;Used to indicate whether the event described by --TERM was pre-specified on a CRF. Value is Y for pre-specified events, null for spontaneously reported events.;Used to indicate whether the event described by --TERM was pre-specified on a CRF. Value is Y for pre-specified events, null for spontaneously reported events.;;;;;;
Y;EVENTS;__OCCUR;Occurrence;140;C;2;;text;NY;Perm;;;;Record Qualifier;(NY);;UPPERCASE;;Used to record whether a pre-specified event occurred when information about the occurrence of a specific event is solicited.;Used to record whether a pre-specified event occurred when information about the occurrence of a specific event is solicited.;;;;;;
Y;EVENTS;__STAT;Completion Status;150;C;40;;text;ND;Perm;;;;Record Qualifier;(ND);;UPPERCASE;;Used to indicate when a question about the occurrence of a pre-specified event was not answered. Should be null or have a value of NOT DONE.;Used to indicate when a question about the occurrence of a pre-specified event was not answered. Should be null or have a value of NOT DONE.;Y;;Y;;;
Y;EVENTS;__REASND;Reason Not Done;160;C;200;;text;;Perm;;;;Record Qualifier;;;UPPERCASE;;Reason not done. Used in conjunction with --STAT when its value is NOT DONE.;"Reason not done. Used in conjunction with --STAT when its value is ""NOT DONE"".";Y;;Y;;;
Y;EVENTS;__BODSYS;Body System or Organ Class;170;C;200;;text;;Perm;Assigned;Assigned;Sponsor;Record Qualifier;MedDRA;;MIXEDCASE;;Body system or system organ class assigned for analysis from a standard hierarchy (e.g. MedDRA) associated with an event. Example: GASTROINTESTINAL DISORDERS.;Body system or system organ class assigned for analysis from a standard hierarchy (e.g. MedDRA) associated with an event. Example: GASTROINTESTINAL DISORDERS.;Y;;Y;;;
Y;EVENTS;__BDSYCD;Body System or Organ Class Code;180;N;8;;integer;;Exp;Assigned;Assigned;Sponsor;Variable Qualifier;MedDRA;;;;MedDRA System Organ Class code corresponding to --BODSYS assigned for analysis.;MedDRA System Organ Class code corresponding to -- BODSYS assigned for analysis.;Y;;Y;;;
Y;EVENTS;__SOC;Primary System Organ Class;190;C;200;;text;;Exp;Assigned;Assigned;Sponsor;Variable Qualifier;MedDRA;;MIXEDCASE;;MedDRA primary System Organ Class associated with the event.;MedDRA primary System Organ Class associated with the event.;;;;;;
Y;EVENTS;__SOCCD;Primary System Organ Class Code;200;N;8;;integer;;Exp;Assigned;Assigned;Sponsor;Variable Qualifier;MedDRA;;;;MedDRA primary System Organ Class code.;MedDRA primary System Organ Class code.;Y;;Y;;;
Y;EVENTS;__LOC;Location of Event;210;C;100;;text;LOC;Perm;;;;Record Qualifier;(LOC);;UPPERCASE;;Describes anatomical location relevant for the event. Example: ARM for skin rash.;"Describes anatomical location relevant for the event. Example: ""ARM"" for skin rash.";Y;;Y;;;
Y;EVENTS;__LAT;Laterality;220;C;40;;text;LAT;Perm;;;;Variable Qualifier;(LAT);;UPPERCASE;;;"Qualifier for anatomical location further detailing laterality. Examples: ""RIGHT"", ""LEFT"", ""BILATERAL"".";Y;;Y;;;
Y;EVENTS;__DIR;Directionality;230;C;40;;text;DIR;Perm;;;;Variable Qualifier;(DIR);;UPPERCASE;;;"Qualifier for anatomical location further detailing directionality. Examples: ""ANTERIOR"", ""LOWER"", ""PROXIMAL"".";;;;;;
Y;EVENTS;__PORTOT;Portion or Totality;240;C;40;;text;PORTOT;Perm;;;;Variable Qualifier;(PORTOT);;UPPERCASE;;;"Qualifier for anatomical location further detailing the distribution, which means arrangement of, apportioning of. Examples: ""ENTIRE"", ""SINGLE"", ""SEGMENT"", ""MANY"".";;;;;;
Y;EVENTS;__PARTY;Accountable Party;250;C;80;;text;;Req;;;;Record Qualifier;*;;UPPERCASE;;;Party accountable for the transferable object (e.g., device, specimen) as a result of the activity performed in the associated --TERM variable. The party could be an individual (e.g., subject), an organization (e.g., sponsor), or a location that is a proxy for an individual or organization (e.g., site). It is usually a somewhat general term that is further identified in the --PRTYID variable.;;;;;;
Y;EVENTS;__PRTYID;Identification of Accountable Party;260;C;40;;text;;Exp;Assigned;Assigned;Sponsor;Variable Qualifier;;;UPPERCASE;;;Identification of the specific party accountable for the transferable object (e.g. device, specimen) after the action in -- TERM is taken. Used in conjunction with --PARTY.;;;;;;
Y;EVENTS;__SEV;Severity/Intensity;270;C;80;;text;;Perm;CRF;Collected;Investigator;Record Qualifier;*;;UPPERCASE;;The severity or intensity of the event. Examples: MILD, MODERATE, SEVERE.;"The severity or intensity of the event. Examples: ""MILD"", ""MODERATE"", ""SEVERE"".";Y;;Y;;;
Y;EVENTS;__SER;Serious Event;280;C;2;;text;NY;Exp;CRF;Collected;Investigator;Record Qualifier;(NY);;UPPERCASE;;"Is this is a serious event? Valid values are ""Y"" and ""N"".";"Is this is a serious event? Valid values are ""Y"" and ""N"".";Y;;Y;;;
Y;EVENTS;__ACN;Action Taken with Study Treatment;290;C;40;;text;ACN;Exp;CRF;Collected;Investigator;Record Qualifier;(ACN);;UPPERCASE;;Describes changes made to the study treatment as a result of the event. Examples: DOSE INCREASED, DOSE NOT CHANGED.;"Describes changes made to the study treatment as a result of the event. Examples: ""DOSE INCREASED"", ""DOSE NOT CHANGED"".";Y;;Y;;;
Y;EVENTS;__ACNOTH;Other Action Taken;300;C;200;;text;;Perm;CRF;Collected;Investigator;Record Qualifier;;;UPPERCASE;;Describes other actions taken as a result of the event that are unrelated to dose adjustments of study treatment.;Describes other actions taken as a result of the event that are unrelated to dose adjustments of study treatment.;Y;;Y;;;
Y;EVENTS;__ACNDEV;Action Taken with Device;310;C;80;;text;;Perm;;;;Record Qualifier;*;;UPPERCASE;;;Action taken with respect to a device in a study, which may or may not be the device under study;;;;;;
Y;EVENTS;__REL;Causality;320;C;80;;text;;Exp;CRF;Collected;Investigator;Record Qualifier;*;;UPPERCASE;;Records the investigator's opinion as to the causality of the event to the treatment. ICH E2A and E2B examples include NOT RELATED, UNLIKELY RELATED, POSSIBLY RELATED, RELATED.;"Records the investigator's opinion as to the causality of the event to the treatment. ICH E2A and E2B examples include ""NOT RELATED"", ""UNLIKELY RELATED"", ""POSSIBLY RELATED"", ""RELATED"".";Y;;Y;;;
Y;EVENTS;__RELNST;Relationship to Non-Study Treatment;330;C;40;;text;;Perm;CRF;Collected;Investigator;Record Qualifier;;;UPPERCASE;;"An opinion as to whether the event may have been due to a treatment other than study drug. Example: ""MORE LIKELY RELATED TO ASPIRIN USE.""";"An opinion as to whether the event may have been due to a treatment other than study drug. Example: ""MORE LIKELY RELATED TO ASPIRIN USE.""";;;;;;
Y;EVENTS;__PATT;Pattern of Event;340;C;80;;text;;Perm;;;;Record Qualifier;*;;UPPERCASE;;Used to indicate the pattern of the event over time. Examples: INTERMITTENT, CONTINUOUS, SINGLE EVENT.;"Used to indicate the pattern of the event over time. Examples: ""INTERMITTENT"", ""CONTINUOUS"", ""SINGLE EVENT"".";;;;;;
Y;EVENTS;__OUT;Outcome of Event;350;C;40;;text;OUT;Perm;CRF;Collected;Investigator;Record Qualifier;(OUT);;UPPERCASE;;Description of the outcome of an event. Examples: RECOVERED/RESOLVED, FATAL.;"Description of the outcome of an event. Examples: ""RECOVERED/RESOLVED"", ""FATAL"".";;;;;;
Y;EVENTS;__SCAN;Involves Cancer;360;C;2;;text;NY;Perm;CRF;Collected;Investigator;Record Qualifier;(NY);;UPPERCASE;;"Was the event associated with the development of cancer? Valid values are ""Y"" and ""N"".";"Was the event associated with the development of cancer? Valid values are ""Y"", ""N"", and null.";;;;;;
Y;EVENTS;__SCONG;Congenital Anomaly or Birth Defect;370;C;2;;text;NY;Perm;CRF;Collected;Investigator;Record Qualifier;(NY);;UPPERCASE;;"Was the event associated with congenital anomaly or birth defect? Valid values are ""Y"" and ""N"".";"Was the event associated with congenital anomaly or birth defect? Valid values are ""Y"", ""N"", and null.";;;;;;
Y;EVENTS;__SDISAB;Persist or Signif Disability/Incapacity;380;C;2;;text;NY;Perm;CRF;Collected;Investigator;Record Qualifier;(NY);;UPPERCASE;;"Did the event result in persistent or significant disability/incapacity? Valid values are ""Y"" and ""N"".";"Did the event result in persistent or significant disability/incapacity? Valid values are ""Y"", ""N"", and null.";;;;;;
Y;EVENTS;__SDTH;Results in Death;390;C;2;;text;NY;Perm;CRF;Collected;Investigator;Record Qualifier;(NY);;UPPERCASE;;"Did the event result in death? Valid values are ""Y"" and ""N"".";"Did the event result in death? Valid values are ""Y"", ""N"", and null.";Y;;Y;;;
Y;EVENTS;__SHOSP;Requires or Prolongs Hospitalization;400;C;2;;text;NY;Perm;CRF;Collected;Investigator;Record Qualifier;(NY);;UPPERCASE;;"Did the event require or prolong hospitalization? Valid values are ""Y"" and ""N"".";"Did the event require or prolong hospitalization? Valid values are ""Y"", ""N"", and null.";Y;;Y;;;
Y;EVENTS;__SLIFE;Is Life Threatening;410;C;2;;text;NY;Perm;CRF;Collected;Investigator;Record Qualifier;(NY);;UPPERCASE;;"Was the event life threatening? Valid values are ""Y"" and ""N"".";"Was the event life threatening? Valid values are ""Y"", ""N"", and null.";Y;;Y;;;
Y;EVENTS;__SOD;Occurred with Overdose;420;C;2;;text;NY;Perm;CRF;Collected;Investigator;Record Qualifier;(NY);;UPPERCASE;;"Did the event occur with an overdose? Valid values are ""Y"" and ""N"".";"Did the event occur with an overdose? Valid values are ""Y"", ""N"", and null.";;;;;;
Y;EVENTS;__SMIE;Other Medically Important Serious Event;430;C;2;;text;NY;Perm;CRF;Collected;Investigator;Record Qualifier;(NY);;UPPERCASE;;"Do additional categories for seriousness apply? Valid values are ""Y"" and ""N"".";"Do additional categories for seriousness apply? Valid values are ""Y"", ""N"", and null.";Y;;Y;;;
Y;EVENTS;__CONTRT;Concomitant or Additional Trtmnt Given;440;C;2;;text;NY;Perm;;;;Record Qualifier;(NY);;UPPERCASE;;"Was another treatment given because of the occurrence of the event? Valid values are ""Y"" and ""N"".";"Was another treatment given because of the occurrence of the event? Valid values are ""Y"", ""N"", and null.";Y;;Y;;;
Y;EVENTS;__TOX;Toxicity;450;C;80;;text;;Perm;Assigned;Assigned;Sponsor;Variable Qualifier;*;;UPPERCASE;;Description of toxicity quantified by --TOXGR such as NCI CTCAE Short Name. Examples: HYPERCALCEMIA, HYPOCALCEMIA. Sponsor should specify which scale and version is used in the Sponsor Comments column of the Define.xml document.;"Description of toxicity quantified by --TOXGR such as NCI CTCAE Short Name. Examples: ""HYPERCALCEMIA"", ""HYPOCALCEMIA"". Sponsor should specify which scale and version is used in the Sponsor Comments column of the Define-XML document.";Y;;Y;;;
Y;EVENTS;__TOXGR;Toxicity Grade;460;C;80;;text;;Perm;Assigned;Assigned;Sponsor;Record Qualifier;*;;UPPERCASE;;Records toxicity grade using a standard toxicity scale (such as the NCI CTCAE). Sponsor should specify which scale and version is used in the Sponsor Comments column of the Define.xml document.;Records toxicity grade using a standard toxicity scale (such as the NCI CTCAE). Sponsor should specify which scale and version is used in the Sponsor Comments column of the Define.XML document.;Y;;Y;;;
Y;FINDINGS;__TESTCD;Short Name of Measurement, Test or Examination;10;C;8;;text;;Req;Assigned;Assigned;Sponsor;Topic;*;;UPPERCASE;;Short character value for --TEST used as a column name when converting a dataset from a vertical format to a horizontal format. The short value can be up to 8 characters. Examples: PLAT, SYSBP, RRMIN, EYEEXAM.;"Short character value for --TEST used as a column name when converting a dataset from a vertical format to a horizontal format. The short value can be up to 8 characters. Examples: ""PLAT"", ""SYSBP"", ""RRMIN"", ""EYEEXAM"".";Y;;Y;;Y;
Y;FINDINGS;__TEST;Name of Measurement, Test or Examination;20;C;40;;text;;Req;Assigned;Assigned;Sponsor;Synonym Qualifier;*;;MIXEDCASE;;Long name For --TESTCD. Examples: Platelet, Systolic Blood Pressure, Summary (Min) RR Duration, Eye Examination.;Long name For --TESTCD. Examples: Platelet, Systolic Blood Pressure, Summary (Min) RR Duration, Eye Examination.;Y;;Y;;Y;
Y;FINDINGS;__MODIFY;Modified Term;30;C;200;;text;;Perm;;;;Synonym Qualifier;;;UPPERCASE;;If the value of --ORRES is modified for coding purposes, then the modified text is placed here.;If the value of --ORRES is modified for coding purposes, then the modified text is placed here.;;;;;;
Y;FINDINGS;__TSTDTL;Measurement, Test or Examination Detail;40;C;200;;text;;Perm;;;;Record Qualifier;;;UPPERCASE;;;"Further description of --TESTCD and --TEST. Example: ""The percentage of cells with +1 intensity of staining"" when MITEST = ""Thyroid Transcription Factor 1"".";;;;;;
Y;FINDINGS;__CAT;Category;50;C;60;;text;;Perm;Assigned;Assigned;Sponsor;Grouping Qualifier;*;;UPPERCASE;;Used to define a category of topic-variable values. Examples: HEMATOLOGY, URINALYSIS, CHEMISTRY, HAMILTON DEPRESSION SCALE, SF36.;"Used to define a category of topic-variable values. Examples: ""HEMATOLOGY"", ""URINALYSIS"", ""CHEMISTRY"", ""HAMD 17"", ""SF36 V2.0 ACUTE"", ""EGFR MUTATION ANALYSIS"".";Y;;Y;;Y;
Y;FINDINGS;__SCAT;Subcategory;60;C;60;;text;;Perm;Assigned;Assigned;Sponsor;Grouping Qualifier;*;;UPPERCASE;;Used to define a further categorization of --CAT values. Example: DIFFERENTIAL.;"Used to define a further categorization of --CAT values. Example: ""WBC DIFFERENTIAL"".";Y;;Y;;Y;
Y;FINDINGS;__POS;Position of Subject During Observation;70;C;40;;text;POSITION;Perm;;;;Record Qualifier;(POSITION);;UPPERCASE;;Position of the subject during a measurement or examination. Examples: SUPINE, STANDING, SITTING.;"Position of the subject during a measurement or examination. Examples: ""SUPINE"", ""STANDING"", ""SITTING"".";;;;;;
Y;FINDINGS;__BODSYS;Body System or Organ Class;80;C;200;;text;;Perm;;;;Record Qualifier;MedDRA;;MIXEDCASE;;Body System or Organ Class that is involved for a finding from the standard hierarchy for dictionary-coded results. Example: MedDRA SOC.;Body System or Organ Class that is involved for a finding from the standard hierarchy for dictionary-coded results. Example: MedDRA SOC.;;;;;;
Y;FINDINGS;__ORRES;Result or Finding in Original Units;90;C;200;;text;NY;Exp;CRF;Collected;Investigator;Result Qualifier;(NY);;UPPERCASE;;Result of the measurement or finding as originally received or collected. Examples: 120, <1, POS.;"Result of the measurement or finding as originally received or collected. Examples: ""120"", ""<1"", ""POS"".";Y;;Y;;Y;
Y;FINDINGS;__ORRESU;Original Units;100;C;40;;text;UNIT;Exp;Assigned;Assigned;Sponsor;Variable Qualifier;(UNIT);;MIXEDCASE;;Unit for --ORRES. Examples: IN, LB, kg/L.;"Unit for --ORRES and --ORREF. Examples: ""in"", ""LB"", ""kg/L"".";Y;;Y;;Y;
Y;FINDINGS;__ORNRLO;Normal Range Lower Limit-Original Units;110;C;40;;text;;Exp;CRF;Collected;Investigator;Variable Qualifier;;;UPPERCASE;;Lower end of normal range or reference range for results stored in --ORRES.;Lower end of normal range or reference range for results stored in --ORRES.;;;;;;
Y;FINDINGS;__ORNRHI;Normal Range Upper Limit-Original Units;120;C;40;;text;;Exp;CRF;Collected;Investigator;Variable Qualifier;;;UPPERCASE;;Upper end of normal range or reference range for results stored in --ORRES.;Upper end of normal range or reference range for results stored in --ORRES.;;;;;;
Y;FINDINGS;__ORREF;Reference Result in Original Units;130;C;200;;text;;Perm;;;;Variable Qualifier;;;UPPERCASE;;;Reference value for the result or finding as originally received or collected. --ORREF uses the same units as --ORRES, if applicable. Examples: value from predicted normal value in spirometry tests.;;;;;;
Y;FINDINGS;__STRESC;Result or Finding in Standard Format;140;C;200;;text;;Exp;Derived;Derived;Sponsor;Result Qualifier;;;UPPERCASE;;"Contains the result value for all findings, copied or derived from --ORRES in a standard format or in standard units. --STRESC should store all results or findings in character format; if results are numeric, they should also be stored in numeric format in --STRESN. For example, if various tests have results ""NONE"", ""NEG"", and ""NEGATIVE"" in --ORRES and these results effectively have the same meaning, they could be represented in standard format in --STRESC as ""NEGATIVE"".";"Contains the result value for all findings, copied or derived from --ORRES in a standard format or in standard units. --STRESC should store all results or findings in character format; if results are numeric, they should also be stored in numeric format in --STRESN. For example, if various tests have results ""NONE"", ""NEG"", and ""NEGATIVE"" in --ORRES and these results effectively have the same meaning, they could be represented in standard format in --STRESC as ""NEGATIVE"".";Y;;Y;;Y;
Y;FINDINGS;__CONCU;Agent Concentration Units;150;C;40;;text;UNIT;Perm;Assigned;Assigned;Sponsor;Variable Qualifier;(UNIT);;MIXEDCASE;;;"Units for value of the agent concentration listed in MSCONC. Example: ""mg/L"".";;;;;;
Y;FINDINGS;__STRESN;Numeric Result/Finding in Standard Units;160;N;8;8,3;float;;Exp;;;;Result Qualifier;;;;;"Used for continuous or numeric results or findings in standard format; copied in numeric format from --STRESC. --STRESN should store all numeric test results or findings.";"Used for continuous or numeric results or findings in standard format; copied in numeric format from --STRESC. --STRESN should store all numeric test results or findings.";;;;;Y;
Y;FINDINGS;__CONC;Agent Concentration;170;C;200;;text;;Perm;;;;Variable Qualifier;;;UPPERCASE;;;Numeric concentration of agent listed in MSAGENT.;;;;;;
Y;FINDINGS;__STRESU;Standard Units;180;C;40;;text;UNIT;Exp;Assigned;Assigned;Sponsor;Variable Qualifier;(UNIT);;MIXEDCASE;;Standardized units used for --STRESC and --STRESN. Example: mol/L.;"Standardized units used for --STRESC, --STRESN, --STREFC, and --STREFN. Example: ""mol/L"".";;;;;Y;
Y;FINDINGS;__STNRLO;Normal Range Lower Limit-Standard Units;190;N;8;8,3;float;;Perm;Assigned;Assigned;Sponsor;Variable Qualifier;;;;;Lower end of normal range or reference range for standardized results (e.g., --STRESC, --STRESN) represented in standardized units (--STRESU).;Lower end of normal range or reference range for standardized results (e.g., --STRESC, --STRESN) represented in standardized units (--STRESU).;;;;;;
Y;FINDINGS;__STNRHI;Normal Range Upper Limit-Standard Units;200;N;8;8,3;float;;Perm;Assigned;Assigned;Sponsor;Variable Qualifier;;;;;Upper end of normal range or reference range for standardized results (e.g., --STRESC, --STRESN) represented in standardized units (--STRESU).;Upper end of normal range or reference range for standardized results (e.g., --STRESC, --STRESN) represented in standardized units (--STRESU).;;;;;;
Y;FINDINGS;__STNRC;Normal Range for Character Results;210;C;40;;text;;Perm;;;;Variable Qualifier;;;UPPERCASE;;Normal range or reference range for results stored in --STRESC that are character in ordinal or categorical scale. Example: Negative to Trace.;"Normal range or reference range for results stored in --STRESC that are character in ordinal or categorical scale. Example: ""Negative to Trace"".";;;;;;
Y;FINDINGS;__NRIND;Normal/Reference Range Indicator;220;C;20;;text;NRIND;Exp;;;;Variable Qualifier;(NRIND);;UPPERCASE;;"Used to indicate the value is outside the normal range or reference range. May be defined by --ORNRLO and --ORNRHI or other objective criteria. Examples: Y, N; HIGH, LOW; NORMAL; ABNORMAL.";"Used to indicate the value is outside the normal range or reference range. May be defined by --ORNRLO and --ORNRHI or other objective criteria. Examples: ""Y"", ""N""; ""HIGH"", ""LOW""; ""NORMAL"", ""ABNORMAL"".";;;;;;
Y;FINDINGS;__STREFC;Reference Result in Standard Format;230;C;200;;text;;Perm;;;;Variable Qualifier;;;UPPERCASE;;;Reference value for the result or finding copied or derived from --ORREF in a standard format.;;;;;;
Y;FINDINGS;__RESCAT;Result Category;240;C;60;;text;;Perm;;;;Variable Qualifier;*;;UPPERCASE;;Used to categorize the result of a finding. Example: MALIGNANT or BENIGN for tumor findings.;"Used to categorize the result of a finding. Example: ""MALIGNANT"" or ""BENIGN"" for tumor findings.";;;;;;
Y;FINDINGS;__STREFN;Numeric Reference Result in Std Units;250;N;8;8,3;float;;Perm;;;;Variable Qualifier;;;;;;Reference value for continuous or numeric results or findings in standard format or in standard units. --STREFN uses the same units as --STRESN, if applicable.;;;;;;
Y;FINDINGS;__STAT;Completion Status;260;C;40;;text;ND;Perm;;;;Record Qualifier;(ND);;UPPERCASE;;Used to indicate that a question was not asked or a test was not done, or a test was attempted but did not generate a result. Should be null or have a value of NOT DONE.;"Used to indicate that a question was not asked or a test was not done, or a test was attempted but did not generate a result. Should be null or have a value of ""NOT DONE"".";Y;;Y;;Y;
Y;FINDINGS;__REASND;Reason Not Done;270;C;200;;text;;Perm;;;;Record Qualifier;;;UPPERCASE;;Reason not done. Used in conjunction with --STAT when value is NOT DONE.;"Reason not done. Used in conjunction with --STAT when value is ""NOT DONE"".";Y;;Y;;Y;
Y;FINDINGS;__CHRON;Chronicity of Finding;280;C;40;;text;;Perm;;;;Variable Qualifier;;;UPPERCASE;;;"Characterization of the duration of a biological process resulting in a particular finding. Examples: ""ACUTE"", ""CHRONIC"", ""SUBACUTE"".";;;;;;
Y;FINDINGS;__XFN;External File Path;290;C;200;;text;;Perm;CRF;Collected;Investigator;Record Qualifier;;;UPPERCASE;;Filename for an external file, such as one for an ECG waveform or a medical image.;Filename for an external file, such as one for an ECG waveform or a medical image.;;;;;;
Y;FINDINGS;__DISTR;Distribution Pattern of Finding;300;C;40;;text;;Perm;;;;Variable Qualifier;;;UPPERCASE;;;"Description of the distribution pattern of a finding within the examined area. Examples: ""FOCAL"", ""MULTIFOCAL"", ""DIFFUSE"", ""FOCAL"", ""MULTIFOCAL"".";;;;;;
Y;FINDINGS;__NAM;Laboratory/Vendor Name;310;C;40;;text;;Perm;;;;Record Qualifier;;;UPPERCASE;;Name or identifier of the vendor (e.g., laboratory) that provided the test results.;Name or identifier of the vendor (e.g., laboratory) that provided the test results.;;;;;;
Y;FINDINGS;__LOINC;LOINC Code;320;C;200;;text;;Perm;Assigned;Assigned;Sponsor;Synonym Qualifier;*;;UPPERCASE;;Logical Observation Identifiers Names and Codes (LOINC) code for the topic variable such as a lab test.;Logical Observation Identifiers Names and Codes (LOINC) code for the topic variable such as a lab test.;;;;;;
Y;FINDINGS;__SPEC;Specimen Material Type;330;C;80;;text;SPECTYPE;Perm;;;;Record Qualifier;(SPECTYPE);;UPPERCASE;;Defines the type of specimen used for a measurement. Examples: SERUM, PLASMA, URINE.;"Defines the type of specimen used for a measurement. Examples: ""SERUM"", ""PLASMA"", ""URINE"", ""DNA"", ""RNA"".";;;;;;
Y;FINDINGS;__ANTREG;Anatomical Region;340;C;40;;text;;Perm;;;;Variable Qualifier;;;UPPERCASE;;;Defines the specific anatomical or biological region of a tissue, organ specimen or the region from which the specimen is obtained, as defined in the protocol, such as a section or part of what is described in the --SPEC variable. Examples: CORTEX, MEDULLA, MUCOSA;;;;;;
Y;FINDINGS;__SPCCND;Specimen Condition;350;C;40;;text;SPECCOND;Perm;;;;Record Qualifier;(SPECCOND);;UPPERCASE;;Defines the condition of the specimen. Example: CLOUDY.;Defines the condition of the specimen. Example: CLOUDY.;;;;;;
Y;FINDINGS;__SPCUFL;Specimen Usability for the Test;360;C;2;;text;NY;Perm;;;;Record Qualifier;(NY);;UPPERCASE;;Describes the usability of the specimen for the test. The value will be N if the specimen is not usable, and null if the specimen is usable.;"Describes the usability of the specimen for the test. The value will be ""N"" if the specimen is not usable, and null if the specimen is usable.";;;;;;N
Y;FINDINGS;__LOC;Location Used for the Measurement;370;C;100;;text;LOC;Perm;;;;Record Qualifier;(LOC);;UPPERCASE;;Anatomical location of the subject relevant to the collection of the measurement. Examples: RECTAL for temperature, ARM for blood pressure.;"Anatomical location of the subject relevant to the collection of the measurement. Examples: ""RECTAL"" for temperature, ""ARM"" for blood pressure.";;;;;;
Y;FINDINGS;__LAT;Laterality;380;C;40;;text;LAT;Perm;;;;Variable Qualifier;(LAT);;UPPERCASE;;Qualifier for anatomical location or specimen further detailing laterality. Examples: RIGHT, LEFT, BILATERAL;"Qualifier for anatomical location or specimen further detailing laterality. Examples: ""RIGHT"", ""LEFT"", ""BILATERAL"".";Y;;Y;;;
Y;FINDINGS;__DIR;Directionality;390;C;40;;text;DIR;Perm;;;;Variable Qualifier;(DIR);;UPPERCASE;;Qualifier for anatomical location or specimen further detailing directionality. Examples: ANTERIOR, LOWER, PROXIMAL;"Qualifier for anatomical location or specimen further detailing directionality. Examples: ""ANTERIOR"", ""LOWER"", ""PROXIMAL"".";;;;;;
Y;FINDINGS;__PORTOT;Portion or Totality;400;C;40;;text;PORTOT;Perm;;;;Variable Qualifier;(PORTOT);;UPPERCASE;;Qualifier for anatomical location or specimen further detailing the distribution, which means arrangement of, apportioning of. . Examples: ENTIRE, SINGLE, SEGMENT, MANY.;"Qualifier for anatomical location or specimen further detailing the distribution, which means arrangement of, apportioning of. Examples: ""ENTIRE"", ""SINGLE"", ""SEGMENT"", ""MANY"".";;;;;;
Y;FINDINGS;__METHOD;Method of Test or Examination;410;C;80;;text;METHOD;Perm;;;;Record Qualifier;(METHOD);;UPPERCASE;;Method of the test or examination. Examples: EIA (Enzyme Immunoassay), ELECTROPHORESIS, DIPSTICK;"Method of the test or examination. Examples: ""EIA"" (enzyme immunoassay), ""ELECTROPHORESIS"", ""DIPSTICK"".";;;;;;
Y;FINDINGS;__RUNID;Run ID;420;C;40;;text;;Perm;;;;Record Qualifier;;;UPPERCASE;;;A unique identifier for a particular run of a test on a particular batch of samples.;;;;;;
Y;FINDINGS;__ANMETH;Analysis Method;430;C;80;;text;;Perm;;;;Record Qualifier;*;;UPPERCASE;;;Analysis method applied to obtain a summarized result. Analysis method describes the method of secondary processing applied to a complex observation result (e.g. an image or a genetic sequence).;;;;;;
Y;FINDINGS;__LEAD;Lead Identified to Collect Measurements;440;C;40;;text;LOC;Perm;;;;Record Qualifier;(LOC);;UPPERCASE;;Lead or leads identified to capture the measurement for a test from an instrument. Examples: LEAD I, LEAD V2, LEAD CM5.;"Lead or leads identified to capture the measurement for a test from an instrument. Examples: ""LEAD I"", ""LEAD V2"", ""LEAD CM5"".";;;;;;
Y;FINDINGS;__CSTATE;Consciousness State;450;C;40;;text;;Perm;;;;Record Qualifier;;;UPPERCASE;;The consciousness state of the subject at the time of measurement. Examples: CONSCIOUS, SEMI-CONSCIOUS, UNCONSCIOUS;"The consciousness state of the subject at the time of measurement. Examples: ""CONSCIOUS"", ""SEMI-CONSCIOUS"", ""UNCONSCIOUS"".";;;;;;
Y;FINDINGS;__BLFL;Baseline Flag;460;C;2;;text;NY;Exp;Derived;Derived;Sponsor;Record Qualifier;(NY);;UPPERCASE;;Indicator used to identify a baseline value. Should be Y or null.;Indicator used to identify a baseline value. Should be Y or null.;;;;;;Y
Y;FINDINGS;__FAST;Fasting Status;470;C;2;;text;NY;Perm;;;;Record Qualifier;(NY);;UPPERCASE;;Indicator used to identify fasting status. Valid values include Y, N, U or null if not relevant.;"Indicator used to identify fasting status. Valid values include ""Y"", ""N"", ""U"", or null if not relevant.";;;;;;
Y;FINDINGS;__DRVFL;Derived Flag;480;C;2;;text;NY;Perm;Assigned;Assigned;Sponsor;Record Qualifier;(NY);;UPPERCASE;;Used to indicate a derived record (e.g., a record that represents the average of other records such as a computed baseline). Should be Y or null.;"Used to indicate a derived record (e.g., a record that represents the average of other records such as a computed baseline). Should be ""Y"" or null.";;;;;;Y
Y;FINDINGS;__EVAL;Evaluator;490;C;40;;text;EVAL;Perm;;;;Record Qualifier;(EVAL);;UPPERCASE;;Role of the person who provided the evaluation. Used only for results that are subjective (e.g., assigned by a person or a group). Examples: ADJUDICATION COMMITTEE, INDEPENDENT ASSESSOR, RADIOLOGIST.;"Role of the person who provided the evaluation. Used only for results that are subjective (e.g., assigned by a person or a group). Examples: ""ADJUDICATION COMMITTEE"", ""INDEPENDENT ASSESSOR"", ""RADIOLOGIST"".";Y;;Y;;Y;
Y;FINDINGS;__EVALID;Evaluator Identifier;500;C;40;;text;MEDEVAL;Perm;Assigned;Assigned;Sponsor;Variable Qualifier;(MEDEVAL);;UPPERCASE;;Used to distinguish multiple evaluators with the same role recorded in --EVAL. Examples: RADIOLOGIST1 or RADIOLOGIST2;"Used to distinguish multiple evaluators with the same role recorded in --EVAL. Examples: ""RADIOLOGIST1"", ""RADIOLOGIST2"".";Y;;Y;;Y;
Y;FINDINGS;__ACPTFL;Accepted Record Flag;510;C;2;;text;NY;Perm;;;;Record Qualifier;(NY);;UPPERCASE;;In cases where more than one assessor provides an evaluation of a result or response, this flag identifies the record that is considered, by an independent assessor, to be the accepted evaluation. Expected to be Y or null.;"In cases where more than one assessor provides an evaluation of a result or response, this flag identifies the record that is considered to be the accepted evaluation. Expected values can include ""Y"", ""N"", or null. This is not intended to be an analysis flag to indicate acceptability for a given analysis.";Y;;Y;;;
Y;FINDINGS;__LOBXFL;Last Observation Before Exposure Flag;520;C;1;;text;NY;Exp;Derived;Derived;Sponsor;Record Qualifier;(NY);;UPPERCASE;;;"Operationally-derived indicator used to identify the last non-missing value prior to RFXSTDTC. The value should be ""Y"" or null.";;;;;;Y
Y;FINDINGS;__TOX;Toxicity;530;C;80;;text;;Perm;Assigned;Assigned;Sponsor;Variable Qualifier;*;;UPPERCASE;;Description of toxicity quantified by --TOXGR such as NCI CTCAE Short Name. Examples: HYPERCALCEMIA, HYPOCALCEMIA. Sponsor should specify which scale and version is used in the Sponsor Comments column of the Define.xml document.;"Description of toxicity quantified by --TOXGR such as NCI CTCAE Short Name. Examples: ""HYPERCALCEMIA"", ""HYPOCALCEMIA"". Sponsor should specify which scale and version is used in the Sponsor Comments column of the Define-XML document.";;;;;;
Y;FINDINGS;__TOXGR;Toxicity Grade;540;C;80;;text;;Perm;Assigned;Assigned;Sponsor;Record Qualifier;*;;UPPERCASE;;Records toxicity grade using a standard toxicity scale (such as the NCI CTCAE). Sponsor should specify which scale and version is used in the Sponsor Comments column of the Define data definition document. Example: 2.;Records toxicity grade using a standard toxicity scale (such as the NCI CTCAE). Sponsor should specify which scale and version is used in the Sponsor Comments column of the Define data definition document. Example: 2.;;;;;;
Y;FINDINGS;__SEV;Severity;550;C;80;;text;;Perm;;;;Record Qualifier;*;;UPPERCASE;;Describes the severity or intensity of a particular finding. Examples: MILD, MODERATE, SEVERE.;"Describes the severity or intensity of a particular finding. Examples: ""MILD"", ""MODERATE"", ""SEVERE"".";;;;;;
Y;FINDINGS;__DTHREL;Relationship to Death;560;C;2;;text;NY;Perm;;;;Record Qualifier;(NY);;UPPERCASE;;;Describes the relationship of a particular finding to the death of a subject. Examples: Y, N or U.;;;;;;
Y;FINDINGS;__LLOQ;Lower Limit of Quantitation;570;N;8;8,3;float;;Perm;;;;Variable Qualifier;;;;;Indicates the lower limit of quantitation for an assay. Units will be those used for --STRESU.;Indicates the lower limit of quantitation for an assay. Units will be those used for --STRESU.;;;;;;
Y;FINDINGS;__ULOQ;Upper Limit of Quantitation;580;N;8;8,3;integer;;Perm;;;;Variable Qualifier;;;;;;Indicates the upper limit of quantitation for an assay. Units will be those used for --STRESU.;;;;;;
Y;FINDINGS;__EXCLFL;Exclude from Statistics;590;C;2;;text;NY;Perm;;;;Record Qualifier;(NY);;UPPERCASE;;;Indicates whether the values in the result variables for this record should be excluded from summary statistical calculations such as Mean, Standard Deviation, and Count (and others). Expected to be Y or null. --EXCLFL should not be used when - -STAT is NOT DONE. Not to be used with human clinical trials.;;;;;;Y
Y;FINDINGS;__OBJ;Object of the Observation;600;C;200;;text;;Req;;Assigned;Sponsor;Record Qualifier;;;UPPERCASE;;"Used in domains modeled as Findings About Events or Findings About Interventions. Describes the event or intervention whose property is being measured in --TESTCD/--TEST. Example: an event of vomiting which has findings, where --OBJ = ""VOMIT"" and the volume of VOMIT is being measured where --TESTCD = ""VOLUME"".";"Used in domains modeled as Findings About Events or Findings About Interventions. Describes the event or intervention whose property is being measured in --TESTCD/--TEST. Example: an event of vomiting which has findings, where --OBJ = ""VOMIT"" and the volume of VOMIT is being measured where --TESTCD = ""VOLUME"".";;;;;;
Y;FINDINGS;__REPNUM;Repetition Number;610;N;8;;integer;;Perm;Assigned;Assigned;Sponsor;Record Qualifier;;;;;;The incidence number of a test that is repeated within a given timeframe for the same test. The level of granularity can vary, e.g., within a time point or within a visit. For example, multiple measurements of blood pressure or multiple analyses of a sample.;Y;;Y;;;
Y;FINDINGS1;__ORRESU;Original Units;10;C;40;;text;UNIT;Perm;Assigned;Assigned;Sponsor;Variable Qualifier;(UNIT);;MIXEDCASE;;;"Unit for --ORRES and --ORREF. Examples: ""in"", ""LB"", ""kg/L"".";Y;;Y;;Y;
Y;FINDINGS1;__STRESN;Numeric Result/Finding in Standard Units;20;N;8;8,3;float;;Perm;;;;Result Qualifier;;;;;;"Used for continuous or numeric results or findings in standard format; copied in numeric format from --STRESC. --STRESN should store all numeric test results or findings.";;;;;;
Y;FINDINGS1;__STRESU;Standard Units;30;C;40;;text;UNIT;Perm;Assigned;Assigned;Sponsor;Variable Qualifier;(UNIT);;MIXEDCASE;;;"Standardized units used for --STRESC, --STRESN, --STREFC, and --STREFN. Example: ""mol/L"".";;;;;;
Y;FINDINGS1;__BLFL;Baseline Flag;40;C;2;;text;NY;Perm;Derived;Derived;Sponsor;Record Qualifier;(NY);;UPPERCASE;;;Indicator used to identify a baseline value. Should be Y or null.;;;;;;Y
Y;FT;__CAT;Category;10;C;60;;text;;Req;Assigned;Assigned;Sponsor;Grouping Qualifier;*;;UPPERCASE;;;"Used to define a category of topic-variable values. Examples: ""HEMATOLOGY"", ""URINALYSIS"", ""CHEMISTRY"", ""HAMD 17"", ""SF36 V2.0 ACUTE"", ""EGFR MUTATION ANALYSIS"".";Y;;Y;;Y;
Y;IDENTIFIERS;STUDYID;Study Identifier;10;C;40;;text;;Req;Protocol;Protocol;Sponsor;Identifier;;;UPPERCASE;;Unique identifier for a study.;Unique identifier for a study.;*;;Y;;Y;
Y;IDENTIFIERS;DOMAIN;Domain Abbreviation;20;C;8;;text;;Req;Assigned;Assigned;Sponsor;Identifier;;;UPPERCASE;;Two-character abbreviation for the domain most relevant to the observation. The Domain abbreviation is also used as a prefix for variables to ensure uniqueness when datasets are merged.;Two-character abbreviation for the domain most relevant to the observation. The Domain abbreviation is also used as a prefix for variables to ensure uniqueness when datasets are merged.;*;;Y;;Y;
Y;IDENTIFIERS;USUBJID;Unique Subject Identifier;30;C;60;;text;;Req;Assigned;Assigned;Sponsor;Identifier;;;UPPERCASE;;Concatenation of STUDYID and DM.SUBJID;Identifier used to uniquely identify a subject across all studies for all applications or submissions involving the product.;*;;Y;;Y;
Y;IDENTIFIERS;POOLID;Pool Identifier;40;C;40;;text;;Exp;;;;Identifier;;;UPPERCASE;;An identifier used to identify a result from a group of subjects that is not assignable to a specific subject.;An identifier used to identify a result from a group of subjects that is not assignable to a specific subject.;;;;;;
Y;IDENTIFIERS;SPDEVID;Sponsor Device Identifier;50;C;80;;text;;Req;;;;Identifier;;;UPPERCASE;;;Sponsor-defined identifier for a device;;;;;Y;
Y;IDENTIFIERS;__SEQ;Sequence Number;60;N;8;;integer;;Req;Derived;Derived;Sponsor;Identifier;;;;;Sequence number to ensure uniqueness of records within a dataset for a subject (or within a parameter, in the case of the Trial Summary domain). May be any valid number (including decimals) and does not have to start at 1.;Sequence number to ensure uniqueness of records within a dataset for a subject (or within a parameter, in the case of the Trial Summary domain). May be any valid number (including decimals) and does not have to start at 1.;*;;Y;;Y;
Y;IDENTIFIERS;__GRPID;Group ID;70;C;60;;text;;Perm;;;;Identifier;;;UPPERCASE;;Optional group identifier, used to link together a block of related records within a subject in a domain. Also used to link together a block of related records in the Trial Summary dataset (Section 3.4).;Optional group identifier, used to link together a block of related records within a subject in a domain. Also used to link together a block of related records in the Trial Summary Information (Section 3.3).;Y;;Y;;Y;
Y;IDENTIFIERS;TSVAL;Parameter Value;80;C;200;;text;;Exp;Protocol;Protocol;Sponsor;Result Qualifier;*;;MIXEDCASE;;;;;;;;;
Y;IDENTIFIERS;__REFID;Reference ID;90;C;80;;text;;Perm;CRF;Collected;Investigator;Identifier;;;UPPERCASE;;Optional internal or external identifier such as lab specimen ID, or UUID for an ECG waveform or a medical image.;Optional internal or external identifier such as lab specimen ID, or UUID for an ECG waveform or a medical image.;Y;;Y;;Y;
Y;IDENTIFIERS;__SPID;Sponsor-Defined Identifier;100;C;40;;text;;Perm;;;;Identifier;;;UPPERCASE;;Sponsor-defined identifier. Example: pre-printed line identifier on a Concomitant Medications page.;Sponsor-defined identifier. Example: pre-printed line identifier on a Concomitant Medications page.;*;;Y;;Y;
Y;IDENTIFIERS;__LNKID;Link ID;110;C;60;;text;;Perm;Assigned;Assigned;Sponsor;Identifier;;;UPPERCASE;;Identifier used to link a feature (such as a tumor) initially recorded as a result in one findings domain to assessments of that feature in another findings domain. This may be a one-to-one or a one-to-many relationship. For Example: A single tumor may have multiple measurements/assessment performed at each study visit.;Identifier used to link related records across domains. This may be a one-to-one or a one-to-many relationship. For example, a single tumor may have multiple measurements/assessments performed at each study visit.;Y;;Y;;;
Y;IDENTIFIERS;__LNKGRP;Link Group ID;120;C;60;;text;;Perm;Assigned;Assigned;Sponsor;Identifier;;;UPPERCASE;;A grouping identifier used to identify a group of assessment results in one domain that are evaluated, as a group, and contribute to a (summary) result in another domain. This will usually be a many-to-one relationship. For example: Multiple tumor measurements/assessments will contribute to a single response to therapy determination record.;Identifier used to link related records across domains. This will usually be a many-to-one relationship. For example: Multiple tumor measurements/assessments will contribute to a single response to therapy determination record.;;;;;;
Y;IDENTIFIERS;ELEMENT;Description of Element;130;C;40;;text;;Req;Protocol;Protocol;Sponsor;Synonym Qualifier;*;;UPPERCASE;;;The name of the Element.;;;;;;
Y;INTERVENTIONS;__TRT;Name of Treatment;10;C;200;;text;;Req;;Assigned;Sponsor;Topic;*;;UPPERCASE;;The topic for the intervention observation, usually the verbatim name of the treatment, drug, medicine, or therapy given during the dosing interval for the observation.;The topic for the intervention observation, usually the verbatim name of the treatment, drug, medicine, or therapy given during the dosing interval for the observation.;Y;;Y;;Y;
Y;INTERVENTIONS;__MODIFY;Modified Treatment Name;20;C;200;;text;;Perm;;;;Synonym Qualifier;;;UPPERCASE;;If the value for --TRT is modified for coding purposes, then the modified text is placed here.;If the value for --TRT is modified for coding purposes, then the modified text is placed here.;Y;;Y;;Y;
Y;INTERVENTIONS;__DECOD;Standardized Treatment Name;30;C;200;;text;;Perm;Assigned;Assigned;Sponsor;Synonym Qualifier;*;;MIXEDCASE;;Standardized or dictionary-derived name of the topic variable, --TRT, or the modified topic variable (--MODIFY), if applicable. Equivalent to the generic drug name in WHO Drug, or a term in SNOMED, ICD9, or other published or sponsor-defined dictionaries.;Standardized or dictionary-derived name of the topic variable, -- TRT, or the modified topic variable (--MODIFY), if applicable. Equivalent to the generic drug name in WHO Drug, or a term in SNOMED, ICD9, or other published or sponsor-defined dictionaries.;Y;;Y;;Y;
Y;INTERVENTIONS;__MOOD;Mood;40;C;80;;text;;Perm;;;;Record Qualifier;*;;UPPERCASE;;;"Mode or condition of the record (e.g., ""SCHEDULED"", ""PERFORMED"").";Y;;Y;;Y;
Y;INTERVENTIONS;__CAT;Category;50;C;60;;text;;Perm;Assigned;Assigned;Sponsor;Grouping Qualifier;*;;UPPERCASE;;Used to define a category of topic-variable values.;Used to define a category of topic-variable values.;Y;;Y;;Y;
Y;INTERVENTIONS;__SCAT;Subcategory;60;C;60;;text;;Perm;Assigned;Assigned;Sponsor;Grouping Qualifier;*;;UPPERCASE;;Used to define a further categorization of --CAT values.;Used to define a further categorization of --CAT values.;Y;;Y;;Y;
Y;INTERVENTIONS;__PRESP;Pre-specified;70;C;2;;text;NY;Perm;;;;Variable Qualifier;(NY);;UPPERCASE;;"Used when a specific intervention is pre-specified on a CRF. Values should be ""Y"" or null.";"Used when a specific intervention is pre-specified on a CRF. Values should be ""Y"" or null.";Y;;Y;;Y;Y
Y;INTERVENTIONS;__OCCUR;Occurrence;80;C;2;;text;NY;Perm;;;;Record Qualifier;(NY);;UPPERCASE;;Used to record whether a pre-specified intervention occurred when information about the occurrence of a specific intervention is solicited.;Used to record whether a pre-specified intervention occurred when information about the occurrence of a specific intervention is solicited.;Y;;Y;;Y;N|Y
Y;INTERVENTIONS;__STAT;Completion Status;90;C;40;;text;ND;Perm;;;;Record Qualifier;(ND);;UPPERCASE;;Used to indicate when a question about the occurrence of a pre-specified intervention was not answered. Should be null or have a value of NOT DONE.;Used to indicate when a question about the occurrence of a pre-specified intervention was not answered. Should be null or have a value of NOT DONE.;Y;;Y;;Y;
Y;INTERVENTIONS;__REASND;Reason Not Done;100;C;200;;text;;Perm;;;;Record Qualifier;;;UPPERCASE;;Reason not done. Used in conjunction with --STAT when value is NOT DONE.;"Reason not done. Used in conjunction with --STAT when value is ""NOT DONE"".";Y;;Y;;Y;
Y;INTERVENTIONS;__INDC;Indication;110;C;200;;text;;Perm;;;;Record Qualifier;;;UPPERCASE;;Denotes the indication for the intervention (e.g., why the therapy was taken or administered).;Denotes the indication for the intervention (e.g., why the therapy was taken or administered).;Y;;Y;;Y;
Y;INTERVENTIONS;__CLAS;Class;120;C;200;;text;;Perm;Assigned;Assigned;Sponsor;Variable Qualifier;*;;UPPERCASE;;Class for a medication or treatment, often obtained from a coding dictionary.;Class for a medication or treatment, often obtained from a coding dictionary.;Y;;Y;;;
Y;INTERVENTIONS;__CLASCD;Class Code;130;C;40;;text;;Perm;Assigned;Assigned;Sponsor;Variable Qualifier;*;;UPPERCASE;;Used to represent code for --CLAS.;Used to represent code for --CLAS.;Y;;Y;;;
Y;INTERVENTIONS;__DOSE;Dose;140;N;8;8,3;float;;Perm;;;;Record Qualifier;;;;;Amount of --TRT given. Not populated when --DOSTXT is populated.;Amount of --TRT given. Not populated when --DOSTXT is populated.;Y;;Y;;Y;
Y;INTERVENTIONS;__DOSTXT;Dose Description;150;C;200;;text;;Perm;CRF;Collected;Investigator;Record Qualifier;;;UPPERCASE;;Dosing information collected in text form. Examples: <1 per day, 200-400. Not populated when --DOSE is populated.;Dosing information collected in text form. Examples: <1 per day, 200-400. Not populated when --DOSE is populated.;Y;;Y;;Y;
Y;INTERVENTIONS;__DOSU;Dose Units;160;C;40;;text;UNIT;Perm;Assigned;Assigned;Sponsor;Variable Qualifier;(UNIT);;MIXEDCASE;;Units for --DOSE, --DOSTOT, or --DOSTXT (Examples: ng, mg, mg/kg).;"Units for --DOSE, --DOSTOT, or --DOSTXT. Examples: ""ng"", ""mg"", ""mg/kg"".";Y;;Y;;Y;
Y;INTERVENTIONS;__DOSFRM;Dose Form;170;C;80;;text;FRM;Perm;;;;Variable Qualifier;(FRM);;UPPERCASE;;Dose form for the treatment. Examples: TABLET, CAPSULE.;"Dose form for the treatment. Examples: ""TABLET"", ""CAPSULE"".";Y;;Y;;Y;
Y;INTERVENTIONS;__DOSFRQ;Dosing Frequency per Interval;180;C;40;;text;FREQ;Perm;;;;Variable Qualifier;(FREQ);;UPPERCASE;;Usually expressed as the number of doses given per a specific interval. Examples: QD, BID, TID, QID.;"Usually expressed as the number of doses given per a specific interval. Examples: ""Q2H"", ""QD"", ""PRN"".";Y;;Y;;Y;
Y;INTERVENTIONS;__DOSTOT;Total Daily Dose;190;N;8;8,3;float;;Perm;CRF;Collected;Investigator;Record Qualifier;;;;;Total daily dose of --TRT using the units in --DOSU. Used when dosing is collected as Total Daily Dose.;Total daily dose of --TRT using the units in --DOSU. Used when dosing is collected as Total Daily Dose.;Y;;Y;;Y;
Y;INTERVENTIONS;__DOSRGM;Intended Dose Regimen;200;C;40;;text;;Perm;;;;Variable Qualifier;;;UPPERCASE;;Text description of the (intended) schedule or regimen for the Intervention. Examples: TWO WEEKS ON, TWO WEEKS OFF.;"Text description of the (intended) schedule or regimen for the Intervention. Example: ""TWO WEEKS ON, TWO WEEKS OFF"".";Y;;Y;;Y;
Y;INTERVENTIONS;__ROUTE;Route of Administration;210;C;40;;text;ROUTE;Perm;;;;Variable Qualifier;(ROUTE);;UPPERCASE;;Route of administration for the intervention. Examples: ORAL, INTRAVENOUS.;"Route of administration for the intervention. Examples: ""ORAL"", ""INTRAVENOUS"".";Y;;Y;;Y;
Y;INTERVENTIONS;__LOT;Lot Number;220;C;40;;text;;Perm;;;;Record Qualifier;;;UPPERCASE;;Lot number for the intervention described in --TRT.;Lot number for the intervention described in --TRT.;Y;;Y;;;
Y;INTERVENTIONS;__LOC;Location of Dose Administration;230;C;100;;text;LOC;Perm;;;;Record Qualifier;(LOC);;UPPERCASE;;Anatomical location of an intervention, such as an injection site. Example: ARM for an injection.;Anatomical location of an intervention, such as an injection site. Example: ARM for an injection.;Y;;Y;;Y;
Y;INTERVENTIONS;__LAT;Laterality;240;C;40;;text;LAT;Perm;;;;Variable Qualifier;(LAT);;UPPERCASE;;;"Qualifier for anatomical location further detailing laterality of intervention administration. Examples: ""RIGHT"", ""LEFT"", ""BILATERAL"".";Y;;Y;;Y;
Y;INTERVENTIONS;__DIR;Directionality;250;C;40;;text;DIR;Perm;;;;Variable Qualifier;(DIR);;UPPERCASE;;;"Qualifier for anatomical location further detailing directionality of intervention administration. Examples: ""ANTERIOR"", ""LOWER"", ""PROXIMAL"".";Y;;Y;;;
Y;INTERVENTIONS;__PORTOT;Portion or Totality;260;C;40;;text;PORTOT;Perm;;;;Variable Qualifier;(PORTOT);;UPPERCASE;;;"Qualifier for anatomical location further detailing the distribution, which means arrangement of, apportioning of the intervention administration. Examples: ""ENTIRE"", ""SINGLE"", ""SEGMENT"", ""MANY"".";Y;;Y;;;
Y;INTERVENTIONS;__FAST;Fasting Status;270;C;2;;text;NY;Perm;;;;Record Qualifier;(NY);;UPPERCASE;;;"Indicator used to identify fasting status. Valid values include ""Y"", ""N"", ""U"" or null if not relevant.";Y;;Y;;;
Y;INTERVENTIONS;__PSTRG;Pharmaceutical Strength;280;N;8;8,3;float;;Perm;;;;Variable Qualifier;;;;;;"Amount of an active ingredient expressed quantitatively per dosage unit, per unit of volume, or per unit of weight, according to the pharmaceutical dose form. Example: ""50 mg/TABLET"", ""300 mg/L"".";Y;;Y;;;
Y;INTERVENTIONS;__PSTRGU;Pharmaceutical Strength Units;290;C;80;;text;;Perm;;;;Variable Qualifier;*;;MIXEDCASE;;;"Unit for --PSTRG. Example: ""mg/TABLET"", ""mg/m""L.";Y;;Y;;;
Y;INTERVENTIONS;__TRTV;Treatment Vehicle;300;C;80;;text;;Perm;;;;Record Qualifier;;;UPPERCASE;;Vehicle for administration of treatment, such as a liquid in which the treatment drug is dissolved. Example: SALINE.;"Vehicle for administration of treatment, such as a liquid in which the treatment drug is dissolved. Example: ""SALINE"".";Y;;Y;;;
Y;INTERVENTIONS;__VAMT;Treatment Vehicle Amount;310;N;8;8,3;float;;Perm;;;;Record Qualifier;;;;;Amount of the treatment vehicle administered or given.;Amount of the prepared product (treatment + vehicle) administered or given. Note: should not be diluent amount alone.;Y;;Y;;;
Y;INTERVENTIONS;__VAMTU;Treatment Vehicle Amount Units;320;C;40;;text;;Perm;Assigned;Assigned;Sponsor;Variable Qualifier;;;MIXEDCASE;;Units for the treatment vehicle. Examples: mL, mg.;"Units for the prepared product (treatment + vehicle). Examples: ""mL"", ""mg"".";Y;;Y;;;
Y;INTERVENTIONS;__ADJ;Reason for Dose Adjustment;330;C;200;;text;;Perm;;;;Record Qualifier;*;;UPPERCASE;;Describes reason or explanation of why a dose is adjusted. Examples ADVERSE EVENT, INSUFFICIENT RESPONSE, NON-MEDICAL REASON.;"Describes reason or explanation of why a dose is adjusted. Examples ""ADVERSE EVENT"", ""INSUFFICIENT RESPONSE"", ""NON-MEDICAL REASON"".";Y;;Y;;Y;
Y;INTERVENTIONS;__RSDISC;Reason for Treatment Discontinuation;340;C;200;;text;;Perm;;;;Record Qualifier;;;UPPERCASE;;;Reason why the treatment was discontinued.;Y;;Y;;;
Y;MH;MHEVDTYP;Medical History Event Date Type;10;C;80;;text;MHEDTTYP;Perm;;;;Variable Qualifier;(MHEDTTYP);;UPPERCASE;;;"Specifies the aspect of the medical condition or event by which MHSTDTC and/or the MHENDTC is defined. Examples: ""DIAGNOSIS"", ""SYMPTOMS"",
""RELAPSE"", ""INFECTION"".";Y;;Y;;;
;NN DEFINED;CDMS_SUB_EVT_NUM;CDMS Repeat Sequence Number;10;N;8;;integer;;Perm;;;;Record Qualifier;;;;;;;;;Y;Y;;
;NN DEFINED;SRC_ATC_CODE;SRC ATC Code;20;C;200;;text;;Perm;;;;Record Qualifier;;;UPPERCASE;;;;;;Y;Y;;
;NN DEFINED;SRC_DESC;SRC Visit Description;30;C;200;;text;;Perm;;;;Record Qualifier;;;UPPERCASE;;;;;;Y;Y;;
;NN DEFINED;SRC_ATC_TERM;SRC ATC Term;40;C;200;;text;;Perm;;;;Record Qualifier;;;UPPERCASE;;;;;;Y;Y;;
;NN DEFINED;SRC_TOPIC_CD;CDW SRC Topic Code;50;C;200;;text;;Perm;;;;Topic;;;;;;;;;Y;Y;;
;NN DEFINED;VISIT;Visit Name;60;C;40;;text;;Perm;;;;Timing;;;UPPERCASE;;Protocol-defined description of a clinical encounter.;Protocol-defined description of a clinical encounter.;;;;Y;;
;NN DEFINED;VISITNUM;Visit Number;70;N;8;9,3;float;;Exp;Assigned;Assigned;Sponsor;Timing;;;;;Clinical encounter number. Numeric version of VISIT, used for sorting.;Clinical encounter number. Numeric version of VISIT, used for sorting.;Y;;Y;Y;;
Y;NN DEFINED;__STDTC;Start Date/Time of Observation;80;C;64;;datetime;;Perm;;;;Timing;ISO 8601;;UPPERCASE DATETIME;;Start date/time of an observation represented in IS0 8601 character format.;Start date/time of an observation.;Y;;Y;;Y;
;NN DEFINED;SRC_FIND_COLL_UNIT;CDW SRC Finding Collection Unit;90;C;80;;text;;Perm;;;;Record Qualifier;;;;;;;;;Y;Y;;
;NN DEFINED;VISITDY;Planned Study Day of Visit;100;N;8;;integer;;Perm;Assigned;Assigned;Sponsor;Timing;;;;;Based on TV.VISITDY;Planned study day of VISIT. Should be an integer.;;;;Y;;
;NN DEFINED;TOPIC_CD;CDW Topic Code;110;C;80;;text;;Perm;;;;Topic;;;;;;;;;Y;Y;Y;
;NN DEFINED;USUBJID;Unique Subject Identifier;120;C;60;;text;;Req;Assigned;Assigned;Sponsor;Identifier;;;UPPERCASE;;Concatenation of STUDYID and DM.SUBJID (This is a variable for internal system use);Identifier used to uniquely identify a subject across all studies for all applications or submissions involving the product.;*;;Y;Y;Y;
;NN DEFINED;SRC_RANDOM_GRP;CDW SRC Randomisation Group;130;C;25;;text;;Perm;;;;Record Qualifier;;;;;;;;;Y;Y;;
;NN DEFINED;SRC_DOSE_UNIT;CDW SRC Dose Unit;140;C;200;;text;;Perm;;;;Record Qualifier;;;;;;;;;Y;Y;;
;NN DEFINED;SRC_DOSE_FREQ;CDW SRC Dose Frequency;150;C;200;;text;;Perm;;;;Record Qualifier;;;;;;;;;Y;Y;;
;NN DEFINED;ETCD;Element Code;160;C;8;;text;;Req;Assigned;Assigned;Sponsor;Record Qualifier;*;;UPPERCASE;;Set based on the SE domain;ETCD (the companion to ELEMENT) is limited to 8 characters and does not have special character restrictions. These values should be short for ease of use in programming, but it is not expected that ETCD will need to serve as a variable name.;;;;;Y;
;NN DEFINED;ELEMENT;Description of Element;170;C;40;;text;;Req;Protocol;Protocol;Sponsor;Record Qualifier;*;;UPPERCASE;;Set based on the SE domain;The name of the Element.;;;;;Y;
Y;NN DEFINED1;__STDTC;Start Date/Time of Observation;10;C;64;;datetime;;Perm;;;;Timing;ISO 8601;;UPPERCASE DATETIME;;Start date/time of an observation represented in IS0 8601 character format.;Start date/time of an observation.;;;;;;
;NSV;__CNTMOD;Contact Mode;10;C;40;;text;CNTMODE;Perm;CRF;Collected;Investigator;Record Qualifier;(CNTMODE);;UPPERCASE;Y;;;Y;;Y;;;
;NSV;__EPADJI;Epi/Pandemic Related Adjustment Reas Ind;20;C;2;;text;NY;Perm;CRF;Collected;Investigator;Record Qualifier;(NY);;UPPERCASE;Y;;Non-standard Variable from Guidance for Ongoing Studies Disrupted by COVID-19 Pandemic Version 1.0;Y;;Y;;;Y
;NSV;__REAS;Reason for Deviation;30;C;200;;text;DVCODES;Perm;CRF;Collected;Investigator;Record Qualifier;(DVCODES);;UPPERCASE;Y;;Non-standard Variable from Guidance for Ongoing Studies Disrupted by COVID-19 Pandemic Version 1.0;;;;;;
;NSV;__EPDSCI;Epi/Pandemic Related Discontin Reas Ind;40;C;2;;text;NY;Perm;CRF;Collected;Investigator;Record Qualifier;(NY);;UPPERCASE;Y;;Non-standard Variable from Guidance for Ongoing Studies Disrupted by COVID-19 Pandemic Version 1.0;Y;;Y;;;Y
;NSV;__EPRELI;Epi/Pandemic Related Indicator;50;C;2;;text;NY;Perm;CRF;Collected;Investigator;Record Qualifier;(NY);;UPPERCASE;Y;;Non-standard Variable from Guidance for Ongoing Studies Disrupted by COVID-19 Pandemic Version 1.0;Y;;Y;;;Y
;NSV;__EPCHGI;Epi/Pandemic Related Change Indicator;60;C;2;;text;NY;Perm;CRF;Collected;Investigator;Record Qualifier;(NY);;UPPERCASE;Y;;;Y;;Y;;;Y
;NSV;__REASOC;Reason for Occur Value;70;C;200;;text;;Perm;CRF;Collected;Investigator;Record Qualifier;;;UPPERCASE;Y;;;Y;;Y;;;
Y;RELREC;STUDYID;Study Identifier;10;C;40;;text;;Req;Protocol;Protocol;Sponsor;Identifier;;;UPPERCASE;;;Study Identifier of the domain record(s).;;;;;;
Y;RELREC;RDOMAIN;Related Domain Abbreviation;20;C;8;;text;DOMAIN;Req;Assigned;Assigned;Sponsor;Identifier;(DOMAIN);;UPPERCASE;;Domain abbreviations for domains which are related to at least one other domain. Derived from parent record;2-character abbreviation for the domain of the parent record(s).;;;;;;
Y;RELREC;USUBJID;Unique Subject Identifier;30;C;60;;text;;Exp;Assigned;Assigned;Sponsor;Identifier;;;UPPERCASE;;Concatenation of STUDYID and DM.SUBJID;Identifier used to uniquely identify a subject across all studies for all applications or submissions involving the product.;;;;;;
Y;RELREC;APID;Associated Persons Identifier;40;C;60;;text;;Req;;Assigned;Sponsor;Identifier;;;;;;Identifier for a single associated person, a group of associated persons, or a pool of associated persons. If APID identifies a pool, POOLDEF records must exist for each associated person (see Section 4.1.3, Pool Definition Dataset and Section 6.2, Associated Persons Relationships).;;;;;;
Y;RELREC;IDVAR;Identifying Variable;50;C;8;;text;;Req;Assigned;Assigned;Sponsor;Identifier;*;;UPPERCASE;;Derived from parent record;Name of the identifying variable in the general-observation-class dataset that identifies the related record(s). Examples: --SEQ and --GRPID.;;;;;;
Y;RELREC;IDVARVAL;Identifying Variable Value;60;C;40;;text;;Exp;Assigned;Assigned;Sponsor;Identifier;;;UPPERCASE;;Derived from parent record;Value of identifying variable described in IDVAR. If --SEQ is the variable being used to describe this record, then the value of --SEQ is entered here.;;;;;;
Y;RELREC;RELTYPE;Relationship Type;70;C;20;;text;RELTYEP;Exp;Assigned;Assigned;Sponsor;Record Qualifier;(RELTYEP);;UPPERCASE;;;Identifies the hierarchical level of the records in the relationship. Values should be either ONE or MANY. However, values are only necessary when identifying a relationship between datasets.;;;;;;
Y;RELREC;RELID;Relationship Identifier;80;C;40;;text;;Req;Assigned;Assigned;Sponsor;Record Qualifier;;;UPPERCASE;;Records with the same RELID value can be considered as related records;"RELID value should be unique within the ID variable (e.g., USUBJID, APID, POOLID, SPDEVID) that is the subject of the relationship. All records with this ID variable that have the same RELID are considered ""related/associated."" RELID can be any value the sponsor chooses, and is only meaningful within the RELREC dataset to identify the related/associated Domain records.";;;;;;
Y;RELSPEC;STUDYID;Study Identifier;10;C;40;;text;;Req;Protocol;Protocol;Sponsor;Identifier;;;UPPERCASE;;;Study Identifier of the domain record(s).;;;;;;
Y;RELSPEC;REFID;Specimen ID;20;C;80;;text;;Req;eDT;Collected;Vendor;Identifier;;;UPPERCASE;;;Specimen identifier, unique within USUBJID.;;;;;;
Y;RELSPEC;USUBJID;Unique Subject Identifier;30;C;60;;text;;Req;Assigned;Assigned;Sponsor;Identifier;;;UPPERCASE;;Concatenation of STUDYID and DM.SUBJID;Identifier used to uniquely identify a subject across all studies for all applications or submissions involving the product.;;;;;;
Y;RELSPEC;SPEC;Specimen Type;40;C;80;;text;;Perm;eDT;Collected;Vendor;Record Qualifier;*;;UPPERCASE;;;Defines the type of specimen used for a measurement.  Examples: SERUM, PLASMA, URINE, SOFT TISSUE.;;;;;;
Y;RELSPEC;PARENT;Specimen Parent;50;C;40;;text;;Exp;eDT;Collected;Vendor;Record Qualifier;;;UPPERCASE;;;Identifies the REFID of the parent of a specimen to support tracking its genealogy.;;;;;;
Y;RELSPEC;LEVEL;Specimen Level;60;N;8;;integer;;Req;eDT;Collected;Vendor;Record Qualifier;;;;;;Identifies the generation number of the sample where the collected sample is considered the first generation.;;;;;;
Y;RELSUB;STUDYID;Study Identifier;10;C;40;;text;;Perm;Protocol;Protocol;Sponsor;Identifier;;;UPPERCASE;;;Unique identifier for a study.;;;;;;
Y;RELSUB;USUBJID;Unique Subject Identifier;20;C;60;;text;;Exp;Assigned;Assigned;Sponsor;Identifier;;;UPPERCASE;;Concatenation of STUDYID and DM.SUBJID;Identifier used to uniquely identify a subject across all studies for all applications or submissions involving the product. Either USUBJID or POOLID must be populated.;;;;;;
Y;RELSUB;POOLID;Pool Identifier;30;C;40;;text;;Perm;;;;Identifier;;;UPPERCASE;;An identifier used to identify a result from a group of subjects that is not assignable to a specific subject.;Identifier used to identify a pool of subjects. If POOLID is entered, POOLDEF records must exist for each subject in the pool and USUBJID must be null. Either USUBJID or POOLID must be populated.;;;;;;
Y;RELSUB;RSUBJID;Related Subject or Pool Identifier;40;C;60;;text;;Req;;;;Identifier;;;UPPERCASE;;;Identifier used to identify a related subject or pool of subjects. RSUBJID will be populated with either the USUBJID of the related subject or the POOLID of the related pool.;;;;;;
Y;RELSUB;SREL;Subject Relationship;50;C;40;;text;RELSUB;Req;;;;Record Qualifier;(RELSUB);;UPPERCASE;;;Describes the relationship of the subject identified in USUBJID or the pool identified in POOLID to the subject or pool identified in RSUBJID.;;;;;;
Y;SE;ETCD;Element Code;10;C;8;;text;;Req;Assigned;Assigned;Sponsor;Topic;*;;UPPERCASE;;;ETCD (the companion to ELEMENT) is limited to 8 characters and does not have special character restrictions. These values should be short for ease of use in programming, but it is not expected that ETCD will need to serve as a variable name.;;;;;;
Y;SE;ELEMENT;Description of Element;20;C;40;;text;;Perm;Protocol;Protocol;Sponsor;Synonym Qualifier;*;;UPPERCASE;;;"The name of the Element. If ETCD has a value of ""UNPLAN"" then ELEMENT should be null.";;;;;;
Y;SE;SEUPDES;Description of Unplanned Element;30;C;200;;text;;Perm;Assigned;Assigned;Sponsor;Synonym Qualifier;;;UPPERCASE;;;"Description of what happened to the subject during an unplanned Element. Used only if ETCD has the value of ""UNPLAN"".";;;;;;
Y;SUPP;STUDYID;Study Identifier;10;C;40;;text;;Req;Protocol;Protocol;Sponsor;Identifier;UPPERCASE;;;;;Study Identifier of the parent record(s).;;;;;;
Y;SUPP;RDOMAIN;Related Domain Abbreviation;20;C;8;;text;DOMAIN;Req;Assigned;Assigned;Sponsor;Identifier;(DOMAIN);;UPPERCASE;;;2-character abbreviation for the domain of the parent record(s).;;;;;;
Y;SUPP;USUBJID;Unique Subject Identifier;30;C;60;;text;;Req;Assigned;Assigned;Sponsor;Identifier;UPPERCASE;;;;;Identifier for a single associated person, a group of associated persons, or a pool of associated persons. If APID identifies a pool, POOLDEF records must exist for each associated person (see Section 4.1.3, Pool Definition Dataset and Section 6.2, Associated Persons Relationships).;;;;;;
;SUPP;SPDEVID;Sponsor Device Identifier;40;C;80;;text;;Req;Assigned;Assigned;Sponsor;Identifier;;;UPPERCASE;;;Sponsor-defined identifier for a device;;;;;Y;
Y;SUPP;IDVAR;Identifying Variable;50;C;8;;text;;Exp;Assigned;Assigned;Sponsor;Identifier;*;;UPPERCASE;;;Identifying variable in the parent dataset that identifies the related record(s). Examples: --SEQ, --GRPID.;;;;;;
Y;SUPP;IDVARVAL;Identifying Variable Value;60;C;40;;text;;Exp;Assigned;Assigned;Sponsor;Identifier;;;UPPERCASE;;;Value of identifying variable of the parent record(s).;;;;;;
Y;SUPP;QNAM;Qualifier Variable Name;70;C;8;;text;;Req;Assigned;Assigned;Sponsor;Topic;*;;UPPERCASE;;;"The short name of the Qualifier variable, which is used as a column name in a domain view with data from the parent domain. The value in QNAM cannot be longer than 8 characters, nor can it start with a number (e.g., ""1TEST""). QNAM cannot contain characters other than letters, numbers, or underscores. This will often be the column name in the sponsor's operational dataset. QNAM should not be the name of any standard ADaM variable.";;;;;;
Y;SUPP;QLABEL;Qualifier Variable Label;80;C;40;;text;;Req;Assigned;Assigned;Sponsor;Synonym Qualifier;MIXEDCASE;;;;;This is the long name or label associated with QNAM. The value in QLABEL cannot be longer than 40 characters. This will often be the column label in the sponsor's original dataset.;;;;;;
Y;SUPP;QVAL;Data Value;90;C;200;;text;;Req;CRF;Collected;Investigator;Result Qualifier;MIXEDCASE;;;;;"Result of, response to, or value associated with QNAM. A value for this column is required; no records can be in a SUPP-- dataset with a null value for QVAL.";;;;;;
Y;SUPP;QORIG;Origin;100;C;20;;text;;Req;Assigned;Assigned;Sponsor;Record Qualifier;MIXEDCASE;;;;;Because QVAL can represent a mixture of collected (on a CRF), derived, or assigned items, QORIG is used to indicate the origin of this data. Examples: CRF, ASSIGNED, DERIVED.;;;;;;
Y;SUPP;QEVAL;Evaluator;110;C;40;;text;EVAL;Exp;Assigned;Assigned;Sponsor;Record Qualifier;;;UPPERCASE;;;"Used only for results that are subjective (e.g., assigned by a person or a group). Should be null for records that contain objectively collected or derived data. Examples: ""ADJUDICATION COMMITTEE"", ""STATISTICIAN"", ""DATABASE ADMINISTRATOR"", ""CLINICAL COORDINATOR"".";;;;;;
Y;SV;SVUPDES;Description of Unplanned Visit;10;C;200;;text;;Perm;CRF;Collected;Investigator;Synonym Qualifier;;;UPPERCASE;;;Description of what happened to the subject during an unplanned visit. Null for protocol-defined visits.;;;;;;
Y;TA;ARMCD;Planned Arm Code;10;C;20;;text;;Req;Assigned;Assigned;Sponsor;Topic;*;;UPPERCASE;;;ARMCD is limited to 20 characters and does not have special character restrictions.;;;;;;
Y;TA;ARM;Description of Planned Arm;20;C;40;;text;;Req;Protocol;Protocol;Sponsor;Synonym Qualifier;*;;UPPERCASE;;;Name given to Arm or treatment group.;;;;;;
Y;TA;ETCD;Element Code;30;C;8;;text;;Req;Assigned;Assigned;Sponsor;Record Qualifier;*;;UPPERCASE;;Set based on the SE domain;ETCD (the companion to ELEMENT) is limited to 8 characters and does not have special character restrictions. These values should be short for ease of use in programming, but it is not expected that ETCD will need to serve as a variable name.;;;;;;
Y;TA;ELEMENT;Description of Element;40;C;40;;text;;Perm;Protocol;Protocol;Sponsor;Synonym Qualifier;*;;UPPERCASE;;Set based on the SE domain;The name of the Element.;;;;;;
Y;TA;TABRANCH;Branch;50;C;200;;text;;Exp;Protocol;Protocol;Sponsor;Rule;;;UPPERCASE;;;"Condition subjects meet, at a ""branch"" in the Trial Design at the end of this Element, to be included in this Arm. Example: Randomization to DRUG X.";;;;;;
Y;TA;TATRANS;Transition Rule;60;C;200;;text;;Exp;Protocol;Protocol;Sponsor;Rule;;;UPPERCASE;;;If the trial design allows a subject to transition to an Element other than the next Element in sequence, then the conditions for transitioning to those other Elements, and the alternative Element sequences, are specified in this rule (e.g., Responders go to washout).;;;;;;
Y;TD;TDORDER;Sequence of Planned Assessment Schedule;10;N;8;;integer;;Req;;;;Timing;;;;;;A number given to ensure ordinal sequencing of the planned assessment schedules within a trial.;;;;;;
Y;TD;TDANCVAR;Anchor Variable Name;20;C;8;;text;;Req;;;;Timing;;;UPPERCASE;;;A reference to the date variable name that provides the start point from which the planned disease assessment schedule is measured. This must be referenced from the ADaM ADSL dataset (e.g., ANCH1DT). Note: TDANCVAR is to contain the name of a reference date variable name.;;;;;;
Y;TD;TDSTOFF;Offset from the Anchor;30;C;64;;durationDatetime;;Req;;;;Timing;ISO 8601;;UPPERCASE DURATION;;;A fixed offset from the date provided by the variable referenced in TDANCVAR. This is used when the timing of planned cycles does not start on the exact day referenced in the variable indicated in TDANCVAR. The value of this variable will be either zero or a positive value.;;;;;;
Y;TD;TDTGTPAI;Planned Assessment Interval;40;C;64;;durationDatetime;;Req;;;;Timing;ISO 8601;;UPPERCASE;;;The planned interval between disease assessments.;;;;;;
Y;TD;TDMINPAI;Planned Assessment Interval Minimum;50;C;64;;durationDatetime;;Req;;;;Timing;ISO 8601;;UPPERCASE;;;The lower limit of the allowed range for the planned interval between disease assessments.;;;;;;
Y;TD;TDMAXPAI;Planned Assessment Interval Maximum;60;C;64;;durationDatetime;;Req;;;;Timing;ISO 8601;;UPPERCASE;;;The upper limit of the allowed range for the planned interval between disease assessments.;;;;;;
Y;TD;TDNUMRPT;Maximum Number of Actual Assessments;70;N;8;;integer;;Req;;;;Record Qualifier;;;;;;This variable must represent the maximum number of actual assessments for the analysis that this disease assessment schedule describes. In a trial where the maximum number of assessments is not defined explicitly in the protocol (e.g., assessments occur until death) TDNUMRPT should represent the maximum number of disease assessments that support the efficacy analysis, encountered by any subject across the trial at that point in time.;;;;;;
Y;TE;TESTRL;Rule for Start of Element;10;C;200;;text;;Req;Protocol;Protocol;Sponsor;Rule;;;UPPERCASE;;;Expresses rule for beginning Element.;;;;;;
Y;TE;TEENRL;Rule for End of Element;20;C;200;;text;;Perm;Protocol;Protocol;Sponsor;Rule;;;UPPERCASE;;;Expresses rule for ending Element. Either TEENRL or TEDUR must be present for each Element.;;;;;;
Y;TE;ELEMENT;Description of Element;30;C;40;;text;;Req;Protocol;Protocol;Sponsor;Synonym Qualifier;*;;UPPERCASE;;;The name of the Element.;;;;;;
Y;TE;ETCD;Element Code;40;C;8;;text;;Req;Assigned;Assigned;Sponsor;Topic;*;;UPPERCASE;;;ETCD (the companion to ELEMENT) is limited to 8 characters and does not have special character restrictions. These values should be short for ease of use in programming, but it is not expected that ETCD will need to serve as a variable name.;;;;;;
Y;TI;TIRL;Inclusion/Exclusion Criterion Rule;10;C;200;;text;;Perm;Protocol;Protocol;Sponsor;Rule;;;UPPERCASE;;;Rule that expresses the criterion in computer-executable form (see assumption 4 below).;;;;;;
Y;TI;TIVERS;Protocol Criteria Versions;20;C;20;;text;;Perm;Protocol;Protocol;Sponsor;Record Qualifier;;;UPPERCASE;;;The number of this version of the Inclusion/Exclusion criteria. May be omitted if there is only one version.;;;;;;
Y;TIMING;VISITNUM;Visit Number;10;N;8;9,3;float;;Exp;Assigned;Assigned;Sponsor;Timing;;;;;Clinical encounter number. Numeric version of VISIT, used for sorting.;Clinical encounter number. Numeric version of VISIT, used for sorting.;;;Y;;;
Y;TIMING;VISIT;Visit Name;20;C;40;;text;;Perm;;;;Timing;;;UPPERCASE;;Protocol-defined description of a clinical encounter.;Protocol-defined description of a clinical encounter.;;;;;;
Y;TIMING;VISITDY;Planned Study Day of Visit;30;N;8;;integer;;Perm;Assigned;Assigned;Sponsor;Timing;;;;;Based on TV.VISITDY;Planned study day of VISIT. Should be an integer.;;;;;;
Y;TIMING;TAETORD;Planned Order of Element within Arm;40;N;8;;integer;;Perm;Protocol;Protocol;Sponsor;Timing;;;;;Number that gives the planned order of the Element within the Arm (see Trial Arms, Section 3.2.2 ).;Number that gives the planned order of the Element within the Arm (see Section 3.1.2, Trial Arms).;;;;;;
Y;TIMING;EPOCH;Epoch;50;C;40;;text;EPOCH;Perm;Protocol;Protocol;Sponsor;Timing;(EPOCH);;UPPERCASE;;Epoch associated with the start date/time of the observation, or the date/time of collection if start date/time is not collected. (See Section 3.2.2).;Epoch associated with the start date or start date and time of the observation, or the date/time of collection if start date/time is not collected (see Section 3.1.2, Trial Arms).;;;;;;
Y;TIMING;__DTC;Date/Time of Collection;60;C;64;;datetime;;Exp;;;;Timing;ISO 8601;;UPPERCASE DATETIME;;Collection date and time of an observation represented in IS0 8601 character format.;Collection date and time of an observation represented in IS0 8601 character format.;Y;;Y;;Y;
Y;TIMING;__STDTC;Start Date/Time of Observation;70;C;64;;datetime;;Exp;;;;Timing;ISO 8601;;UPPERCASE DATETIME;;Start date/time of an observation represented in IS0 8601 character format.;Start date/time of an observation.;Y;;Y;;Y;
Y;TIMING;__ENDTC;End Date/Time of Observation;80;C;64;;datetime;;Perm;CRF;Collected;Investigator;Timing;ISO 8601;;UPPERCASE DATETIME;;End date/time of the observation represented in IS0 8601 character format.;End date/time of the observation represented in IS0 8601 character format.;Y;;Y;;Y;
Y;TIMING;__DY;Study Day of Visit/Collection/Exam;90;N;8;;integer;;Perm;Derived;Derived;Sponsor;Timing;;;;;Actual study day of visit/collection/exam expressed in integer days relative to the sponsor-defined RFSTDTC in Demographics.;Actual study day of visit/collection/exam expressed in integer days relative to the sponsor-defined RFSTDTC in Demographics.;;;;;;
Y;TIMING;__STDY;Study Day of Start of Observation;100;N;8;;integer;;Perm;Derived;Derived;Sponsor;Timing;;;;;Actual study day of start of observation expressed in integer days relative to the sponsor-defined RFSTDTC in Demographics.;Actual study day of start of observation expressed in integer days relative to the sponsor-defined RFSTDTC in Demographics.;;;;;;
Y;TIMING;__ENDY;Study Day of End of Observation;110;N;8;;integer;;Perm;Derived;Derived;Sponsor;Timing;;;;;Actual study day of end of observation expressed in integer days relative to the sponsor-defined RFSTDTC in Demographics.;Actual study day of end of observation expressed in integer days relative to the sponsor-defined RFSTDTC in Demographics.;;;;;;
Y;TIMING;__DUR;Duration;120;C;64;;durationDatetime;;Perm;CRF;Collected;Investigator;Timing;ISO 8601;;UPPERCASE DURATION;;Collected duration of an event, intervention, or finding represented in ISO 8601 character format. Used only if collected on the CRF and not derived.;Collected duration of an event, intervention, or finding represented in ISO 8601 character format. Used only if collected on the CRF and not derived.;;;;;;
Y;TIMING;__TPT;Planned Time Point Name;130;C;80;;text;;Perm;;;;Timing;;;UPPERCASE;;Text description of time when a measurement or observation should be taken as defined in the protocol. This may be represented as an elapsed time relative to a fixed reference point, such as time of last dose. See --TPTNUM and --TPTREF.;Text description of time when a measurement or observation should be taken as defined in the protocol. This may be represented as an elapsed time relative to a fixed reference point, such as time of last dose. See --TPTNUM and -- TPTREF.;Y;;Y;;Y;
Y;TIMING;__TPTNUM;Planned Time Point Number;140;N;8;8,3;float;;Perm;;;;Timing;;;;;Numeric version of planned time point used in sorting.;Numeric version of planned time point used in sorting.;Y;;Y;;Y;
Y;TIMING;__ELTM;Planned Elapsed Time from Time Point Ref;150;C;64;;durationDatetime;;Perm;;;;Timing;ISO 8601;;UPPERCASE DURATION;;"Planned Elapsed time in ISO 8601 character format relative to a planned fixed reference (--TPTREF) such as ""Previous Dose"" or ""Previous Meal"". This variable is useful where there are repetitive measures. Not a clock time or a date/time variable, but an interval, represented as ISO duration.";"Planned Elapsed time relative to a planned fixed reference (--TPTREF) such as ""Previous Dose"" or ""Previous Meal"". This variable is useful where there are repetitive measures. Not a clock time or a date/time variable, but an interval.";Y;;Y;;Y;
Y;TIMING;__TPTREF;Time Point Reference;160;C;80;;text;;Perm;;;;Timing;;;UPPERCASE;;Description of the fixed reference point referred to by --ELTM, --TPTNUM, and --TPT. Examples: PREVIOUS DOSE, PREVIOUS MEAL.;"Description of the fixed reference point referred to by --ELTM, --TPTNUM, --TPT, --STINT, and --ENINT. Examples: ""PREVIOUS DOSE"", ""PREVIOUS MEAL"".";Y;;Y;;Y;
Y;TIMING;__RFTDTC;Date/Time of Reference Time Point;170;C;64;;datetime;;Perm;;;;Timing;ISO 8601;;UPPERCASE DATETIME;;Date/time for a fixed reference time point defined by --TPTREF in ISO 8601 character format.;Date/time for a fixed reference time point defined by --TPTREF.;Y;;Y;;Y;
Y;TIMING;__STRF;Start Relative to Reference Period;180;C;20;;text;STENRF;Perm;;;;Timing;(STENRF);;UPPERCASE;;Identifies the start of the observation as being before, during, or after the sponsor-defined reference period. The sponsor-defined reference period is a continuous period of time defined by a discrete starting point and a discrete ending point represented by RFSTDTC and RFENDTC in Demographics.;Identifies the start of the observation as being before, during, or after the sponsor-defined reference period. The sponsor-defined reference period is a continuous period of time defined by a discrete starting point and a discrete ending point represented by RFSTDTC and RFENDTC in Demographics.;Y;;Y;;;
Y;TIMING;__ENRF;End Relative to Reference Period;190;C;20;;text;STENRF;Perm;;;;Timing;(STENRF);;UPPERCASE;;Identifies the end of the observation as being before, during or after the sponsor-defined reference period. The sponsor-defined reference period is a continuous period of time defined by a discrete starting point and a discrete ending point represented by RFSTDTC and RFENDTC in Demographics.;Identifies the end of the observation as being before, during or after the sponsor-defined reference period. The sponsor-defined reference period is a continuous period of time defined by a discrete starting point and a discrete ending point represented by RFSTDTC and RFENDTC in Demographics.;Y;;Y;;;
Y;TIMING;__EVLINT;Evaluation Interval;200;C;64;;durationDatetime;;Perm;;;;Timing;ISO 8601;;UPPERCASE DURATION;;Duration of interval associated with an observation such as a finding --TESTCD, represented in ISO 8601 character format. Example: -P2M to represent a period of the past 2 months as the evaluation interval for a question from a questionnaire such as SF-36.;"Duration of interval associated with an observation such as a finding --TESTCD. Usually used with --DTC to describe an interval of this duration that ended at the time represented in --DTC. Example: ""-P2M"" to represent a period of the past 2 months as the evaluation interval for a question from a questionnaire.";Y;;Y;;;
Y;TIMING;__EVINTX;Evaluation Interval Text;210;C;40;;text;;Perm;CRF;Collected;Investigator;Timing;;;UPPERCASE;;;"Evaluation interval associated with an observation, where the interval is not able to be represented in ISO 8601 format. Examples: ""LIFETIME"", ""LAST NIGHT"", ""RECENTLY"", ""OVER THE LAST FEW WEEKS"".";Y;;Y;;;
Y;TIMING;__STRTPT;Start Relative to Reference Time Point;220;C;40;;text;STENRF;Perm;;;;Timing;(STENRF);;UPPERCASE;;Identifies the start of the observation as being before or after the sponsor-defined reference time point defined by variable --STTPT.;Identifies the start of the observation as being before or after the sponsor- defined reference time point defined by variable --STTPT.;Y;;Y;;;
Y;TIMING;__STTPT;Start Reference Time Point;230;C;40;;text;;Perm;;;;Timing;;;UPPERCASE;;"Description or date/time in ISO 8601 or other character format of the sponsor-defined reference point referred to by --STRTPT. Examples: ""2003-12-15"" or ""VISIT 1"".";"Description or date/time in ISO 8601 or other character format of the sponsor- defined reference point referred to by --STRTPT. Examples: ""2003-12-15"" or ""VISIT 1"".";;;;;;
Y;TIMING;__ENRTPT;End Relative to Reference Time Point;240;C;40;;text;STENRF;Perm;;;;Timing;(STENRF);;UPPERCASE;;Identifies the end of the observation as being before or after the sponsor-defined reference time point defined by variable --ENTPT.;Identifies the end of the observation as being before or after the sponsor- defined reference time point defined by variable --ENTPT.;Y;;Y;;;
Y;TIMING;__ENTPT;End Reference Time Point;250;C;40;;text;;Perm;;;;Timing;;;UPPERCASE;;"Description or date/time in ISO 8601 or other character format of the sponsor-defined reference point referred to by --ENRTPT. Examples: ""2003-12-25"" or ""VISIT 2"".";"Description or date/time in ISO 8601 or other character format of the sponsor- defined reference point referred to by --ENRTPT. Examples: ""2003-12-25"" or ""VISIT 2"".";;;;;;
Y;TIMING;__STINT;Planned Start of Assessment Interval;260;C;64;;durationDatetime;;Perm;;;;Timing;ISO 8601;;UPPERCASE DURATION;;;The start of a planned evaluation or assessment interval relative to the Time Point Reference.;;;;;;
Y;TIMING;__ENINT;Planned End of Assessment Interval;270;C;64;;durationDatetime;;Perm;;;;Timing;ISO 8601;;UPPERCASE DURATION;;;The end of a planned evaluation or assessment interval relative to the Time Point Reference.;;;;;;
Y;TIMING;MIDS;Disease Milestone Instance Name;280;C;80;;text;;Perm;;;;Timing;;;;;;The name of a specific instance of a Disease Milestone Type (MIDSTYPE) described in the Trial Disease Milestones dataset (see Section 3.5, Trial Disease Milestones). This should be unique within a subject. Used only in conjunction with RELMIDS and MIDSDTC.;;;;;;
Y;TIMING;RELMIDS;Temporal Relation to Milestone Instance;290;C;80;;text;;Perm;;;;Timing;;;UPPERCASE;;;"The temporal relationship of the observation to the Disease Milestone Instance Name in MIDS. Examples: ""IMMEDIATELY BEFORE"", ""AT TIME OF"", ""AFTER"".";;;;;;
Y;TS;TSPARMCD;Trial Summary Parameter Short Name;10;C;8;;text;TSPARMCD;Req;Assigned;Assigned;Sponsor;Topic;(TSPARMCD);;UPPERCASE;;;TSPARMCD (the companion to TSPARM) is limited to 8 characters and does not have special character restrictions. These values should be short for ease of use in programming, but it is not expected that TSPARMCD will need to serve as variable names. Examples: AGEMIN, AGEMAX;;;;;;
Y;TS;TSPARM;Trial Summary Parameter;20;C;40;;text;TSPARM;Req;Protocol;Protocol;Sponsor;Synonym Qualifier;(TSPARM);;MIXEDCASE;;;Term for the Trial Summary Parameter. The value in TSPARM cannot be longer than 40 characters. Examples Planned Minimum Age of Subjects, Planned Maximum Age of Subjects;;;;;;
Y;TS;TSVAL;Parameter Value;30;C;200;;text;;Exp;Protocol;Protocol;Sponsor;Result Qualifier;*;;MIXEDCASE;;;"Value of TSPARM. Example: ""ASTHMA"" when TSPARM value is ""Trial Indication"". TSVAL can only be null when TSVALNF is populated. Text over 200 characters can be added to additional columns TSVAL1-TSVALn.";;;;;;
;TS;TSVAL1;Parameter Value 1;40;C;200;;text;;Perm;Protocol;Protocol;Sponsor;Result Qualifier;;;MIXEDCASE;;;;;;;;;
;TS;TSVAL2;Parameter Value 2;50;C;200;;text;;Perm;Protocol;Protocol;Sponsor;Result Qualifier;;;MIXEDCASE;;;;;;;;;
;TS;TSVAL3;Parameter Value 3;60;C;200;;text;;Perm;Protocol;Protocol;Sponsor;Result Qualifier;;;MIXEDCASE;;;;;;;;;
;TS;TSVAL4;Parameter Value 4;70;C;200;;text;;Perm;Protocol;Protocol;Sponsor;Result Qualifier;;;MIXEDCASE;;;;;;;;;
;TS;TSVAL5;Parameter Value 5;80;C;200;;text;;Perm;Protocol;Protocol;Sponsor;Result Qualifier;;;MIXEDCASE;;;;;;;;;
;TS;TSVAL6;Parameter Value 6;90;C;200;;text;;Perm;Protocol;Protocol;Sponsor;Result Qualifier;;;MIXEDCASE;;;;;;;;;
;TS;TSVAL7;Parameter Value 7;100;C;200;;text;;Perm;Protocol;Protocol;Sponsor;Result Qualifier;;;MIXEDCASE;;;;;;;;;
;TS;TSVAL8;Parameter Value 8;110;C;200;;text;;Perm;Protocol;Protocol;Sponsor;Result Qualifier;;;MIXEDCASE;;;;;;;;;
;TS;TSVAL9;Parameter Value 9;120;C;200;;text;;Perm;Protocol;Protocol;Sponsor;Result Qualifier;;;MIXEDCASE;;;;;;;;;
Y;TS;TSVALNF;Parameter Null Flavor;130;C;40;;text;;Perm;Protocol;Protocol;Sponsor;Result Qualifier;NULLFLAVOR;;UPPERCASE;;;Null flavor for the value of TSPARM, to be populated if and only if TSVAL is null.;;;;;;
Y;TS;TSVALCD;Parameter Value Code;140;C;80;;text;;Exp;Protocol;Protocol;Sponsor;Result Qualifier;*;;UPPERCASE;;;"This is the code of the term in TSVAL. For example; 6CW7F3G59X is the code for Gabapentin, C49488 is the code for Y. The length of this variable can be longer than 8 to accommodate the length of the external terminology.";;;;;;
Y;TS;TSVCDREF;Name of the Reference Terminology;150;C;40;;text;;Exp;Protocol;Protocol;Sponsor;Result Qualifier;;;MIXEDCASE;;;"The name of the Reference Terminology from which TSVALCD is taken. For example; CDISC, SNOMED, ISO 8601.";;;;;;
Y;TS;TSVCDVER;Version of the Reference Terminology;160;C;40;;text;;Exp;Protocol;Protocol;Sponsor;Result Qualifier;;;UPPERCASE;;;The version number of the Reference Terminology, if applicable.;;;;;;
Y;TV;ARMCD;Planned Arm Code;10;C;20;;text;;Exp;Assigned;Assigned;Sponsor;Record Qualifier;*;;UPPERCASE;;;"1.ARMCD is limited to 20 characters and does not have special character restrictions. The maximum length of ARMCD is longer than for other ""short"" variables to accommodate the kind of values that are likely to be needed for crossover trials. For example, if ARMCD values for a seven- period crossover were constructed using two-character abbreviations for each treatment and separating hyphens, the length of ARMCD values would be 20. 2. If the timing of Visits for a trial does not depend on which ARM a subject is in, then ARMCD should be null.";;;;;;
Y;TV;ARM;Description of Planned Arm;20;C;40;;text;;Perm;Protocol;Protocol;Sponsor;Synonym Qualifier;*;;UPPERCASE;;;1. Name given to an Arm or Treatment Group. 2. If the timing of Visits for a trial does not depend on which Arm a subject is in, then Arm should be left blank.;;;;;;
Y;TV;TVSTRL;Visit Start Rule;30;C;200;;text;;Req;Protocol;Protocol;Sponsor;Rule;;;UPPERCASE;;;Rule describing when the Visit starts, in relation to the sequence of Elements.;;;;;;
Y;TV;TVENRL;Visit End Rule;40;C;200;;text;;Perm;Protocol;Protocol;Sponsor;Rule;;;UPPERCASE;;;Rule describing when the Visit ends, in relation to the sequence of Elements.;;;;;;
;[NEW];;;        .;;        .;;;;;;;;;;;;;;;;;;;;
