{"_links": {"parentClass": {"href": "/mdr/sdtmig/3-2/classes/Interventions", "title": "Interventions Observation Class", "type": "Class"}, "parentProduct": {"href": "/mdr/sdtmig/3-2", "title": "Study Data Tabulation Model Implementation Guide: Human Clinical Trials Version 3.2 (Final)", "type": "Implementation Guide"}, "priorVersion": {"href": "/mdr/sdtmig/3-1-3/datasets/CM", "title": "Concomitant Medications", "type": "SDTM Dataset"}, "self": {"href": "/mdr/sdtmig/3-2/datasets/CM", "title": "Concomitant Medications", "type": "SDTM Dataset"}}, "datasetStructure": "One record per recorded intervention occurrence or constant-dosing interval per subject", "datasetVariables": [{"_links": {"modelClassVariable": {"href": "/mdr/sdtm/1-4/classes/GeneralObservations/variables/STUDYID", "title": "Study Identifier", "type": "Class Variable"}, "parentDataset": {"href": "/mdr/sdtmig/3-2/datasets/CM", "title": "Concomitant Medications", "type": "SDTM Dataset"}, "parentProduct": {"href": "/mdr/sdtmig/3-2", "title": "Study Data Tabulation Model Implementation Guide: Human Clinical Trials Version 3.2 (Final)", "type": "Implementation Guide"}, "priorVersion": {"href": "/mdr/sdtmig/3-1-3/datasets/CM/variables/STUDYID", "title": "Study Identifier", "type": "SDTM Dataset Variable"}, "rootItem": {"href": "/mdr/root/sdtmig/datasets/CM/variables/STUDYID", "title": "Version-agnostic anchor resource for SDTMIG variable CM.STUDYID", "type": "Root Data Element"}, "self": {"href": "/mdr/sdtmig/3-2/datasets/CM/variables/STUDYID", "title": "Study Identifier", "type": "SDTM Dataset Variable"}}, "core": "Req", "description": "Unique identifier for a study.", "label": "Study Identifier", "name": "STUDYID", "ordinal": "1", "role": "Identifier", "simpleDatatype": "Char"}, {"_links": {"modelClassVariable": {"href": "/mdr/sdtm/1-4/classes/GeneralObservations/variables/DOMAIN", "title": "Domain Abbreviation", "type": "Class Variable"}, "parentDataset": {"href": "/mdr/sdtmig/3-2/datasets/CM", "title": "Concomitant Medications", "type": "SDTM Dataset"}, "parentProduct": {"href": "/mdr/sdtmig/3-2", "title": "Study Data Tabulation Model Implementation Guide: Human Clinical Trials Version 3.2 (Final)", "type": "Implementation Guide"}, "priorVersion": {"href": "/mdr/sdtmig/3-1-3/datasets/CM/variables/DOMAIN", "title": "Domain Abbreviation", "type": "SDTM Dataset Variable"}, "rootItem": {"href": "/mdr/root/sdtmig/datasets/CM/variables/DOMAIN", "title": "Version-agnostic anchor resource for SDTMIG variable CM.DOMAIN", "type": "Root Data Element"}, "self": {"href": "/mdr/sdtmig/3-2/datasets/CM/variables/DOMAIN", "title": "Domain Abbreviation", "type": "SDTM Dataset Variable"}}, "core": "Req", "description": "Two-character abbreviation for the domain.", "label": "Domain Abbreviation", "name": "DOMAIN", "ordinal": "2", "role": "Identifier", "simpleDatatype": "Char", "valueList": ["CM"]}, {"_links": {"modelClassVariable": {"href": "/mdr/sdtm/1-4/classes/GeneralObservations/variables/USUBJID", "title": "Unique Subject Identifier", "type": "Class Variable"}, "parentDataset": {"href": "/mdr/sdtmig/3-2/datasets/CM", "title": "Concomitant Medications", "type": "SDTM Dataset"}, "parentProduct": {"href": "/mdr/sdtmig/3-2", "title": "Study Data Tabulation Model Implementation Guide: Human Clinical Trials Version 3.2 (Final)", "type": "Implementation Guide"}, "priorVersion": {"href": "/mdr/sdtmig/3-1-3/datasets/CM/variables/USUBJID", "title": "Unique Subject Identifier", "type": "SDTM Dataset Variable"}, "rootItem": {"href": "/mdr/root/sdtmig/datasets/CM/variables/USUBJID", "title": "Version-agnostic anchor resource for SDTMIG variable CM.USUBJID", "type": "Root Data Element"}, "self": {"href": "/mdr/sdtmig/3-2/datasets/CM/variables/USUBJID", "title": "Unique Subject Identifier", "type": "SDTM Dataset Variable"}}, "core": "Req", "description": "Identifier used to uniquely identify a subject across all studies for all applications or submissions involving the product.", "label": "Unique Subject Identifier", "name": "USUBJID", "ordinal": "3", "role": "Identifier", "simpleDatatype": "Char"}, {"_links": {"modelClassVariable": {"href": "/mdr/sdtm/1-4/classes/GeneralObservations/variables/--SEQ", "title": "Sequence Number", "type": "Class Variable"}, "parentDataset": {"href": "/mdr/sdtmig/3-2/datasets/CM", "title": "Concomitant Medications", "type": "SDTM Dataset"}, "parentProduct": {"href": "/mdr/sdtmig/3-2", "title": "Study Data Tabulation Model Implementation Guide: Human Clinical Trials Version 3.2 (Final)", "type": "Implementation Guide"}, "priorVersion": {"href": "/mdr/sdtmig/3-1-3/datasets/CM/variables/CMSEQ", "title": "Sequence Number", "type": "SDTM Dataset Variable"}, "rootItem": {"href": "/mdr/root/sdtmig/datasets/CM/variables/CMSEQ", "title": "Version-agnostic anchor resource for SDTMIG variable CM.CMSEQ", "type": "Root Data Element"}, "self": {"href": "/mdr/sdtmig/3-2/datasets/CM/variables/CMSEQ", "title": "Sequence Number", "type": "SDTM Dataset Variable"}}, "core": "Req", "description": "Sequence Number given to ensure uniqueness of subject records within a domain. May be any valid number.", "label": "Sequence Number", "name": "CMSEQ", "ordinal": "4", "role": "Identifier", "simpleDatatype": "Num"}, {"_links": {"modelClassVariable": {"href": "/mdr/sdtm/1-4/classes/GeneralObservations/variables/--GRPID", "title": "Group ID", "type": "Class Variable"}, "parentDataset": {"href": "/mdr/sdtmig/3-2/datasets/CM", "title": "Concomitant Medications", "type": "SDTM Dataset"}, "parentProduct": {"href": "/mdr/sdtmig/3-2", "title": "Study Data Tabulation Model Implementation Guide: Human Clinical Trials Version 3.2 (Final)", "type": "Implementation Guide"}, "priorVersion": {"href": "/mdr/sdtmig/3-1-3/datasets/CM/variables/CMGRPID", "title": "Group ID", "type": "SDTM Dataset Variable"}, "rootItem": {"href": "/mdr/root/sdtmig/datasets/CM/variables/CMGRPID", "title": "Version-agnostic anchor resource for SDTMIG variable CM.CMGRPID", "type": "Root Data Element"}, "self": {"href": "/mdr/sdtmig/3-2/datasets/CM/variables/CMGRPID", "title": "Group ID", "type": "SDTM Dataset Variable"}}, "core": "Perm", "description": "Used to tie together a block of related records in a single domain for a subject.", "label": "Group ID", "name": "CMGRPID", "ordinal": "5", "role": "Identifier", "simpleDatatype": "Char"}, {"_links": {"modelClassVariable": {"href": "/mdr/sdtm/1-4/classes/GeneralObservations/variables/--SPID", "title": "Sponsor-Defined Identifier", "type": "Class Variable"}, "parentDataset": {"href": "/mdr/sdtmig/3-2/datasets/CM", "title": "Concomitant Medications", "type": "SDTM Dataset"}, "parentProduct": {"href": "/mdr/sdtmig/3-2", "title": "Study Data Tabulation Model Implementation Guide: Human Clinical Trials Version 3.2 (Final)", "type": "Implementation Guide"}, "priorVersion": {"href": "/mdr/sdtmig/3-1-3/datasets/CM/variables/CMSPID", "title": "Sponsor-Defined Identifier", "type": "SDTM Dataset Variable"}, "rootItem": {"href": "/mdr/root/sdtmig/datasets/CM/variables/CMSPID", "title": "Version-agnostic anchor resource for SDTMIG variable CM.CMSPID", "type": "Root Data Element"}, "self": {"href": "/mdr/sdtmig/3-2/datasets/CM/variables/CMSPID", "title": "Sponsor-Defined Identifier", "type": "SDTM Dataset Variable"}}, "core": "Perm", "description": "Sponsor-defined reference number. Examples: a number pre-printed on the CRF as an explicit line identifier or record identifier defined in the sponsor's operational database. Example: line number on a concomitant medication page.", "label": "Sponsor-Defined Identifier", "name": "CMSPID", "ordinal": "6", "role": "Identifier", "simpleDatatype": "Char"}, {"_links": {"modelClassVariable": {"href": "/mdr/sdtm/1-4/classes/Interventions/variables/--TRT", "title": "Name of Treatment", "type": "Class Variable"}, "parentDataset": {"href": "/mdr/sdtmig/3-2/datasets/CM", "title": "Concomitant Medications", "type": "SDTM Dataset"}, "parentProduct": {"href": "/mdr/sdtmig/3-2", "title": "Study Data Tabulation Model Implementation Guide: Human Clinical Trials Version 3.2 (Final)", "type": "Implementation Guide"}, "priorVersion": {"href": "/mdr/sdtmig/3-1-3/datasets/CM/variables/CMTRT", "title": "Reported Name of Drug, Med, or Therapy", "type": "SDTM Dataset Variable"}, "rootItem": {"href": "/mdr/root/sdtmig/datasets/CM/variables/CMTRT", "title": "Version-agnostic anchor resource for SDTMIG variable CM.CMTRT", "type": "Root Data Element"}, "self": {"href": "/mdr/sdtmig/3-2/datasets/CM/variables/CMTRT", "title": "Reported Name of Drug, Med, or Therapy", "type": "SDTM Dataset Variable"}}, "core": "Req", "description": "Verbatim medication name that is either pre-printed or collected on a CRF.", "label": "Reported Name of Drug, Med, or Therapy", "name": "CMTRT", "ordinal": "7", "role": "Topic", "simpleDatatype": "Char"}, {"_links": {"modelClassVariable": {"href": "/mdr/sdtm/1-4/classes/Interventions/variables/--MODIFY", "title": "Modified Treatment Name", "type": "Class Variable"}, "parentDataset": {"href": "/mdr/sdtmig/3-2/datasets/CM", "title": "Concomitant Medications", "type": "SDTM Dataset"}, "parentProduct": {"href": "/mdr/sdtmig/3-2", "title": "Study Data Tabulation Model Implementation Guide: Human Clinical Trials Version 3.2 (Final)", "type": "Implementation Guide"}, "priorVersion": {"href": "/mdr/sdtmig/3-1-3/datasets/CM/variables/CMMODIFY", "title": "Modified Reported Name", "type": "SDTM Dataset Variable"}, "rootItem": {"href": "/mdr/root/sdtmig/datasets/CM/variables/CMMODIFY", "title": "Version-agnostic anchor resource for SDTMIG variable CM.CMMODIFY", "type": "Root Data Element"}, "self": {"href": "/mdr/sdtmig/3-2/datasets/CM/variables/CMMODIFY", "title": "Modified Reported Name", "type": "SDTM Dataset Variable"}}, "core": "Perm", "description": "If CMTRT is modified to facilitate coding, then CMMODIFY will contain the modified text.", "label": "Modified Reported Name", "name": "CMMODIFY", "ordinal": "8", "role": "Synonym Qualifier", "simpleDatatype": "Char"}, {"_links": {"modelClassVariable": {"href": "/mdr/sdtm/1-4/classes/Interventions/variables/--DECOD", "title": "Standardized Treatment Name", "type": "Class Variable"}, "parentDataset": {"href": "/mdr/sdtmig/3-2/datasets/CM", "title": "Concomitant Medications", "type": "SDTM Dataset"}, "parentProduct": {"href": "/mdr/sdtmig/3-2", "title": "Study Data Tabulation Model Implementation Guide: Human Clinical Trials Version 3.2 (Final)", "type": "Implementation Guide"}, "priorVersion": {"href": "/mdr/sdtmig/3-1-3/datasets/CM/variables/CMDECOD", "title": "Standardized Medication Name", "type": "SDTM Dataset Variable"}, "rootItem": {"href": "/mdr/root/sdtmig/datasets/CM/variables/CMDECOD", "title": "Version-agnostic anchor resource for SDTMIG variable CM.CMDECOD", "type": "Root Data Element"}, "self": {"href": "/mdr/sdtmig/3-2/datasets/CM/variables/CMDECOD", "title": "Standardized Medication Name", "type": "SDTM Dataset Variable"}}, "core": "Perm", "description": "Standardized or dictionary-derived text description of CMTRT or CMMODIFY. Equivalent to the generic medication name in WHO Drug. The sponsor is expected to provide the dictionary name and version used to map the terms utilizing the define.xml external codelist attributes. If an intervention term does not have a decode value in the dictionary then CMDECOD will be left blank.", "label": "Standardized Medication Name", "name": "CMDECOD", "ordinal": "9", "role": "Synonym Qualifier", "simpleDatatype": "Char"}, {"_links": {"modelClassVariable": {"href": "/mdr/sdtm/1-4/classes/Interventions/variables/--CAT", "title": "Category", "type": "Class Variable"}, "parentDataset": {"href": "/mdr/sdtmig/3-2/datasets/CM", "title": "Concomitant Medications", "type": "SDTM Dataset"}, "parentProduct": {"href": "/mdr/sdtmig/3-2", "title": "Study Data Tabulation Model Implementation Guide: Human Clinical Trials Version 3.2 (Final)", "type": "Implementation Guide"}, "priorVersion": {"href": "/mdr/sdtmig/3-1-3/datasets/CM/variables/CMCAT", "title": "Category for Medication", "type": "SDTM Dataset Variable"}, "rootItem": {"href": "/mdr/root/sdtmig/datasets/CM/variables/CMCAT", "title": "Version-agnostic anchor resource for SDTMIG variable CM.CMCAT", "type": "Root Data Element"}, "self": {"href": "/mdr/sdtmig/3-2/datasets/CM/variables/CMCAT", "title": "Category for Medication", "type": "SDTM Dataset Variable"}}, "core": "Perm", "description": "Used to define a category of medications/treatments. Examples: PRIOR, CONCOMITANT, ANTI-CANCER MEDICATION, or GENERAL CONMED.", "label": "Category for Medication", "name": "CMCAT", "ordinal": "10", "role": "Grouping Qualifier", "simpleDatatype": "Char"}, {"_links": {"modelClassVariable": {"href": "/mdr/sdtm/1-4/classes/Interventions/variables/--SCAT", "title": "Subcategory", "type": "Class Variable"}, "parentDataset": {"href": "/mdr/sdtmig/3-2/datasets/CM", "title": "Concomitant Medications", "type": "SDTM Dataset"}, "parentProduct": {"href": "/mdr/sdtmig/3-2", "title": "Study Data Tabulation Model Implementation Guide: Human Clinical Trials Version 3.2 (Final)", "type": "Implementation Guide"}, "priorVersion": {"href": "/mdr/sdtmig/3-1-3/datasets/CM/variables/CMSCAT", "title": "Subcategory for Medication", "type": "SDTM Dataset Variable"}, "rootItem": {"href": "/mdr/root/sdtmig/datasets/CM/variables/CMSCAT", "title": "Version-agnostic anchor resource for SDTMIG variable CM.CMSCAT", "type": "Root Data Element"}, "self": {"href": "/mdr/sdtmig/3-2/datasets/CM/variables/CMSCAT", "title": "Subcategory for Medication", "type": "SDTM Dataset Variable"}}, "core": "Perm", "description": "A further categorization of medications/ treatment. Examples: CHEMOTHERAPY, HORMONAL THERAPY, ALTERNATIVE THERAPY.", "label": "Subcategory for Medication", "name": "CMSCAT", "ordinal": "11", "role": "Grouping Qualifier", "simpleDatatype": "Char"}, {"_links": {"codelist": [{"href": "/mdr/root/ct/sdtmct/codelists/C66742", "title": "Version-agnostic anchor resource for codelist C66742", "type": "Root Value Domain"}], "modelClassVariable": {"href": "/mdr/sdtm/1-4/classes/Interventions/variables/--PRESP", "title": "Pre-specified", "type": "Class Variable"}, "parentDataset": {"href": "/mdr/sdtmig/3-2/datasets/CM", "title": "Concomitant Medications", "type": "SDTM Dataset"}, "parentProduct": {"href": "/mdr/sdtmig/3-2", "title": "Study Data Tabulation Model Implementation Guide: Human Clinical Trials Version 3.2 (Final)", "type": "Implementation Guide"}, "priorVersion": {"href": "/mdr/sdtmig/3-1-3/datasets/CM/variables/CMPRESP", "title": "CM Pre-Specified", "type": "SDTM Dataset Variable"}, "rootItem": {"href": "/mdr/root/sdtmig/datasets/CM/variables/CMPRESP", "title": "Version-agnostic anchor resource for SDTMIG variable CM.CMPRESP", "type": "Root Data Element"}, "self": {"href": "/mdr/sdtmig/3-2/datasets/CM/variables/CMPRESP", "title": "CM Pre-Specified", "type": "SDTM Dataset Variable"}}, "core": "Perm", "description": "Used to indicate whether (Y/null) information about the use of a specific medication was solicited on the CRF.", "label": "CM Pre-Specified", "name": "CMPRESP", "ordinal": "12", "role": "Variable Qualifier", "simpleDatatype": "Char"}, {"_links": {"codelist": [{"href": "/mdr/root/ct/sdtmct/codelists/C66742", "title": "Version-agnostic anchor resource for codelist C66742", "type": "Root Value Domain"}], "modelClassVariable": {"href": "/mdr/sdtm/1-4/classes/Interventions/variables/--OCCUR", "title": "Occurrence", "type": "Class Variable"}, "parentDataset": {"href": "/mdr/sdtmig/3-2/datasets/CM", "title": "Concomitant Medications", "type": "SDTM Dataset"}, "parentProduct": {"href": "/mdr/sdtmig/3-2", "title": "Study Data Tabulation Model Implementation Guide: Human Clinical Trials Version 3.2 (Final)", "type": "Implementation Guide"}, "priorVersion": {"href": "/mdr/sdtmig/3-1-3/datasets/CM/variables/CMOCCUR", "title": "CM Occurrence", "type": "SDTM Dataset Variable"}, "rootItem": {"href": "/mdr/root/sdtmig/datasets/CM/variables/CMOCCUR", "title": "Version-agnostic anchor resource for SDTMIG variable CM.CMOCCUR", "type": "Root Data Element"}, "self": {"href": "/mdr/sdtmig/3-2/datasets/CM/variables/CMOCCUR", "title": "CM Occurrence", "type": "SDTM Dataset Variable"}}, "core": "Perm", "description": "When the use of specific medications is solicited, CMOCCUR is used to indicate whether or not (Y/N) use of the medication occurred. Values are null for medications not specifically solicited.", "label": "CM Occurrence", "name": "CMOCCUR", "ordinal": "13", "role": "Record Qualifier", "simpleDatatype": "Char"}, {"_links": {"codelist": [{"href": "/mdr/root/ct/sdtmct/codelists/C66789", "title": "Version-agnostic anchor resource for codelist C66789", "type": "Root Value Domain"}], "modelClassVariable": {"href": "/mdr/sdtm/1-4/classes/Interventions/variables/--STAT", "title": "Completion Status", "type": "Class Variable"}, "parentDataset": {"href": "/mdr/sdtmig/3-2/datasets/CM", "title": "Concomitant Medications", "type": "SDTM Dataset"}, "parentProduct": {"href": "/mdr/sdtmig/3-2", "title": "Study Data Tabulation Model Implementation Guide: Human Clinical Trials Version 3.2 (Final)", "type": "Implementation Guide"}, "priorVersion": {"href": "/mdr/sdtmig/3-1-3/datasets/CM/variables/CMSTAT", "title": "Completion Status", "type": "SDTM Dataset Variable"}, "rootItem": {"href": "/mdr/root/sdtmig/datasets/CM/variables/CMSTAT", "title": "Version-agnostic anchor resource for SDTMIG variable CM.CMSTAT", "type": "Root Data Element"}, "self": {"href": "/mdr/sdtmig/3-2/datasets/CM/variables/CMSTAT", "title": "Completion Status", "type": "SDTM Dataset Variable"}}, "core": "Perm", "description": "Used to indicate that a question about a pre-specified medication was not answered. Should be null or have a value of NOT DONE.", "label": "Completion Status", "name": "CMSTAT", "ordinal": "14", "role": "Record Qualifier", "simpleDatatype": "Char"}, {"_links": {"modelClassVariable": {"href": "/mdr/sdtm/1-4/classes/Interventions/variables/--REASND", "title": "Reason Not Done", "type": "Class Variable"}, "parentDataset": {"href": "/mdr/sdtmig/3-2/datasets/CM", "title": "Concomitant Medications", "type": "SDTM Dataset"}, "parentProduct": {"href": "/mdr/sdtmig/3-2", "title": "Study Data Tabulation Model Implementation Guide: Human Clinical Trials Version 3.2 (Final)", "type": "Implementation Guide"}, "priorVersion": {"href": "/mdr/sdtmig/3-1-3/datasets/CM/variables/CMREASND", "title": "Reason Medication Not Collected", "type": "SDTM Dataset Variable"}, "rootItem": {"href": "/mdr/root/sdtmig/datasets/CM/variables/CMREASND", "title": "Version-agnostic anchor resource for SDTMIG variable CM.CMREASND", "type": "Root Data Element"}, "self": {"href": "/mdr/sdtmig/3-2/datasets/CM/variables/CMREASND", "title": "Reason Medication Not Collected", "type": "SDTM Dataset Variable"}}, "core": "Perm", "description": "Describes the reason concomitant medication was not collected. Used in conjunction with CMSTAT when value is NOT DONE.", "label": "Reason Medication Not Collected", "name": "CMREASND", "ordinal": "15", "role": "Record Qualifier", "simpleDatatype": "Char"}, {"_links": {"modelClassVariable": {"href": "/mdr/sdtm/1-4/classes/Interventions/variables/--INDC", "title": "Indication", "type": "Class Variable"}, "parentDataset": {"href": "/mdr/sdtmig/3-2/datasets/CM", "title": "Concomitant Medications", "type": "SDTM Dataset"}, "parentProduct": {"href": "/mdr/sdtmig/3-2", "title": "Study Data Tabulation Model Implementation Guide: Human Clinical Trials Version 3.2 (Final)", "type": "Implementation Guide"}, "priorVersion": {"href": "/mdr/sdtmig/3-1-3/datasets/CM/variables/CMINDC", "title": "Indication", "type": "SDTM Dataset Variable"}, "rootItem": {"href": "/mdr/root/sdtmig/datasets/CM/variables/CMINDC", "title": "Version-agnostic anchor resource for SDTMIG variable CM.CMINDC", "type": "Root Data Element"}, "self": {"href": "/mdr/sdtmig/3-2/datasets/CM/variables/CMINDC", "title": "Indication", "type": "SDTM Dataset Variable"}}, "core": "Perm", "description": "Denotes why a medication was taken or administered. Examples: NAUSEA, HYPERTENSION.", "label": "Indication", "name": "CMINDC", "ordinal": "16", "role": "Record Qualifier", "simpleDatatype": "Char"}, {"_links": {"modelClassVariable": {"href": "/mdr/sdtm/1-4/classes/Interventions/variables/--CLAS", "title": "Class", "type": "Class Variable"}, "parentDataset": {"href": "/mdr/sdtmig/3-2/datasets/CM", "title": "Concomitant Medications", "type": "SDTM Dataset"}, "parentProduct": {"href": "/mdr/sdtmig/3-2", "title": "Study Data Tabulation Model Implementation Guide: Human Clinical Trials Version 3.2 (Final)", "type": "Implementation Guide"}, "priorVersion": {"href": "/mdr/sdtmig/3-1-3/datasets/CM/variables/CMCLAS", "title": "Medication Class", "type": "SDTM Dataset Variable"}, "rootItem": {"href": "/mdr/root/sdtmig/datasets/CM/variables/CMCLAS", "title": "Version-agnostic anchor resource for SDTMIG variable CM.CMCLAS", "type": "Root Data Element"}, "self": {"href": "/mdr/sdtmig/3-2/datasets/CM/variables/CMCLAS", "title": "Medication Class", "type": "SDTM Dataset Variable"}}, "core": "Perm", "description": "Drug class. May be obtained from coding. When coding to a single class, populate with class value. If using a dictionary and coding to multiple classes, then follow Section 4: 4.1.2.8.3, Multiple Values For A Non-Result Qualifier Variable or omit CMCLAS.", "label": "Medication Class", "name": "CMCLAS", "ordinal": "17", "role": "Variable Qualifier", "simpleDatatype": "Char"}, {"_links": {"modelClassVariable": {"href": "/mdr/sdtm/1-4/classes/Interventions/variables/--CLASCD", "title": "Class Code", "type": "Class Variable"}, "parentDataset": {"href": "/mdr/sdtmig/3-2/datasets/CM", "title": "Concomitant Medications", "type": "SDTM Dataset"}, "parentProduct": {"href": "/mdr/sdtmig/3-2", "title": "Study Data Tabulation Model Implementation Guide: Human Clinical Trials Version 3.2 (Final)", "type": "Implementation Guide"}, "priorVersion": {"href": "/mdr/sdtmig/3-1-3/datasets/CM/variables/CMCLASCD", "title": "Medication Class Code", "type": "SDTM Dataset Variable"}, "rootItem": {"href": "/mdr/root/sdtmig/datasets/CM/variables/CMCLASCD", "title": "Version-agnostic anchor resource for SDTMIG variable CM.CMCLASCD", "type": "Root Data Element"}, "self": {"href": "/mdr/sdtmig/3-2/datasets/CM/variables/CMCLASCD", "title": "Medication Class Code", "type": "SDTM Dataset Variable"}}, "core": "Perm", "description": "Class code corresponding to CMCLAS. Drug class. May be obtained from coding. When coding to a single class, populate with class code. If using a dictionary and coding to multiple classes, then follow Section 4: 4.1.2.8.3, Multiple Values For A Non-Result Qualifier Variable or omit CMCLASCD.", "label": "Medication Class Code", "name": "CMCLASCD", "ordinal": "18", "role": "Variable Qualifier", "simpleDatatype": "Char"}, {"_links": {"modelClassVariable": {"href": "/mdr/sdtm/1-4/classes/Interventions/variables/--DOSE", "title": "Dose", "type": "Class Variable"}, "parentDataset": {"href": "/mdr/sdtmig/3-2/datasets/CM", "title": "Concomitant Medications", "type": "SDTM Dataset"}, "parentProduct": {"href": "/mdr/sdtmig/3-2", "title": "Study Data Tabulation Model Implementation Guide: Human Clinical Trials Version 3.2 (Final)", "type": "Implementation Guide"}, "priorVersion": {"href": "/mdr/sdtmig/3-1-3/datasets/CM/variables/CMDOSE", "title": "Dose per Administration", "type": "SDTM Dataset Variable"}, "rootItem": {"href": "/mdr/root/sdtmig/datasets/CM/variables/CMDOSE", "title": "Version-agnostic anchor resource for SDTMIG variable CM.CMDOSE", "type": "Root Data Element"}, "self": {"href": "/mdr/sdtmig/3-2/datasets/CM/variables/CMDOSE", "title": "Dose per Administration", "type": "SDTM Dataset Variable"}}, "core": "Perm", "description": "Amount of CMTRT taken. Not populated when CMDOSTXT is populated.", "label": "Dose per Administration", "name": "CMDOSE", "ordinal": "19", "role": "Record Qualifier", "simpleDatatype": "Num"}, {"_links": {"modelClassVariable": {"href": "/mdr/sdtm/1-4/classes/Interventions/variables/--DOSTXT", "title": "Dose Description", "type": "Class Variable"}, "parentDataset": {"href": "/mdr/sdtmig/3-2/datasets/CM", "title": "Concomitant Medications", "type": "SDTM Dataset"}, "parentProduct": {"href": "/mdr/sdtmig/3-2", "title": "Study Data Tabulation Model Implementation Guide: Human Clinical Trials Version 3.2 (Final)", "type": "Implementation Guide"}, "priorVersion": {"href": "/mdr/sdtmig/3-1-3/datasets/CM/variables/CMDOSTXT", "title": "Dose Description", "type": "SDTM Dataset Variable"}, "rootItem": {"href": "/mdr/root/sdtmig/datasets/CM/variables/CMDOSTXT", "title": "Version-agnostic anchor resource for SDTMIG variable CM.CMDOSTXT", "type": "Root Data Element"}, "self": {"href": "/mdr/sdtmig/3-2/datasets/CM/variables/CMDOSTXT", "title": "Dose Description", "type": "SDTM Dataset Variable"}}, "core": "Perm", "description": "Dosing amounts or a range of dosing information collected in text form. Units may be stored in CMDOSU. Example: 200-400, 15-20. Not populated when CMDOSE is populated.", "label": "Dose Description", "name": "CMDOSTXT", "ordinal": "20", "role": "Record Qualifier", "simpleDatatype": "Char"}, {"_links": {"codelist": [{"href": "/mdr/root/ct/sdtmct/codelists/C71620", "title": "Version-agnostic anchor resource for codelist C71620", "type": "Root Value Domain"}], "modelClassVariable": {"href": "/mdr/sdtm/1-4/classes/Interventions/variables/--DOSU", "title": "Dose Units", "type": "Class Variable"}, "parentDataset": {"href": "/mdr/sdtmig/3-2/datasets/CM", "title": "Concomitant Medications", "type": "SDTM Dataset"}, "parentProduct": {"href": "/mdr/sdtmig/3-2", "title": "Study Data Tabulation Model Implementation Guide: Human Clinical Trials Version 3.2 (Final)", "type": "Implementation Guide"}, "priorVersion": {"href": "/mdr/sdtmig/3-1-3/datasets/CM/variables/CMDOSU", "title": "Dose Units", "type": "SDTM Dataset Variable"}, "rootItem": {"href": "/mdr/root/sdtmig/datasets/CM/variables/CMDOSU", "title": "Version-agnostic anchor resource for SDTMIG variable CM.CMDOSU", "type": "Root Data Element"}, "self": {"href": "/mdr/sdtmig/3-2/datasets/CM/variables/CMDOSU", "title": "Dose Units", "type": "SDTM Dataset Variable"}}, "core": "Perm", "description": "Units for CMDOSE, CMDOSTOT, and CMDOSTXT. Examples: ng, mg, or mg/kg.", "label": "Dose Units", "name": "CMDOSU", "ordinal": "21", "role": "Variable Qualifier", "simpleDatatype": "Char"}, {"_links": {"codelist": [{"href": "/mdr/root/ct/sdtmct/codelists/C66726", "title": "Version-agnostic anchor resource for codelist C66726", "type": "Root Value Domain"}], "modelClassVariable": {"href": "/mdr/sdtm/1-4/classes/Interventions/variables/--DOSFRM", "title": "Dose Form", "type": "Class Variable"}, "parentDataset": {"href": "/mdr/sdtmig/3-2/datasets/CM", "title": "Concomitant Medications", "type": "SDTM Dataset"}, "parentProduct": {"href": "/mdr/sdtmig/3-2", "title": "Study Data Tabulation Model Implementation Guide: Human Clinical Trials Version 3.2 (Final)", "type": "Implementation Guide"}, "priorVersion": {"href": "/mdr/sdtmig/3-1-3/datasets/CM/variables/CMDOSFRM", "title": "Dose Form", "type": "SDTM Dataset Variable"}, "rootItem": {"href": "/mdr/root/sdtmig/datasets/CM/variables/CMDOSFRM", "title": "Version-agnostic anchor resource for SDTMIG variable CM.CMDOSFRM", "type": "Root Data Element"}, "self": {"href": "/mdr/sdtmig/3-2/datasets/CM/variables/CMDOSFRM", "title": "Dose Form", "type": "SDTM Dataset Variable"}}, "core": "Perm", "description": "Dose form for CMTRT. Examples: TABLET, LOTION.", "label": "Dose Form", "name": "CMDOSFRM", "ordinal": "22", "role": "Variable Qualifier", "simpleDatatype": "Char"}, {"_links": {"codelist": [{"href": "/mdr/root/ct/sdtmct/codelists/C71113", "title": "Version-agnostic anchor resource for codelist C71113", "type": "Root Value Domain"}], "modelClassVariable": {"href": "/mdr/sdtm/1-4/classes/Interventions/variables/--DOSFRQ", "title": "Dosing Frequency per Interval", "type": "Class Variable"}, "parentDataset": {"href": "/mdr/sdtmig/3-2/datasets/CM", "title": "Concomitant Medications", "type": "SDTM Dataset"}, "parentProduct": {"href": "/mdr/sdtmig/3-2", "title": "Study Data Tabulation Model Implementation Guide: Human Clinical Trials Version 3.2 (Final)", "type": "Implementation Guide"}, "priorVersion": {"href": "/mdr/sdtmig/3-1-3/datasets/CM/variables/CMDOSFRQ", "title": "Dosing Frequency per Interval", "type": "SDTM Dataset Variable"}, "rootItem": {"href": "/mdr/root/sdtmig/datasets/CM/variables/CMDOSFRQ", "title": "Version-agnostic anchor resource for SDTMIG variable CM.CMDOSFRQ", "type": "Root Data Element"}, "self": {"href": "/mdr/sdtmig/3-2/datasets/CM/variables/CMDOSFRQ", "title": "Dosing Frequency per Interval", "type": "SDTM Dataset Variable"}}, "core": "Perm", "description": "Usually expressed as the number of repeated administrations of CMDOSE within a specific time period. Examples: BID (twice daily), Q12H (every 12 hours).", "label": "Dosing Frequency per Interval", "name": "CMDOSFRQ", "ordinal": "23", "role": "Variable Qualifier", "simpleDatatype": "Char"}, {"_links": {"modelClassVariable": {"href": "/mdr/sdtm/1-4/classes/Interventions/variables/--DOSTOT", "title": "Total Daily Dose", "type": "Class Variable"}, "parentDataset": {"href": "/mdr/sdtmig/3-2/datasets/CM", "title": "Concomitant Medications", "type": "SDTM Dataset"}, "parentProduct": {"href": "/mdr/sdtmig/3-2", "title": "Study Data Tabulation Model Implementation Guide: Human Clinical Trials Version 3.2 (Final)", "type": "Implementation Guide"}, "priorVersion": {"href": "/mdr/sdtmig/3-1-3/datasets/CM/variables/CMDOSTOT", "title": "Total Daily Dose", "type": "SDTM Dataset Variable"}, "rootItem": {"href": "/mdr/root/sdtmig/datasets/CM/variables/CMDOSTOT", "title": "Version-agnostic anchor resource for SDTMIG variable CM.CMDOSTOT", "type": "Root Data Element"}, "self": {"href": "/mdr/sdtmig/3-2/datasets/CM/variables/CMDOSTOT", "title": "Total Daily Dose", "type": "SDTM Dataset Variable"}}, "core": "Perm", "description": "Total daily dose of CMTRT using the units in CMDOSU. Used when dosing is collected as Total Daily Dose. Total dose over a period other than day could be recorded in a separate Supplemental Qualifier variable.", "label": "Total Daily Dose", "name": "CMDOSTOT", "ordinal": "24", "role": "Record Qualifier", "simpleDatatype": "Num"}, {"_links": {"modelClassVariable": {"href": "/mdr/sdtm/1-4/classes/Interventions/variables/--DOSRGM", "title": "Intended Dose Regimen", "type": "Class Variable"}, "parentDataset": {"href": "/mdr/sdtmig/3-2/datasets/CM", "title": "Concomitant Medications", "type": "SDTM Dataset"}, "parentProduct": {"href": "/mdr/sdtmig/3-2", "title": "Study Data Tabulation Model Implementation Guide: Human Clinical Trials Version 3.2 (Final)", "type": "Implementation Guide"}, "priorVersion": {"href": "/mdr/sdtmig/3-1-3/datasets/CM/variables/CMDOSRGM", "title": "Intended Dose Regimen", "type": "SDTM Dataset Variable"}, "rootItem": {"href": "/mdr/root/sdtmig/datasets/CM/variables/CMDOSRGM", "title": "Version-agnostic anchor resource for SDTMIG variable CM.CMDOSRGM", "type": "Root Data Element"}, "self": {"href": "/mdr/sdtmig/3-2/datasets/CM/variables/CMDOSRGM", "title": "Intended Dose Regimen", "type": "SDTM Dataset Variable"}}, "core": "Perm", "description": "Text description of the (intended) schedule or regimen for the Intervention. Examples: TWO WEEKS ON, TWO WEEKS OFF.", "label": "Intended Dose Regimen", "name": "CMDOSRGM", "ordinal": "25", "role": "Variable Qualifier", "simpleDatatype": "Char"}, {"_links": {"codelist": [{"href": "/mdr/root/ct/sdtmct/codelists/C66729", "title": "Version-agnostic anchor resource for codelist C66729", "type": "Root Value Domain"}], "modelClassVariable": {"href": "/mdr/sdtm/1-4/classes/Interventions/variables/--ROUTE", "title": "Route of Administration", "type": "Class Variable"}, "parentDataset": {"href": "/mdr/sdtmig/3-2/datasets/CM", "title": "Concomitant Medications", "type": "SDTM Dataset"}, "parentProduct": {"href": "/mdr/sdtmig/3-2", "title": "Study Data Tabulation Model Implementation Guide: Human Clinical Trials Version 3.2 (Final)", "type": "Implementation Guide"}, "priorVersion": {"href": "/mdr/sdtmig/3-1-3/datasets/CM/variables/CMROUTE", "title": "Route of Administration", "type": "SDTM Dataset Variable"}, "rootItem": {"href": "/mdr/root/sdtmig/datasets/CM/variables/CMROUTE", "title": "Version-agnostic anchor resource for SDTMIG variable CM.CMROUTE", "type": "Root Data Element"}, "self": {"href": "/mdr/sdtmig/3-2/datasets/CM/variables/CMROUTE", "title": "Route of Administration", "type": "SDTM Dataset Variable"}}, "core": "Perm", "description": "Route of administration for CMTRT. Examples: ORAL, INTRAVENOUS.", "label": "Route of Administration", "name": "CMROUTE", "ordinal": "26", "role": "Variable Qualifier", "simpleDatatype": "Char"}, {"_links": {"modelClassVariable": {"href": "/mdr/sdtm/1-4/classes/GeneralObservations/variables/--STDTC", "title": "Start Date/Time of Observation", "type": "Class Variable"}, "parentDataset": {"href": "/mdr/sdtmig/3-2/datasets/CM", "title": "Concomitant Medications", "type": "SDTM Dataset"}, "parentProduct": {"href": "/mdr/sdtmig/3-2", "title": "Study Data Tabulation Model Implementation Guide: Human Clinical Trials Version 3.2 (Final)", "type": "Implementation Guide"}, "priorVersion": {"href": "/mdr/sdtmig/3-1-3/datasets/CM/variables/CMSTDTC", "title": "Start Date/Time of Medication", "type": "SDTM Dataset Variable"}, "rootItem": {"href": "/mdr/root/sdtmig/datasets/CM/variables/CMSTDTC", "title": "Version-agnostic anchor resource for SDTMIG variable CM.CMSTDTC", "type": "Root Data Element"}, "self": {"href": "/mdr/sdtmig/3-2/datasets/CM/variables/CMSTDTC", "title": "Start Date/Time of Medication", "type": "SDTM Dataset Variable"}}, "core": "Perm", "describedValueDomain": "ISO 8601", "label": "Start Date/Time of Medication", "name": "CMSTDTC", "ordinal": "27", "role": "Timing", "simpleDatatype": "Char"}, {"_links": {"modelClassVariable": {"href": "/mdr/sdtm/1-4/classes/GeneralObservations/variables/--ENDTC", "title": "End Date/Time of Observation", "type": "Class Variable"}, "parentDataset": {"href": "/mdr/sdtmig/3-2/datasets/CM", "title": "Concomitant Medications", "type": "SDTM Dataset"}, "parentProduct": {"href": "/mdr/sdtmig/3-2", "title": "Study Data Tabulation Model Implementation Guide: Human Clinical Trials Version 3.2 (Final)", "type": "Implementation Guide"}, "priorVersion": {"href": "/mdr/sdtmig/3-1-3/datasets/CM/variables/CMENDTC", "title": "End Date/Time of Medication", "type": "SDTM Dataset Variable"}, "rootItem": {"href": "/mdr/root/sdtmig/datasets/CM/variables/CMENDTC", "title": "Version-agnostic anchor resource for SDTMIG variable CM.CMENDTC", "type": "Root Data Element"}, "self": {"href": "/mdr/sdtmig/3-2/datasets/CM/variables/CMENDTC", "title": "End Date/Time of Medication", "type": "SDTM Dataset Variable"}}, "core": "Perm", "describedValueDomain": "ISO 8601", "label": "End Date/Time of Medication", "name": "CMENDTC", "ordinal": "28", "role": "Timing", "simpleDatatype": "Char"}, {"_links": {"modelClassVariable": {"href": "/mdr/sdtm/1-4/classes/GeneralObservations/variables/--STDY", "title": "Study Day of Start of Observation", "type": "Class Variable"}, "parentDataset": {"href": "/mdr/sdtmig/3-2/datasets/CM", "title": "Concomitant Medications", "type": "SDTM Dataset"}, "parentProduct": {"href": "/mdr/sdtmig/3-2", "title": "Study Data Tabulation Model Implementation Guide: Human Clinical Trials Version 3.2 (Final)", "type": "Implementation Guide"}, "priorVersion": {"href": "/mdr/sdtmig/3-1-3/datasets/CM/variables/CMSTDY", "title": "Study Day of Start of Medication", "type": "SDTM Dataset Variable"}, "rootItem": {"href": "/mdr/root/sdtmig/datasets/CM/variables/CMSTDY", "title": "Version-agnostic anchor resource for SDTMIG variable CM.CMSTDY", "type": "Root Data Element"}, "self": {"href": "/mdr/sdtmig/3-2/datasets/CM/variables/CMSTDY", "title": "Study Day of Start of Medication", "type": "SDTM Dataset Variable"}}, "core": "Perm", "description": "Study day of start of medication relative to the sponsor-defined RFSTDTC.", "label": "Study Day of Start of Medication", "name": "CMSTDY", "ordinal": "29", "role": "Timing", "simpleDatatype": "Num"}, {"_links": {"modelClassVariable": {"href": "/mdr/sdtm/1-4/classes/GeneralObservations/variables/--ENDY", "title": "Study Day of End of Observation", "type": "Class Variable"}, "parentDataset": {"href": "/mdr/sdtmig/3-2/datasets/CM", "title": "Concomitant Medications", "type": "SDTM Dataset"}, "parentProduct": {"href": "/mdr/sdtmig/3-2", "title": "Study Data Tabulation Model Implementation Guide: Human Clinical Trials Version 3.2 (Final)", "type": "Implementation Guide"}, "priorVersion": {"href": "/mdr/sdtmig/3-1-3/datasets/CM/variables/CMENDY", "title": "Study Day of End of Medication", "type": "SDTM Dataset Variable"}, "rootItem": {"href": "/mdr/root/sdtmig/datasets/CM/variables/CMENDY", "title": "Version-agnostic anchor resource for SDTMIG variable CM.CMENDY", "type": "Root Data Element"}, "self": {"href": "/mdr/sdtmig/3-2/datasets/CM/variables/CMENDY", "title": "Study Day of End of Medication", "type": "SDTM Dataset Variable"}}, "core": "Perm", "description": "Study day of end of medication relative to the sponsor-defined RFSTDTC.", "label": "Study Day of End of Medication", "name": "CMENDY", "ordinal": "30", "role": "Timing", "simpleDatatype": "Num"}, {"_links": {"modelClassVariable": {"href": "/mdr/sdtm/1-4/classes/GeneralObservations/variables/--DUR", "title": "Duration", "type": "Class Variable"}, "parentDataset": {"href": "/mdr/sdtmig/3-2/datasets/CM", "title": "Concomitant Medications", "type": "SDTM Dataset"}, "parentProduct": {"href": "/mdr/sdtmig/3-2", "title": "Study Data Tabulation Model Implementation Guide: Human Clinical Trials Version 3.2 (Final)", "type": "Implementation Guide"}, "priorVersion": {"href": "/mdr/sdtmig/3-1-3/datasets/CM/variables/CMDUR", "title": "Duration of Medication", "type": "SDTM Dataset Variable"}, "rootItem": {"href": "/mdr/root/sdtmig/datasets/CM/variables/CMDUR", "title": "Version-agnostic anchor resource for SDTMIG variable CM.CMDUR", "type": "Root Data Element"}, "self": {"href": "/mdr/sdtmig/3-2/datasets/CM/variables/CMDUR", "title": "Duration of Medication", "type": "SDTM Dataset Variable"}}, "core": "Perm", "describedValueDomain": "ISO 8601", "description": "Collected duration for a treatment episode. Used only if collected on the CRF and not derived from start and end date/times.", "label": "Duration of Medication", "name": "CMDUR", "ordinal": "31", "role": "Timing", "simpleDatatype": "Char"}, {"_links": {"codelist": [{"href": "/mdr/root/ct/sdtmct/codelists/C66728", "title": "Version-agnostic anchor resource for codelist C66728", "type": "Root Value Domain"}], "modelClassVariable": {"href": "/mdr/sdtm/1-4/classes/GeneralObservations/variables/--STRF", "title": "Start Relative to Reference Period", "type": "Class Variable"}, "parentDataset": {"href": "/mdr/sdtmig/3-2/datasets/CM", "title": "Concomitant Medications", "type": "SDTM Dataset"}, "parentProduct": {"href": "/mdr/sdtmig/3-2", "title": "Study Data Tabulation Model Implementation Guide: Human Clinical Trials Version 3.2 (Final)", "type": "Implementation Guide"}, "priorVersion": {"href": "/mdr/sdtmig/3-1-3/datasets/CM/variables/CMSTRF", "title": "Start Relative to Reference Period", "type": "SDTM Dataset Variable"}, "rootItem": {"href": "/mdr/root/sdtmig/datasets/CM/variables/CMSTRF", "title": "Version-agnostic anchor resource for SDTMIG variable CM.CMSTRF", "type": "Root Data Element"}, "self": {"href": "/mdr/sdtmig/3-2/datasets/CM/variables/CMSTRF", "title": "Start Relative to Reference Period", "type": "SDTM Dataset Variable"}}, "core": "Perm", "description": "Describes the start of the medication relative to sponsor-defined reference period. The sponsor-defined reference period is a continuous period of time defined by a discrete starting point and a discrete ending point (represented by RFSTDTC and RFENDTC in Demographics). If information such as \"PRIOR\", ONGOING or \"CONTINUING\" was collected, this information may be translated into CMSTRF.", "label": "Start Relative to Reference Period", "name": "CMSTRF", "ordinal": "32", "role": "Timing", "simpleDatatype": "Char"}, {"_links": {"codelist": [{"href": "/mdr/root/ct/sdtmct/codelists/C66728", "title": "Version-agnostic anchor resource for codelist C66728", "type": "Root Value Domain"}], "modelClassVariable": {"href": "/mdr/sdtm/1-4/classes/GeneralObservations/variables/--ENRF", "title": "End Relative to Reference Period", "type": "Class Variable"}, "parentDataset": {"href": "/mdr/sdtmig/3-2/datasets/CM", "title": "Concomitant Medications", "type": "SDTM Dataset"}, "parentProduct": {"href": "/mdr/sdtmig/3-2", "title": "Study Data Tabulation Model Implementation Guide: Human Clinical Trials Version 3.2 (Final)", "type": "Implementation Guide"}, "priorVersion": {"href": "/mdr/sdtmig/3-1-3/datasets/CM/variables/CMENRF", "title": "End Relative to Reference Period", "type": "SDTM Dataset Variable"}, "rootItem": {"href": "/mdr/root/sdtmig/datasets/CM/variables/CMENRF", "title": "Version-agnostic anchor resource for SDTMIG variable CM.CMENRF", "type": "Root Data Element"}, "self": {"href": "/mdr/sdtmig/3-2/datasets/CM/variables/CMENRF", "title": "End Relative to Reference Period", "type": "SDTM Dataset Variable"}}, "core": "Perm", "description": "Describes the end of the medication relative to the sponsor-defined reference period. The sponsor-defined reference period is a continuous period of time defined by a discrete starting point and a discrete ending point (represented by RFSTDTC and RFENDTC in Demographics). If information such as \"PRIOR\", \"ONGOING, or \"CONTINUING\" was collected, this information may be translated into CMENRF.", "label": "End Relative to Reference Period", "name": "CMENRF", "ordinal": "33", "role": "Timing", "simpleDatatype": "Char"}, {"_links": {"codelist": [{"href": "/mdr/root/ct/sdtmct/codelists/C66728", "title": "Version-agnostic anchor resource for codelist C66728", "type": "Root Value Domain"}], "modelClassVariable": {"href": "/mdr/sdtm/1-4/classes/GeneralObservations/variables/--STRTPT", "title": "Start Relative to Reference Time Point", "type": "Class Variable"}, "parentDataset": {"href": "/mdr/sdtmig/3-2/datasets/CM", "title": "Concomitant Medications", "type": "SDTM Dataset"}, "parentProduct": {"href": "/mdr/sdtmig/3-2", "title": "Study Data Tabulation Model Implementation Guide: Human Clinical Trials Version 3.2 (Final)", "type": "Implementation Guide"}, "priorVersion": {"href": "/mdr/sdtmig/3-1-3/datasets/CM/variables/CMSTRTPT", "title": "Start Relative to Reference Time Point", "type": "SDTM Dataset Variable"}, "rootItem": {"href": "/mdr/root/sdtmig/datasets/CM/variables/CMSTRTPT", "title": "Version-agnostic anchor resource for SDTMIG variable CM.CMSTRTPT", "type": "Root Data Element"}, "self": {"href": "/mdr/sdtmig/3-2/datasets/CM/variables/CMSTRTPT", "title": "Start Relative to Reference Time Point", "type": "SDTM Dataset Variable"}}, "core": "Perm", "description": "Identifies the start of the medication as being before or after the reference time point defined by variable CMSTTPT.", "label": "Start Relative to Reference Time Point", "name": "CMSTRTPT", "ordinal": "34", "role": "Timing", "simpleDatatype": "Char"}, {"_links": {"modelClassVariable": {"href": "/mdr/sdtm/1-4/classes/GeneralObservations/variables/--STTPT", "title": "Start Reference Time Point", "type": "Class Variable"}, "parentDataset": {"href": "/mdr/sdtmig/3-2/datasets/CM", "title": "Concomitant Medications", "type": "SDTM Dataset"}, "parentProduct": {"href": "/mdr/sdtmig/3-2", "title": "Study Data Tabulation Model Implementation Guide: Human Clinical Trials Version 3.2 (Final)", "type": "Implementation Guide"}, "priorVersion": {"href": "/mdr/sdtmig/3-1-3/datasets/CM/variables/CMSTTPT", "title": "Start Reference Time Point", "type": "SDTM Dataset Variable"}, "rootItem": {"href": "/mdr/root/sdtmig/datasets/CM/variables/CMSTTPT", "title": "Version-agnostic anchor resource for SDTMIG variable CM.CMSTTPT", "type": "Root Data Element"}, "self": {"href": "/mdr/sdtmig/3-2/datasets/CM/variables/CMSTTPT", "title": "Start Reference Time Point", "type": "SDTM Dataset Variable"}}, "core": "Perm", "description": "Description or date/time in ISO 8601 character format of the reference point referred to by CMSTRTPT. Examples: \"2003-12-15\" or \"VISIT 1\".", "label": "Start Reference Time Point", "name": "CMSTTPT", "ordinal": "35", "role": "Timing", "simpleDatatype": "Char"}, {"_links": {"codelist": [{"href": "/mdr/root/ct/sdtmct/codelists/C66728", "title": "Version-agnostic anchor resource for codelist C66728", "type": "Root Value Domain"}], "modelClassVariable": {"href": "/mdr/sdtm/1-4/classes/GeneralObservations/variables/--ENRTPT", "title": "End Relative to Reference Time Point", "type": "Class Variable"}, "parentDataset": {"href": "/mdr/sdtmig/3-2/datasets/CM", "title": "Concomitant Medications", "type": "SDTM Dataset"}, "parentProduct": {"href": "/mdr/sdtmig/3-2", "title": "Study Data Tabulation Model Implementation Guide: Human Clinical Trials Version 3.2 (Final)", "type": "Implementation Guide"}, "priorVersion": {"href": "/mdr/sdtmig/3-1-3/datasets/CM/variables/CMENRTPT", "title": "End Relative to Reference Time Point", "type": "SDTM Dataset Variable"}, "rootItem": {"href": "/mdr/root/sdtmig/datasets/CM/variables/CMENRTPT", "title": "Version-agnostic anchor resource for SDTMIG variable CM.CMENRTPT", "type": "Root Data Element"}, "self": {"href": "/mdr/sdtmig/3-2/datasets/CM/variables/CMENRTPT", "title": "End Relative to Reference Time Point", "type": "SDTM Dataset Variable"}}, "core": "Perm", "description": "Identifies the end of the medication as being before or after the reference time point defined by variable CMENTPT.", "label": "End Relative to Reference Time Point", "name": "CMENRTPT", "ordinal": "36", "role": "Timing", "simpleDatatype": "Char"}, {"_links": {"modelClassVariable": {"href": "/mdr/sdtm/1-4/classes/GeneralObservations/variables/--ENTPT", "title": "End Reference Time Point", "type": "Class Variable"}, "parentDataset": {"href": "/mdr/sdtmig/3-2/datasets/CM", "title": "Concomitant Medications", "type": "SDTM Dataset"}, "parentProduct": {"href": "/mdr/sdtmig/3-2", "title": "Study Data Tabulation Model Implementation Guide: Human Clinical Trials Version 3.2 (Final)", "type": "Implementation Guide"}, "priorVersion": {"href": "/mdr/sdtmig/3-1-3/datasets/CM/variables/CMENTPT", "title": "End Reference Time Point", "type": "SDTM Dataset Variable"}, "rootItem": {"href": "/mdr/root/sdtmig/datasets/CM/variables/CMENTPT", "title": "Version-agnostic anchor resource for SDTMIG variable CM.CMENTPT", "type": "Root Data Element"}, "self": {"href": "/mdr/sdtmig/3-2/datasets/CM/variables/CMENTPT", "title": "End Reference Time Point", "type": "SDTM Dataset Variable"}}, "core": "Perm", "description": "Description or date/time in ISO 8601 character format of the reference point referred to by CMENRTPT. Examples: \"2003-12-25\" or \"VISIT 2\".", "label": "End Reference Time Point", "name": "CMENTPT", "ordinal": "37", "role": "Timing", "simpleDatatype": "Char"}], "description": "An interventions domain that contains concomitant and prior medications used by the subject, such as those given on an as needed basis or condition-appropriate medications. (Source: CDISC Controlled Terminology, DOMAIN, C49568, 2018-06-29)", "label": "Concomitant Medications", "name": "CM", "ordinal": "5"}
