{"_links": {"parentClass": {"href": "/mdr/sdtmig/3-2/classes/Findings", "title": "Findings Observation Class", "type": "Class"}, "parentProduct": {"href": "/mdr/sdtmig/3-2", "title": "Study Data Tabulation Model Implementation Guide: Human Clinical Trials Version 3.2 (Final)", "type": "Implementation Guide"}, "priorVersion": {"href": "/mdr/sdtmig/3-1-3/datasets/DA", "title": "Drug Accountability", "type": "SDTM Dataset"}, "self": {"href": "/mdr/sdtmig/3-2/datasets/DA", "title": "Drug Accountability", "type": "SDTM Dataset"}}, "datasetStructure": "One record per drug accountability finding per subject", "datasetVariables": [{"_links": {"modelClassVariable": {"href": "/mdr/sdtm/1-4/classes/GeneralObservations/variables/STUDYID", "title": "Study Identifier", "type": "Class Variable"}, "parentDataset": {"href": "/mdr/sdtmig/3-2/datasets/DA", "title": "Drug Accountability", "type": "SDTM Dataset"}, "parentProduct": {"href": "/mdr/sdtmig/3-2", "title": "Study Data Tabulation Model Implementation Guide: Human Clinical Trials Version 3.2 (Final)", "type": "Implementation Guide"}, "priorVersion": {"href": "/mdr/sdtmig/3-1-3/datasets/DA/variables/STUDYID", "title": "Study Identifier", "type": "SDTM Dataset Variable"}, "rootItem": {"href": "/mdr/root/sdtmig/datasets/DA/variables/STUDYID", "title": "Version-agnostic anchor resource for SDTMIG variable DA.STUDYID", "type": "Root Data Element"}, "self": {"href": "/mdr/sdtmig/3-2/datasets/DA/variables/STUDYID", "title": "Study Identifier", "type": "SDTM Dataset Variable"}}, "core": "Req", "description": "Unique identifier for a study within the submission.", "label": "Study Identifier", "name": "STUDYID", "ordinal": "1", "role": "Identifier", "simpleDatatype": "Char"}, {"_links": {"modelClassVariable": {"href": "/mdr/sdtm/1-4/classes/GeneralObservations/variables/DOMAIN", "title": "Domain Abbreviation", "type": "Class Variable"}, "parentDataset": {"href": "/mdr/sdtmig/3-2/datasets/DA", "title": "Drug Accountability", "type": "SDTM Dataset"}, "parentProduct": {"href": "/mdr/sdtmig/3-2", "title": "Study Data Tabulation Model Implementation Guide: Human Clinical Trials Version 3.2 (Final)", "type": "Implementation Guide"}, "priorVersion": {"href": "/mdr/sdtmig/3-1-3/datasets/DA/variables/DOMAIN", "title": "Domain Abbreviation", "type": "SDTM Dataset Variable"}, "rootItem": {"href": "/mdr/root/sdtmig/datasets/DA/variables/DOMAIN", "title": "Version-agnostic anchor resource for SDTMIG variable DA.DOMAIN", "type": "Root Data Element"}, "self": {"href": "/mdr/sdtmig/3-2/datasets/DA/variables/DOMAIN", "title": "Domain Abbreviation", "type": "SDTM Dataset Variable"}}, "core": "Req", "description": "Two-character abbreviation for the domain.", "label": "Domain Abbreviation", "name": "DOMAIN", "ordinal": "2", "role": "Identifier", "simpleDatatype": "Char", "valueList": ["DA"]}, {"_links": {"modelClassVariable": {"href": "/mdr/sdtm/1-4/classes/GeneralObservations/variables/USUBJID", "title": "Unique Subject Identifier", "type": "Class Variable"}, "parentDataset": {"href": "/mdr/sdtmig/3-2/datasets/DA", "title": "Drug Accountability", "type": "SDTM Dataset"}, "parentProduct": {"href": "/mdr/sdtmig/3-2", "title": "Study Data Tabulation Model Implementation Guide: Human Clinical Trials Version 3.2 (Final)", "type": "Implementation Guide"}, "priorVersion": {"href": "/mdr/sdtmig/3-1-3/datasets/DA/variables/USUBJID", "title": "Unique Subject Identifier", "type": "SDTM Dataset Variable"}, "rootItem": {"href": "/mdr/root/sdtmig/datasets/DA/variables/USUBJID", "title": "Version-agnostic anchor resource for SDTMIG variable DA.USUBJID", "type": "Root Data Element"}, "self": {"href": "/mdr/sdtmig/3-2/datasets/DA/variables/USUBJID", "title": "Unique Subject Identifier", "type": "SDTM Dataset Variable"}}, "core": "Req", "description": "Unique subject identifier within the submission.", "label": "Unique Subject Identifier", "name": "USUBJID", "ordinal": "3", "role": "Identifier", "simpleDatatype": "Char"}, {"_links": {"modelClassVariable": {"href": "/mdr/sdtm/1-4/classes/GeneralObservations/variables/--SEQ", "title": "Sequence Number", "type": "Class Variable"}, "parentDataset": {"href": "/mdr/sdtmig/3-2/datasets/DA", "title": "Drug Accountability", "type": "SDTM Dataset"}, "parentProduct": {"href": "/mdr/sdtmig/3-2", "title": "Study Data Tabulation Model Implementation Guide: Human Clinical Trials Version 3.2 (Final)", "type": "Implementation Guide"}, "priorVersion": {"href": "/mdr/sdtmig/3-1-3/datasets/DA/variables/DASEQ", "title": "Sequence Number", "type": "SDTM Dataset Variable"}, "rootItem": {"href": "/mdr/root/sdtmig/datasets/DA/variables/DASEQ", "title": "Version-agnostic anchor resource for SDTMIG variable DA.DASEQ", "type": "Root Data Element"}, "self": {"href": "/mdr/sdtmig/3-2/datasets/DA/variables/DASEQ", "title": "Sequence Number", "type": "SDTM Dataset Variable"}}, "core": "Req", "description": "Sequence Number given to ensure uniqueness of subject records within a domain. May be any valid number.", "label": "Sequence Number", "name": "DASEQ", "ordinal": "4", "role": "Identifier", "simpleDatatype": "Num"}, {"_links": {"modelClassVariable": {"href": "/mdr/sdtm/1-4/classes/GeneralObservations/variables/--GRPID", "title": "Group ID", "type": "Class Variable"}, "parentDataset": {"href": "/mdr/sdtmig/3-2/datasets/DA", "title": "Drug Accountability", "type": "SDTM Dataset"}, "parentProduct": {"href": "/mdr/sdtmig/3-2", "title": "Study Data Tabulation Model Implementation Guide: Human Clinical Trials Version 3.2 (Final)", "type": "Implementation Guide"}, "priorVersion": {"href": "/mdr/sdtmig/3-1-3/datasets/DA/variables/DAGRPID", "title": "Group ID", "type": "SDTM Dataset Variable"}, "rootItem": {"href": "/mdr/root/sdtmig/datasets/DA/variables/DAGRPID", "title": "Version-agnostic anchor resource for SDTMIG variable DA.DAGRPID", "type": "Root Data Element"}, "self": {"href": "/mdr/sdtmig/3-2/datasets/DA/variables/DAGRPID", "title": "Group ID", "type": "SDTM Dataset Variable"}}, "core": "Perm", "description": "Used to tie together a block of related records in a single domain for a subject.", "label": "Group ID", "name": "DAGRPID", "ordinal": "5", "role": "Identifier", "simpleDatatype": "Char"}, {"_links": {"modelClassVariable": {"href": "/mdr/sdtm/1-4/classes/GeneralObservations/variables/--REFID", "title": "Reference ID", "type": "Class Variable"}, "parentDataset": {"href": "/mdr/sdtmig/3-2/datasets/DA", "title": "Drug Accountability", "type": "SDTM Dataset"}, "parentProduct": {"href": "/mdr/sdtmig/3-2", "title": "Study Data Tabulation Model Implementation Guide: Human Clinical Trials Version 3.2 (Final)", "type": "Implementation Guide"}, "priorVersion": {"href": "/mdr/sdtmig/3-1-3/datasets/DA/variables/DAREFID", "title": "Reference ID", "type": "SDTM Dataset Variable"}, "rootItem": {"href": "/mdr/root/sdtmig/datasets/DA/variables/DAREFID", "title": "Version-agnostic anchor resource for SDTMIG variable DA.DAREFID", "type": "Root Data Element"}, "self": {"href": "/mdr/sdtmig/3-2/datasets/DA/variables/DAREFID", "title": "Reference ID", "type": "SDTM Dataset Variable"}}, "core": "Perm", "description": "Internal or external identifier such as label number.", "label": "Reference ID", "name": "DAREFID", "ordinal": "6", "role": "Identifier", "simpleDatatype": "Char"}, {"_links": {"modelClassVariable": {"href": "/mdr/sdtm/1-4/classes/GeneralObservations/variables/--SPID", "title": "Sponsor-Defined Identifier", "type": "Class Variable"}, "parentDataset": {"href": "/mdr/sdtmig/3-2/datasets/DA", "title": "Drug Accountability", "type": "SDTM Dataset"}, "parentProduct": {"href": "/mdr/sdtmig/3-2", "title": "Study Data Tabulation Model Implementation Guide: Human Clinical Trials Version 3.2 (Final)", "type": "Implementation Guide"}, "priorVersion": {"href": "/mdr/sdtmig/3-1-3/datasets/DA/variables/DASPID", "title": "Sponsor-Defined Identifier", "type": "SDTM Dataset Variable"}, "rootItem": {"href": "/mdr/root/sdtmig/datasets/DA/variables/DASPID", "title": "Version-agnostic anchor resource for SDTMIG variable DA.DASPID", "type": "Root Data Element"}, "self": {"href": "/mdr/sdtmig/3-2/datasets/DA/variables/DASPID", "title": "Sponsor-Defined Identifier", "type": "SDTM Dataset Variable"}}, "core": "Perm", "description": "Sponsor-defined reference number. Perhaps pre-printed on the CRF as an explicit line identifier or defined in the sponsor's operational database. Examples: Line number on the Drug Accountability page, drug label code.", "label": "Sponsor-Defined Identifier", "name": "DASPID", "ordinal": "7", "role": "Identifier", "simpleDatatype": "Char"}, {"_links": {"modelClassVariable": {"href": "/mdr/sdtm/1-4/classes/Findings/variables/--TESTCD", "title": "Short Name of Measurement, Test or Examination", "type": "Class Variable"}, "parentDataset": {"href": "/mdr/sdtmig/3-2/datasets/DA", "title": "Drug Accountability", "type": "SDTM Dataset"}, "parentProduct": {"href": "/mdr/sdtmig/3-2", "title": "Study Data Tabulation Model Implementation Guide: Human Clinical Trials Version 3.2 (Final)", "type": "Implementation Guide"}, "priorVersion": {"href": "/mdr/sdtmig/3-1-3/datasets/DA/variables/DATESTCD", "title": "Short Name of Accountability Assessment", "type": "SDTM Dataset Variable"}, "rootItem": {"href": "/mdr/root/sdtmig/datasets/DA/variables/DATESTCD", "title": "Version-agnostic anchor resource for SDTMIG variable DA.DATESTCD", "type": "Root Data Element"}, "self": {"href": "/mdr/sdtmig/3-2/datasets/DA/variables/DATESTCD", "title": "Short Name of Accountability Assessment", "type": "SDTM Dataset Variable"}}, "core": "Req", "description": "Short character value for DATEST used as a column name when converting a dataset from a vertical format to a horizontal format. The short value can be up to 8 characters and cannot begin with a number or contain characters other than letters, numbers or underscores. Example: DISPAMT, RETAMT.", "label": "Short Name of Accountability Assessment", "name": "DATESTCD", "ordinal": "8", "role": "Topic", "simpleDatatype": "Char"}, {"_links": {"modelClassVariable": {"href": "/mdr/sdtm/1-4/classes/Findings/variables/--TEST", "title": "Name of Measurement, Test or Examination", "type": "Class Variable"}, "parentDataset": {"href": "/mdr/sdtmig/3-2/datasets/DA", "title": "Drug Accountability", "type": "SDTM Dataset"}, "parentProduct": {"href": "/mdr/sdtmig/3-2", "title": "Study Data Tabulation Model Implementation Guide: Human Clinical Trials Version 3.2 (Final)", "type": "Implementation Guide"}, "priorVersion": {"href": "/mdr/sdtmig/3-1-3/datasets/DA/variables/DATEST", "title": "Name of Accountability Assessment", "type": "SDTM Dataset Variable"}, "rootItem": {"href": "/mdr/root/sdtmig/datasets/DA/variables/DATEST", "title": "Version-agnostic anchor resource for SDTMIG variable DA.DATEST", "type": "Root Data Element"}, "self": {"href": "/mdr/sdtmig/3-2/datasets/DA/variables/DATEST", "title": "Name of Accountability Assessment", "type": "SDTM Dataset Variable"}}, "core": "Req", "description": "Verbatim name, corresponding to the topic variable, of the test or examination used to obtain the drug accountability assessment. The value in DATEST cannot be longer than 40 characters. Example: Dispensed Amount, Returned Amount.", "label": "Name of Accountability Assessment", "name": "DATEST", "ordinal": "9", "role": "Synonym Qualifier", "simpleDatatype": "Char"}, {"_links": {"modelClassVariable": {"href": "/mdr/sdtm/1-4/classes/Findings/variables/--CAT", "title": "Category", "type": "Class Variable"}, "parentDataset": {"href": "/mdr/sdtmig/3-2/datasets/DA", "title": "Drug Accountability", "type": "SDTM Dataset"}, "parentProduct": {"href": "/mdr/sdtmig/3-2", "title": "Study Data Tabulation Model Implementation Guide: Human Clinical Trials Version 3.2 (Final)", "type": "Implementation Guide"}, "priorVersion": {"href": "/mdr/sdtmig/3-1-3/datasets/DA/variables/DACAT", "title": "Category of Assessment", "type": "SDTM Dataset Variable"}, "rootItem": {"href": "/mdr/root/sdtmig/datasets/DA/variables/DACAT", "title": "Version-agnostic anchor resource for SDTMIG variable DA.DACAT", "type": "Root Data Element"}, "self": {"href": "/mdr/sdtmig/3-2/datasets/DA/variables/DACAT", "title": "Category of Assessment", "type": "SDTM Dataset Variable"}}, "core": "Perm", "description": "Used to define a category of related records. Examples: STUDY MEDICATION, RESCUE MEDICATION.", "label": "Category of Assessment", "name": "DACAT", "ordinal": "10", "role": "Grouping Qualifier", "simpleDatatype": "Char"}, {"_links": {"modelClassVariable": {"href": "/mdr/sdtm/1-4/classes/Findings/variables/--SCAT", "title": "Subcategory", "type": "Class Variable"}, "parentDataset": {"href": "/mdr/sdtmig/3-2/datasets/DA", "title": "Drug Accountability", "type": "SDTM Dataset"}, "parentProduct": {"href": "/mdr/sdtmig/3-2", "title": "Study Data Tabulation Model Implementation Guide: Human Clinical Trials Version 3.2 (Final)", "type": "Implementation Guide"}, "priorVersion": {"href": "/mdr/sdtmig/3-1-3/datasets/DA/variables/DASCAT", "title": "Subcategory of Assessment", "type": "SDTM Dataset Variable"}, "rootItem": {"href": "/mdr/root/sdtmig/datasets/DA/variables/DASCAT", "title": "Version-agnostic anchor resource for SDTMIG variable DA.DASCAT", "type": "Root Data Element"}, "self": {"href": "/mdr/sdtmig/3-2/datasets/DA/variables/DASCAT", "title": "Subcategory of Assessment", "type": "SDTM Dataset Variable"}}, "core": "Perm", "description": "Used to define a further categorization level for a group of related records.", "label": "Subcategory of Assessment", "name": "DASCAT", "ordinal": "11", "role": "Grouping Qualifier", "simpleDatatype": "Char"}, {"_links": {"modelClassVariable": {"href": "/mdr/sdtm/1-4/classes/Findings/variables/--ORRES", "title": "Result or Finding in Original Units", "type": "Class Variable"}, "parentDataset": {"href": "/mdr/sdtmig/3-2/datasets/DA", "title": "Drug Accountability", "type": "SDTM Dataset"}, "parentProduct": {"href": "/mdr/sdtmig/3-2", "title": "Study Data Tabulation Model Implementation Guide: Human Clinical Trials Version 3.2 (Final)", "type": "Implementation Guide"}, "priorVersion": {"href": "/mdr/sdtmig/3-1-3/datasets/DA/variables/DAORRES", "title": "Assessment Result in Original Units", "type": "SDTM Dataset Variable"}, "rootItem": {"href": "/mdr/root/sdtmig/datasets/DA/variables/DAORRES", "title": "Version-agnostic anchor resource for SDTMIG variable DA.DAORRES", "type": "Root Data Element"}, "self": {"href": "/mdr/sdtmig/3-2/datasets/DA/variables/DAORRES", "title": "Assessment Result in Original Units", "type": "SDTM Dataset Variable"}}, "core": "Exp", "description": "Result of the Drug Accountability assessment as originally received or collected.", "label": "Assessment Result in Original Units", "name": "DAORRES", "ordinal": "12", "role": "Result Qualifier", "simpleDatatype": "Char"}, {"_links": {"codelist": [{"href": "/mdr/root/ct/sdtmct/codelists/C71620", "title": "Version-agnostic anchor resource for codelist C71620", "type": "Root Value Domain"}], "modelClassVariable": {"href": "/mdr/sdtm/1-4/classes/Findings/variables/--ORRESU", "title": "Original Units", "type": "Class Variable"}, "parentDataset": {"href": "/mdr/sdtmig/3-2/datasets/DA", "title": "Drug Accountability", "type": "SDTM Dataset"}, "parentProduct": {"href": "/mdr/sdtmig/3-2", "title": "Study Data Tabulation Model Implementation Guide: Human Clinical Trials Version 3.2 (Final)", "type": "Implementation Guide"}, "priorVersion": {"href": "/mdr/sdtmig/3-1-3/datasets/DA/variables/DAORRESU", "title": "Original Units", "type": "SDTM Dataset Variable"}, "rootItem": {"href": "/mdr/root/sdtmig/datasets/DA/variables/DAORRESU", "title": "Version-agnostic anchor resource for SDTMIG variable DA.DAORRESU", "type": "Root Data Element"}, "self": {"href": "/mdr/sdtmig/3-2/datasets/DA/variables/DAORRESU", "title": "Original Units", "type": "SDTM Dataset Variable"}}, "core": "Perm", "description": "Unit for DAORRES.", "label": "Original Units", "name": "DAORRESU", "ordinal": "13", "role": "Variable Qualifier", "simpleDatatype": "Char"}, {"_links": {"modelClassVariable": {"href": "/mdr/sdtm/1-4/classes/Findings/variables/--STRESC", "title": "Result or Finding in Standard Format", "type": "Class Variable"}, "parentDataset": {"href": "/mdr/sdtmig/3-2/datasets/DA", "title": "Drug Accountability", "type": "SDTM Dataset"}, "parentProduct": {"href": "/mdr/sdtmig/3-2", "title": "Study Data Tabulation Model Implementation Guide: Human Clinical Trials Version 3.2 (Final)", "type": "Implementation Guide"}, "priorVersion": {"href": "/mdr/sdtmig/3-1-3/datasets/DA/variables/DASTRESC", "title": "Assessment Result in Std Format", "type": "SDTM Dataset Variable"}, "rootItem": {"href": "/mdr/root/sdtmig/datasets/DA/variables/DASTRESC", "title": "Version-agnostic anchor resource for SDTMIG variable DA.DASTRESC", "type": "Root Data Element"}, "self": {"href": "/mdr/sdtmig/3-2/datasets/DA/variables/DASTRESC", "title": "Assessment Result in Std Format", "type": "SDTM Dataset Variable"}}, "core": "Exp", "description": "Contains the result value for all Drug Accountability assessments, copied or derived from DAORRES in a standard format or in standard units. DASTRESC should store all results or findings in character format; if results are numeric, they should also be stored in numeric format in DASTRESN.", "label": "Assessment Result in Std Format", "name": "DASTRESC", "ordinal": "14", "role": "Result Qualifier", "simpleDatatype": "Char"}, {"_links": {"modelClassVariable": {"href": "/mdr/sdtm/1-4/classes/Findings/variables/--STRESN", "title": "Numeric Result/Finding in Standard Units", "type": "Class Variable"}, "parentDataset": {"href": "/mdr/sdtmig/3-2/datasets/DA", "title": "Drug Accountability", "type": "SDTM Dataset"}, "parentProduct": {"href": "/mdr/sdtmig/3-2", "title": "Study Data Tabulation Model Implementation Guide: Human Clinical Trials Version 3.2 (Final)", "type": "Implementation Guide"}, "priorVersion": {"href": "/mdr/sdtmig/3-1-3/datasets/DA/variables/DASTRESN", "title": "Numeric Result/Finding in Standard Units", "type": "SDTM Dataset Variable"}, "rootItem": {"href": "/mdr/root/sdtmig/datasets/DA/variables/DASTRESN", "title": "Version-agnostic anchor resource for SDTMIG variable DA.DASTRESN", "type": "Root Data Element"}, "self": {"href": "/mdr/sdtmig/3-2/datasets/DA/variables/DASTRESN", "title": "Numeric Result/Finding in Standard Units", "type": "SDTM Dataset Variable"}}, "core": "Perm", "description": "Used for continuous or numeric results or findings in standard format; copied in numeric format from DASTRESC. DASTRESN should store all numeric test results or findings.", "label": "Numeric Result/Finding in Standard Units", "name": "DASTRESN", "ordinal": "15", "role": "Result Qualifier", "simpleDatatype": "Num"}, {"_links": {"codelist": [{"href": "/mdr/root/ct/sdtmct/codelists/C71620", "title": "Version-agnostic anchor resource for codelist C71620", "type": "Root Value Domain"}], "modelClassVariable": {"href": "/mdr/sdtm/1-4/classes/Findings/variables/--STRESU", "title": "Standard Units", "type": "Class Variable"}, "parentDataset": {"href": "/mdr/sdtmig/3-2/datasets/DA", "title": "Drug Accountability", "type": "SDTM Dataset"}, "parentProduct": {"href": "/mdr/sdtmig/3-2", "title": "Study Data Tabulation Model Implementation Guide: Human Clinical Trials Version 3.2 (Final)", "type": "Implementation Guide"}, "priorVersion": {"href": "/mdr/sdtmig/3-1-3/datasets/DA/variables/DASTRESU", "title": "Assessment Standard Units", "type": "SDTM Dataset Variable"}, "rootItem": {"href": "/mdr/root/sdtmig/datasets/DA/variables/DASTRESU", "title": "Version-agnostic anchor resource for SDTMIG variable DA.DASTRESU", "type": "Root Data Element"}, "self": {"href": "/mdr/sdtmig/3-2/datasets/DA/variables/DASTRESU", "title": "Assessment Standard Units", "type": "SDTM Dataset Variable"}}, "core": "Perm", "description": "Standardized units used for DASTRESC and DASTRESN.", "label": "Assessment Standard Units", "name": "DASTRESU", "ordinal": "16", "role": "Variable Qualifier", "simpleDatatype": "Char"}, {"_links": {"codelist": [{"href": "/mdr/root/ct/sdtmct/codelists/C66789", "title": "Version-agnostic anchor resource for codelist C66789", "type": "Root Value Domain"}], "modelClassVariable": {"href": "/mdr/sdtm/1-4/classes/Findings/variables/--STAT", "title": "Completion Status", "type": "Class Variable"}, "parentDataset": {"href": "/mdr/sdtmig/3-2/datasets/DA", "title": "Drug Accountability", "type": "SDTM Dataset"}, "parentProduct": {"href": "/mdr/sdtmig/3-2", "title": "Study Data Tabulation Model Implementation Guide: Human Clinical Trials Version 3.2 (Final)", "type": "Implementation Guide"}, "priorVersion": {"href": "/mdr/sdtmig/3-1-3/datasets/DA/variables/DASTAT", "title": "Completion Status", "type": "SDTM Dataset Variable"}, "rootItem": {"href": "/mdr/root/sdtmig/datasets/DA/variables/DASTAT", "title": "Version-agnostic anchor resource for SDTMIG variable DA.DASTAT", "type": "Root Data Element"}, "self": {"href": "/mdr/sdtmig/3-2/datasets/DA/variables/DASTAT", "title": "Completion Status", "type": "SDTM Dataset Variable"}}, "core": "Perm", "description": "Used to indicate that a drug accountability assessment was not done. Should be null or have a value of NOT DONE.", "label": "Completion Status", "name": "DASTAT", "ordinal": "17", "role": "Record Qualifier", "simpleDatatype": "Char"}, {"_links": {"modelClassVariable": {"href": "/mdr/sdtm/1-4/classes/Findings/variables/--REASND", "title": "Reason Not Done", "type": "Class Variable"}, "parentDataset": {"href": "/mdr/sdtmig/3-2/datasets/DA", "title": "Drug Accountability", "type": "SDTM Dataset"}, "parentProduct": {"href": "/mdr/sdtmig/3-2", "title": "Study Data Tabulation Model Implementation Guide: Human Clinical Trials Version 3.2 (Final)", "type": "Implementation Guide"}, "priorVersion": {"href": "/mdr/sdtmig/3-1-3/datasets/DA/variables/DAREASND", "title": "Reason Not Performed", "type": "SDTM Dataset Variable"}, "rootItem": {"href": "/mdr/root/sdtmig/datasets/DA/variables/DAREASND", "title": "Version-agnostic anchor resource for SDTMIG variable DA.DAREASND", "type": "Root Data Element"}, "self": {"href": "/mdr/sdtmig/3-2/datasets/DA/variables/DAREASND", "title": "Reason Not Performed", "type": "SDTM Dataset Variable"}}, "core": "Perm", "description": "Reason not done. Used in conjunction with DASTAT when value is NOT DONE.", "label": "Reason Not Performed", "name": "DAREASND", "ordinal": "18", "role": "Record Qualifier", "simpleDatatype": "Char"}, {"_links": {"modelClassVariable": {"href": "/mdr/sdtm/1-4/classes/GeneralObservations/variables/VISITNUM", "title": "Visit Number", "type": "Class Variable"}, "parentDataset": {"href": "/mdr/sdtmig/3-2/datasets/DA", "title": "Drug Accountability", "type": "SDTM Dataset"}, "parentProduct": {"href": "/mdr/sdtmig/3-2", "title": "Study Data Tabulation Model Implementation Guide: Human Clinical Trials Version 3.2 (Final)", "type": "Implementation Guide"}, "priorVersion": {"href": "/mdr/sdtmig/3-1-3/datasets/DA/variables/VISITNUM", "title": "Visit Number", "type": "SDTM Dataset Variable"}, "rootItem": {"href": "/mdr/root/sdtmig/datasets/DA/variables/VISITNUM", "title": "Version-agnostic anchor resource for SDTMIG variable DA.VISITNUM", "type": "Root Data Element"}, "self": {"href": "/mdr/sdtmig/3-2/datasets/DA/variables/VISITNUM", "title": "Visit Number", "type": "SDTM Dataset Variable"}}, "core": "Exp", "description": "1. Clinical encounter number. 2. Numeric version of VISIT, used for sorting.", "label": "Visit Number", "name": "VISITNUM", "ordinal": "19", "role": "Timing", "simpleDatatype": "Num"}, {"_links": {"modelClassVariable": {"href": "/mdr/sdtm/1-4/classes/GeneralObservations/variables/VISIT", "title": "Visit Name", "type": "Class Variable"}, "parentDataset": {"href": "/mdr/sdtmig/3-2/datasets/DA", "title": "Drug Accountability", "type": "SDTM Dataset"}, "parentProduct": {"href": "/mdr/sdtmig/3-2", "title": "Study Data Tabulation Model Implementation Guide: Human Clinical Trials Version 3.2 (Final)", "type": "Implementation Guide"}, "priorVersion": {"href": "/mdr/sdtmig/3-1-3/datasets/DA/variables/VISIT", "title": "Visit Name", "type": "SDTM Dataset Variable"}, "rootItem": {"href": "/mdr/root/sdtmig/datasets/DA/variables/VISIT", "title": "Version-agnostic anchor resource for SDTMIG variable DA.VISIT", "type": "Root Data Element"}, "self": {"href": "/mdr/sdtmig/3-2/datasets/DA/variables/VISIT", "title": "Visit Name", "type": "SDTM Dataset Variable"}}, "core": "Perm", "description": "1. Protocol-defined description of clinical encounter 2. May be used in addition to VISITNUM and/or VISITDY", "label": "Visit Name", "name": "VISIT", "ordinal": "20", "role": "Timing", "simpleDatatype": "Char"}, {"_links": {"modelClassVariable": {"href": "/mdr/sdtm/1-4/classes/GeneralObservations/variables/VISITDY", "title": "Planned Study Day of Visit", "type": "Class Variable"}, "parentDataset": {"href": "/mdr/sdtmig/3-2/datasets/DA", "title": "Drug Accountability", "type": "SDTM Dataset"}, "parentProduct": {"href": "/mdr/sdtmig/3-2", "title": "Study Data Tabulation Model Implementation Guide: Human Clinical Trials Version 3.2 (Final)", "type": "Implementation Guide"}, "priorVersion": {"href": "/mdr/sdtmig/3-1-3/datasets/DA/variables/VISITDY", "title": "Planned Study Day of Visit", "type": "SDTM Dataset Variable"}, "rootItem": {"href": "/mdr/root/sdtmig/datasets/DA/variables/VISITDY", "title": "Version-agnostic anchor resource for SDTMIG variable DA.VISITDY", "type": "Root Data Element"}, "self": {"href": "/mdr/sdtmig/3-2/datasets/DA/variables/VISITDY", "title": "Planned Study Day of Visit", "type": "SDTM Dataset Variable"}}, "core": "Perm", "description": "Planned study day of the visit based upon RFSTDTC in Demographics.", "label": "Planned Study Day of Visit", "name": "VISITDY", "ordinal": "21", "role": "Timing", "simpleDatatype": "Num"}, {"_links": {"modelClassVariable": {"href": "/mdr/sdtm/1-4/classes/GeneralObservations/variables/--DTC", "title": "Date/Time of Collection", "type": "Class Variable"}, "parentDataset": {"href": "/mdr/sdtmig/3-2/datasets/DA", "title": "Drug Accountability", "type": "SDTM Dataset"}, "parentProduct": {"href": "/mdr/sdtmig/3-2", "title": "Study Data Tabulation Model Implementation Guide: Human Clinical Trials Version 3.2 (Final)", "type": "Implementation Guide"}, "priorVersion": {"href": "/mdr/sdtmig/3-1-3/datasets/DA/variables/DADTC", "title": "Date/Time of Accountability Assessment", "type": "SDTM Dataset Variable"}, "rootItem": {"href": "/mdr/root/sdtmig/datasets/DA/variables/DADTC", "title": "Version-agnostic anchor resource for SDTMIG variable DA.DADTC", "type": "Root Data Element"}, "self": {"href": "/mdr/sdtmig/3-2/datasets/DA/variables/DADTC", "title": "Date/Time of Accountability Assessment", "type": "SDTM Dataset Variable"}}, "core": "Exp", "describedValueDomain": "ISO 8601", "label": "Date/Time of Accountability Assessment", "name": "DADTC", "ordinal": "22", "role": "Timing", "simpleDatatype": "Char"}, {"_links": {"modelClassVariable": {"href": "/mdr/sdtm/1-4/classes/GeneralObservations/variables/--DY", "title": "Study Day of Visit/Collection/Exam", "type": "Class Variable"}, "parentDataset": {"href": "/mdr/sdtmig/3-2/datasets/DA", "title": "Drug Accountability", "type": "SDTM Dataset"}, "parentProduct": {"href": "/mdr/sdtmig/3-2", "title": "Study Data Tabulation Model Implementation Guide: Human Clinical Trials Version 3.2 (Final)", "type": "Implementation Guide"}, "priorVersion": {"href": "/mdr/sdtmig/3-1-3/datasets/DA/variables/DADY", "title": "Study Day of Accountability Assessment", "type": "SDTM Dataset Variable"}, "rootItem": {"href": "/mdr/root/sdtmig/datasets/DA/variables/DADY", "title": "Version-agnostic anchor resource for SDTMIG variable DA.DADY", "type": "Root Data Element"}, "self": {"href": "/mdr/sdtmig/3-2/datasets/DA/variables/DADY", "title": "Study Day of Accountability Assessment", "type": "SDTM Dataset Variable"}}, "core": "Perm", "description": "1. Study day of drug accountability assessment, measured as integer days. 2. Algorithm for calculations must be relative to the sponsor-defined RFSTDTC variable in Demographics.", "label": "Study Day of Accountability Assessment", "name": "DADY", "ordinal": "23", "role": "Timing", "simpleDatatype": "Num"}], "description": "An events domain that contains the accountability of study drug, such as information on the receipt, dispensing, return, and packaging. (Source: CDISC Controlled Terminology, DOMAIN, C49578, 2018-06-29)", "label": "Drug Accountability", "name": "DA", "ordinal": "16"}
