{"_links": {"parentClass": {"href": "/mdr/sdtmig/3-2/classes/Findings", "title": "Findings Observation Class", "type": "Class"}, "parentProduct": {"href": "/mdr/sdtmig/3-2", "title": "Study Data Tabulation Model Implementation Guide: Human Clinical Trials Version 3.2 (Final)", "type": "Implementation Guide"}, "self": {"href": "/mdr/sdtmig/3-2/datasets/DD", "title": "Death Details", "type": "SDTM Dataset"}}, "datasetStructure": "One record per finding per subject", "datasetVariables": [{"_links": {"modelClassVariable": {"href": "/mdr/sdtm/1-4/classes/GeneralObservations/variables/STUDYID", "title": "Study Identifier", "type": "Class Variable"}, "parentDataset": {"href": "/mdr/sdtmig/3-2/datasets/DD", "title": "Death Details", "type": "SDTM Dataset"}, "parentProduct": {"href": "/mdr/sdtmig/3-2", "title": "Study Data Tabulation Model Implementation Guide: Human Clinical Trials Version 3.2 (Final)", "type": "Implementation Guide"}, "rootItem": {"href": "/mdr/root/sdtmig/datasets/DD/variables/STUDYID", "title": "Version-agnostic anchor resource for SDTMIG variable DD.STUDYID", "type": "Root Data Element"}, "self": {"href": "/mdr/sdtmig/3-2/datasets/DD/variables/STUDYID", "title": "Study Identifier", "type": "SDTM Dataset Variable"}}, "core": "Req", "description": "Unique identifier for a study.", "label": "Study Identifier", "name": "STUDYID", "ordinal": "1", "role": "Identifier", "simpleDatatype": "Char"}, {"_links": {"modelClassVariable": {"href": "/mdr/sdtm/1-4/classes/GeneralObservations/variables/DOMAIN", "title": "Domain Abbreviation", "type": "Class Variable"}, "parentDataset": {"href": "/mdr/sdtmig/3-2/datasets/DD", "title": "Death Details", "type": "SDTM Dataset"}, "parentProduct": {"href": "/mdr/sdtmig/3-2", "title": "Study Data Tabulation Model Implementation Guide: Human Clinical Trials Version 3.2 (Final)", "type": "Implementation Guide"}, "rootItem": {"href": "/mdr/root/sdtmig/datasets/DD/variables/DOMAIN", "title": "Version-agnostic anchor resource for SDTMIG variable DD.DOMAIN", "type": "Root Data Element"}, "self": {"href": "/mdr/sdtmig/3-2/datasets/DD/variables/DOMAIN", "title": "Domain Abbreviation", "type": "SDTM Dataset Variable"}}, "core": "Req", "description": "Two-character abbreviation for the domain.", "label": "Domain Abbreviation", "name": "DOMAIN", "ordinal": "2", "role": "Identifier", "simpleDatatype": "Char", "valueList": ["DD"]}, {"_links": {"modelClassVariable": {"href": "/mdr/sdtm/1-4/classes/GeneralObservations/variables/USUBJID", "title": "Unique Subject Identifier", "type": "Class Variable"}, "parentDataset": {"href": "/mdr/sdtmig/3-2/datasets/DD", "title": "Death Details", "type": "SDTM Dataset"}, "parentProduct": {"href": "/mdr/sdtmig/3-2", "title": "Study Data Tabulation Model Implementation Guide: Human Clinical Trials Version 3.2 (Final)", "type": "Implementation Guide"}, "rootItem": {"href": "/mdr/root/sdtmig/datasets/DD/variables/USUBJID", "title": "Version-agnostic anchor resource for SDTMIG variable DD.USUBJID", "type": "Root Data Element"}, "self": {"href": "/mdr/sdtmig/3-2/datasets/DD/variables/USUBJID", "title": "Unique Subject Identifier", "type": "SDTM Dataset Variable"}}, "core": "Req", "description": "Identifier used to uniquely identify a subject across all studies for all applications or submissions involving the product.", "label": "Unique Subject Identifier", "name": "USUBJID", "ordinal": "3", "role": "Identifier", "simpleDatatype": "Char"}, {"_links": {"modelClassVariable": {"href": "/mdr/sdtm/1-4/classes/GeneralObservations/variables/--SEQ", "title": "Sequence Number", "type": "Class Variable"}, "parentDataset": {"href": "/mdr/sdtmig/3-2/datasets/DD", "title": "Death Details", "type": "SDTM Dataset"}, "parentProduct": {"href": "/mdr/sdtmig/3-2", "title": "Study Data Tabulation Model Implementation Guide: Human Clinical Trials Version 3.2 (Final)", "type": "Implementation Guide"}, "rootItem": {"href": "/mdr/root/sdtmig/datasets/DD/variables/DDSEQ", "title": "Version-agnostic anchor resource for SDTMIG variable DD.DDSEQ", "type": "Root Data Element"}, "self": {"href": "/mdr/sdtmig/3-2/datasets/DD/variables/DDSEQ", "title": "Sequence Number", "type": "SDTM Dataset Variable"}}, "core": "Req", "description": "Sequence number given to ensure uniqueness of subject records within a domain. May be any valid number.", "label": "Sequence Number", "name": "DDSEQ", "ordinal": "4", "role": "Identifier", "simpleDatatype": "Num"}, {"_links": {"modelClassVariable": {"href": "/mdr/sdtm/1-4/classes/Findings/variables/--TESTCD", "title": "Short Name of Measurement, Test or Examination", "type": "Class Variable"}, "parentDataset": {"href": "/mdr/sdtmig/3-2/datasets/DD", "title": "Death Details", "type": "SDTM Dataset"}, "parentProduct": {"href": "/mdr/sdtmig/3-2", "title": "Study Data Tabulation Model Implementation Guide: Human Clinical Trials Version 3.2 (Final)", "type": "Implementation Guide"}, "rootItem": {"href": "/mdr/root/sdtmig/datasets/DD/variables/DDTESTCD", "title": "Version-agnostic anchor resource for SDTMIG variable DD.DDTESTCD", "type": "Root Data Element"}, "self": {"href": "/mdr/sdtmig/3-2/datasets/DD/variables/DDTESTCD", "title": "Death Detail Assessment Short Name", "type": "SDTM Dataset Variable"}}, "core": "Req", "description": "Short name of the measurement, test, or examination described in DDTEST. It can be used as a column name when converting a dataset from a vertical to a horizontal format. The value in DDTESTCD cannot be longer than 8 characters, nor can it start with a number (e.g., \"1TEST\" is not valid). DDTESTCD cannot contain characters other than letters, numbers, or underscores. Examples: DIAGPRIM, DIAGSEC, DTHWIT", "label": "Death Detail Assessment Short Name", "name": "DDTESTCD", "ordinal": "5", "role": "Topic", "simpleDatatype": "Char"}, {"_links": {"modelClassVariable": {"href": "/mdr/sdtm/1-4/classes/Findings/variables/--TEST", "title": "Name of Measurement, Test or Examination", "type": "Class Variable"}, "parentDataset": {"href": "/mdr/sdtmig/3-2/datasets/DD", "title": "Death Details", "type": "SDTM Dataset"}, "parentProduct": {"href": "/mdr/sdtmig/3-2", "title": "Study Data Tabulation Model Implementation Guide: Human Clinical Trials Version 3.2 (Final)", "type": "Implementation Guide"}, "rootItem": {"href": "/mdr/root/sdtmig/datasets/DD/variables/DDTEST", "title": "Version-agnostic anchor resource for SDTMIG variable DD.DDTEST", "type": "Root Data Element"}, "self": {"href": "/mdr/sdtmig/3-2/datasets/DD/variables/DDTEST", "title": "Death Detail Assessment Name", "type": "SDTM Dataset Variable"}}, "core": "Req", "description": "Long name for DDTESTCD. The value in DDTEST cannot be longer than 40 characters. Examples: Primary Diagnosis, Secondary Diagnosis, Was Death Witnessed?", "label": "Death Detail Assessment Name", "name": "DDTEST", "ordinal": "6", "role": "Synonym Qualifier", "simpleDatatype": "Char"}, {"_links": {"modelClassVariable": {"href": "/mdr/sdtm/1-4/classes/Findings/variables/--ORRES", "title": "Result or Finding in Original Units", "type": "Class Variable"}, "parentDataset": {"href": "/mdr/sdtmig/3-2/datasets/DD", "title": "Death Details", "type": "SDTM Dataset"}, "parentProduct": {"href": "/mdr/sdtmig/3-2", "title": "Study Data Tabulation Model Implementation Guide: Human Clinical Trials Version 3.2 (Final)", "type": "Implementation Guide"}, "rootItem": {"href": "/mdr/root/sdtmig/datasets/DD/variables/DDORRES", "title": "Version-agnostic anchor resource for SDTMIG variable DD.DDORRES", "type": "Root Data Element"}, "self": {"href": "/mdr/sdtmig/3-2/datasets/DD/variables/DDORRES", "title": "Result or Finding as Collected", "type": "SDTM Dataset Variable"}}, "core": "Exp", "description": "Result of the test defined in DDTEST, as originally received or collected.", "label": "Result or Finding as Collected", "name": "DDORRES", "ordinal": "7", "role": "Result Qualifier", "simpleDatatype": "Char"}, {"_links": {"modelClassVariable": {"href": "/mdr/sdtm/1-4/classes/Findings/variables/--STRESC", "title": "Result or Finding in Standard Format", "type": "Class Variable"}, "parentDataset": {"href": "/mdr/sdtmig/3-2/datasets/DD", "title": "Death Details", "type": "SDTM Dataset"}, "parentProduct": {"href": "/mdr/sdtmig/3-2", "title": "Study Data Tabulation Model Implementation Guide: Human Clinical Trials Version 3.2 (Final)", "type": "Implementation Guide"}, "rootItem": {"href": "/mdr/root/sdtmig/datasets/DD/variables/DDSTRESC", "title": "Version-agnostic anchor resource for SDTMIG variable DD.DDSTRESC", "type": "Root Data Element"}, "self": {"href": "/mdr/sdtmig/3-2/datasets/DD/variables/DDSTRESC", "title": "Character Result/Finding in Std Format", "type": "SDTM Dataset Variable"}}, "core": "Exp", "description": "Contains the result or finding copied or derived from DDORRES in a standard format.", "label": "Character Result/Finding in Std Format", "name": "DDSTRESC", "ordinal": "8", "role": "Result Qualifier", "simpleDatatype": "Char"}, {"_links": {"modelClassVariable": {"href": "/mdr/sdtm/1-4/classes/Findings/variables/--RESCAT", "title": "Result Category", "type": "Class Variable"}, "parentDataset": {"href": "/mdr/sdtmig/3-2/datasets/DD", "title": "Death Details", "type": "SDTM Dataset"}, "parentProduct": {"href": "/mdr/sdtmig/3-2", "title": "Study Data Tabulation Model Implementation Guide: Human Clinical Trials Version 3.2 (Final)", "type": "Implementation Guide"}, "rootItem": {"href": "/mdr/root/sdtmig/datasets/DD/variables/DDRESCAT", "title": "Version-agnostic anchor resource for SDTMIG variable DD.DDRESCAT", "type": "Root Data Element"}, "self": {"href": "/mdr/sdtmig/3-2/datasets/DD/variables/DDRESCAT", "title": "Result Category", "type": "SDTM Dataset Variable"}}, "core": "Perm", "description": "Used to categorize the result of a finding. Examples: TREATMENT RELATED, NONTREATMENT RELATED, UNDETERMINED, ACCIDENTAL", "label": "Result Category", "name": "DDRESCAT", "ordinal": "9", "role": "Variable Qualifier", "simpleDatatype": "Char"}, {"_links": {"codelist": [{"href": "/mdr/root/ct/sdtmct/codelists/C78735", "title": "Version-agnostic anchor resource for codelist C78735", "type": "Root Value Domain"}], "modelClassVariable": {"href": "/mdr/sdtm/1-4/classes/Findings/variables/--EVAL", "title": "Evaluator", "type": "Class Variable"}, "parentDataset": {"href": "/mdr/sdtmig/3-2/datasets/DD", "title": "Death Details", "type": "SDTM Dataset"}, "parentProduct": {"href": "/mdr/sdtmig/3-2", "title": "Study Data Tabulation Model Implementation Guide: Human Clinical Trials Version 3.2 (Final)", "type": "Implementation Guide"}, "rootItem": {"href": "/mdr/root/sdtmig/datasets/DD/variables/DDEVAL", "title": "Version-agnostic anchor resource for SDTMIG variable DD.DDEVAL", "type": "Root Data Element"}, "self": {"href": "/mdr/sdtmig/3-2/datasets/DD/variables/DDEVAL", "title": "Evaluator", "type": "SDTM Dataset Variable"}}, "core": "Perm", "description": "Role of the person who provided the evaluation.", "label": "Evaluator", "name": "DDEVAL", "ordinal": "10", "role": "Record Qualifier", "simpleDatatype": "Char"}, {"_links": {"modelClassVariable": {"href": "/mdr/sdtm/1-4/classes/GeneralObservations/variables/--DTC", "title": "Date/Time of Collection", "type": "Class Variable"}, "parentDataset": {"href": "/mdr/sdtmig/3-2/datasets/DD", "title": "Death Details", "type": "SDTM Dataset"}, "parentProduct": {"href": "/mdr/sdtmig/3-2", "title": "Study Data Tabulation Model Implementation Guide: Human Clinical Trials Version 3.2 (Final)", "type": "Implementation Guide"}, "rootItem": {"href": "/mdr/root/sdtmig/datasets/DD/variables/DDDTC", "title": "Version-agnostic anchor resource for SDTMIG variable DD.DDDTC", "type": "Root Data Element"}, "self": {"href": "/mdr/sdtmig/3-2/datasets/DD/variables/DDDTC", "title": "Date/Time of Collection", "type": "SDTM Dataset Variable"}}, "core": "Exp", "describedValueDomain": "ISO 8601", "description": "Date/time of collection of the diagnosis or other death assessment data in ISO 8601 format. This is not necessarily the date of death.", "label": "Date/Time of Collection", "name": "DDDTC", "ordinal": "11", "role": "Timing", "simpleDatatype": "Char"}, {"_links": {"modelClassVariable": {"href": "/mdr/sdtm/1-4/classes/GeneralObservations/variables/--DY", "title": "Study Day of Visit/Collection/Exam", "type": "Class Variable"}, "parentDataset": {"href": "/mdr/sdtmig/3-2/datasets/DD", "title": "Death Details", "type": "SDTM Dataset"}, "parentProduct": {"href": "/mdr/sdtmig/3-2", "title": "Study Data Tabulation Model Implementation Guide: Human Clinical Trials Version 3.2 (Final)", "type": "Implementation Guide"}, "rootItem": {"href": "/mdr/root/sdtmig/datasets/DD/variables/DDDY", "title": "Version-agnostic anchor resource for SDTMIG variable DD.DDDY", "type": "Root Data Element"}, "self": {"href": "/mdr/sdtmig/3-2/datasets/DD/variables/DDDY", "title": "Study Day of Collection", "type": "SDTM Dataset Variable"}}, "core": "Perm", "description": "Study day of the collection, in integer days.  The algorithm for calculations must be relative to the sponsor-defined RFSTDTC variable in the Demographics (DM) domain.", "label": "Study Day of Collection", "name": "DDDY", "ordinal": "12", "role": "Timing", "simpleDatatype": "Num"}], "description": "An events domain that contains the diagnosis of the cause of death for a subject. (Source: CDISC Controlled Terminology, DOMAIN, C95087, 2018-06-29)", "label": "Death Details", "name": "DD", "ordinal": "17"}
