{"_links": {"parentClass": {"href": "/mdr/sdtmig/3-4/classes/Findings", "title": "Findings", "type": "Class"}, "parentProduct": {"href": "/mdr/sdtmig/3-4", "title": "Study Data Tabulation Model Implementation Guide: Human Clinical Trials", "type": "Implementation Guide"}, "self": {"href": "/mdr/sdtmig/3-4/datasets/GF", "title": "Genomics Findings", "type": "SDTM Dataset"}}, "datasetStructure": "One record per finding per observation per biospecimen per subject", "datasetVariables": [{"_links": {"modelClassVariable": {"href": "/mdr/sdtm/2-0/classes/GeneralObservations/variables/STUDYID", "title": "Study Identifier", "type": "SDTM Class Variable"}, "parentDataset": {"href": "/mdr/sdtmig/3-4/datasets/GF", "title": "Genomics Findings", "type": "SDTM Dataset"}, "parentProduct": {"href": "/mdr/sdtmig/3-4", "title": "Study Data Tabulation Model Implementation Guide: Human Clinical Trials", "type": "Implementation Guide"}, "rootItem": {"href": "/mdr/root/sdtmig/datasets/GF/variables/STUDYID", "title": "Version-agnostic anchor resource for SDTMIG variable GF.STUDYID", "type": "Root Data Element"}, "self": {"href": "/mdr/sdtmig/3-4/datasets/GF/variables/STUDYID", "title": "Study Identifier", "type": "SDTM Dataset Variable"}}, "core": "Req", "description": "Unique identifier for a study.", "label": "Study Identifier", "name": "STUDYID", "ordinal": "1", "role": "Identifier", "simpleDatatype": "Char"}, {"_links": {"modelClassVariable": {"href": "/mdr/sdtm/2-0/classes/GeneralObservations/variables/DOMAIN", "title": "Domain Abbreviation", "type": "SDTM Class Variable"}, "parentDataset": {"href": "/mdr/sdtmig/3-4/datasets/GF", "title": "Genomics Findings", "type": "SDTM Dataset"}, "parentProduct": {"href": "/mdr/sdtmig/3-4", "title": "Study Data Tabulation Model Implementation Guide: Human Clinical Trials", "type": "Implementation Guide"}, "rootItem": {"href": "/mdr/root/sdtmig/datasets/GF/variables/DOMAIN", "title": "Version-agnostic anchor resource for SDTMIG variable GF.DOMAIN", "type": "Root Data Element"}, "self": {"href": "/mdr/sdtmig/3-4/datasets/GF/variables/DOMAIN", "title": "Domain Abbreviation", "type": "SDTM Dataset Variable"}}, "core": "Req", "description": "Two-character abbreviation for the domain.", "label": "Domain Abbreviation", "name": "DOMAIN", "ordinal": "2", "role": "Identifier", "simpleDatatype": "Char", "valueList": ["GF"]}, {"_links": {"modelClassVariable": {"href": "/mdr/sdtm/2-0/classes/GeneralObservations/variables/USUBJID", "title": "Unique Subject Identifier", "type": "SDTM Class Variable"}, "parentDataset": {"href": "/mdr/sdtmig/3-4/datasets/GF", "title": "Genomics Findings", "type": "SDTM Dataset"}, "parentProduct": {"href": "/mdr/sdtmig/3-4", "title": "Study Data Tabulation Model Implementation Guide: Human Clinical Trials", "type": "Implementation Guide"}, "rootItem": {"href": "/mdr/root/sdtmig/datasets/GF/variables/USUBJID", "title": "Version-agnostic anchor resource for SDTMIG variable GF.USUBJID", "type": "Root Data Element"}, "self": {"href": "/mdr/sdtmig/3-4/datasets/GF/variables/USUBJID", "title": "Unique Subject Identifier", "type": "SDTM Dataset Variable"}}, "core": "Req", "description": "Identifier used to uniquely identify a subject across all studies for all applications or submissions involving the product.", "label": "Unique Subject Identifier", "name": "USUBJID", "ordinal": "3", "role": "Identifier", "simpleDatatype": "Char"}, {"_links": {"modelClassVariable": {"href": "/mdr/sdtm/2-0/classes/GeneralObservations/variables/SPDEVID", "title": "Sponsor Device Identifier", "type": "SDTM Class Variable"}, "parentDataset": {"href": "/mdr/sdtmig/3-4/datasets/GF", "title": "Genomics Findings", "type": "SDTM Dataset"}, "parentProduct": {"href": "/mdr/sdtmig/3-4", "title": "Study Data Tabulation Model Implementation Guide: Human Clinical Trials", "type": "Implementation Guide"}, "rootItem": {"href": "/mdr/root/sdtmig/datasets/GF/variables/SPDEVID", "title": "Version-agnostic anchor resource for SDTMIG variable GF.SPDEVID", "type": "Root Data Element"}, "self": {"href": "/mdr/sdtmig/3-4/datasets/GF/variables/SPDEVID", "title": "Sponsor Device Identifier", "type": "SDTM Dataset Variable"}}, "core": "Perm", "description": "Sponsor-defined identifier for a device.", "label": "Sponsor Device Identifier", "name": "SPDEVID", "ordinal": "4", "role": "Identifier", "simpleDatatype": "Char"}, {"_links": {"modelClassVariable": {"href": "/mdr/sdtm/2-0/classes/GeneralObservations/variables/NHOID", "title": "Non-Host Organism Identifier", "type": "SDTM Class Variable"}, "parentDataset": {"href": "/mdr/sdtmig/3-4/datasets/GF", "title": "Genomics Findings", "type": "SDTM Dataset"}, "parentProduct": {"href": "/mdr/sdtmig/3-4", "title": "Study Data Tabulation Model Implementation Guide: Human Clinical Trials", "type": "Implementation Guide"}, "rootItem": {"href": "/mdr/root/sdtmig/datasets/GF/variables/NHOID", "title": "Version-agnostic anchor resource for SDTMIG variable GF.NHOID", "type": "Root Data Element"}, "self": {"href": "/mdr/sdtmig/3-4/datasets/GF/variables/NHOID", "title": "Non-Host Organism Identifier", "type": "SDTM Dataset Variable"}}, "core": "Perm", "description": "Sponsor-defined identifier for a non-host organism which should only be used when the organism is the subject of the TEST. This variable should be populated with an intuitive name based on the identity of the non-host organism as reported by a lab (e.g., \"A/California/7/2009 (H1N1)\"). It is not to be used as a qualifier of the result in the record on which it appears.", "label": "Non-Host Organism Identifier", "name": "NHOID", "ordinal": "5", "role": "Identifier", "simpleDatatype": "Char"}, {"_links": {"modelClassVariable": {"href": "/mdr/sdtm/2-0/classes/GeneralObservations/variables/--SEQ", "title": "Sequence Number", "type": "SDTM Class Variable"}, "parentDataset": {"href": "/mdr/sdtmig/3-4/datasets/GF", "title": "Genomics Findings", "type": "SDTM Dataset"}, "parentProduct": {"href": "/mdr/sdtmig/3-4", "title": "Study Data Tabulation Model Implementation Guide: Human Clinical Trials", "type": "Implementation Guide"}, "rootItem": {"href": "/mdr/root/sdtmig/datasets/GF/variables/GFSEQ", "title": "Version-agnostic anchor resource for SDTMIG variable GF.GFSEQ", "type": "Root Data Element"}, "self": {"href": "/mdr/sdtmig/3-4/datasets/GF/variables/GFSEQ", "title": "Sequence Number", "type": "SDTM Dataset Variable"}}, "core": "Req", "description": "Sequence number to ensure uniqueness of records within a dataset for a subject. May be any valid number (including decimals) and does not have to start at 1.", "label": "Sequence Number", "name": "GFSEQ", "ordinal": "6", "role": "Identifier", "simpleDatatype": "Num"}, {"_links": {"modelClassVariable": {"href": "/mdr/sdtm/2-0/classes/GeneralObservations/variables/--GRPID", "title": "Group ID", "type": "SDTM Class Variable"}, "parentDataset": {"href": "/mdr/sdtmig/3-4/datasets/GF", "title": "Genomics Findings", "type": "SDTM Dataset"}, "parentProduct": {"href": "/mdr/sdtmig/3-4", "title": "Study Data Tabulation Model Implementation Guide: Human Clinical Trials", "type": "Implementation Guide"}, "rootItem": {"href": "/mdr/root/sdtmig/datasets/GF/variables/GFGRPID", "title": "Version-agnostic anchor resource for SDTMIG variable GF.GFGRPID", "type": "Root Data Element"}, "self": {"href": "/mdr/sdtmig/3-4/datasets/GF/variables/GFGRPID", "title": "Group ID", "type": "SDTM Dataset Variable"}}, "core": "Perm", "description": "Used to link together a block of related records within a subject in a domain.", "label": "Group ID", "name": "GFGRPID", "ordinal": "7", "role": "Identifier", "simpleDatatype": "Char"}, {"_links": {"modelClassVariable": {"href": "/mdr/sdtm/2-0/classes/GeneralObservations/variables/--REFID", "title": "Reference ID", "type": "SDTM Class Variable"}, "parentDataset": {"href": "/mdr/sdtmig/3-4/datasets/GF", "title": "Genomics Findings", "type": "SDTM Dataset"}, "parentProduct": {"href": "/mdr/sdtmig/3-4", "title": "Study Data Tabulation Model Implementation Guide: Human Clinical Trials", "type": "Implementation Guide"}, "rootItem": {"href": "/mdr/root/sdtmig/datasets/GF/variables/GFREFID", "title": "Version-agnostic anchor resource for SDTMIG variable GF.GFREFID", "type": "Root Data Element"}, "self": {"href": "/mdr/sdtmig/3-4/datasets/GF/variables/GFREFID", "title": "Reference ID", "type": "SDTM Dataset Variable"}}, "core": "Exp", "description": "A unique identifier for the assayed genetic specimen.", "label": "Reference ID", "name": "GFREFID", "ordinal": "8", "role": "Identifier", "simpleDatatype": "Char"}, {"_links": {"modelClassVariable": {"href": "/mdr/sdtm/2-0/classes/GeneralObservations/variables/--SPID", "title": "Sponsor-Defined Identifier", "type": "SDTM Class Variable"}, "parentDataset": {"href": "/mdr/sdtmig/3-4/datasets/GF", "title": "Genomics Findings", "type": "SDTM Dataset"}, "parentProduct": {"href": "/mdr/sdtmig/3-4", "title": "Study Data Tabulation Model Implementation Guide: Human Clinical Trials", "type": "Implementation Guide"}, "rootItem": {"href": "/mdr/root/sdtmig/datasets/GF/variables/GFSPID", "title": "Version-agnostic anchor resource for SDTMIG variable GF.GFSPID", "type": "Root Data Element"}, "self": {"href": "/mdr/sdtmig/3-4/datasets/GF/variables/GFSPID", "title": "Sponsor-Defined Identifier", "type": "SDTM Dataset Variable"}}, "core": "Perm", "description": "Sponsor-defined identifier.", "label": "Sponsor-Defined Identifier", "name": "GFSPID", "ordinal": "9", "role": "Identifier", "simpleDatatype": "Char"}, {"_links": {"modelClassVariable": {"href": "/mdr/sdtm/2-0/classes/GeneralObservations/variables/--LNKID", "title": "Link ID", "type": "SDTM Class Variable"}, "parentDataset": {"href": "/mdr/sdtmig/3-4/datasets/GF", "title": "Genomics Findings", "type": "SDTM Dataset"}, "parentProduct": {"href": "/mdr/sdtmig/3-4", "title": "Study Data Tabulation Model Implementation Guide: Human Clinical Trials", "type": "Implementation Guide"}, "rootItem": {"href": "/mdr/root/sdtmig/datasets/GF/variables/GFLNKID", "title": "Version-agnostic anchor resource for SDTMIG variable GF.GFLNKID", "type": "Root Data Element"}, "self": {"href": "/mdr/sdtmig/3-4/datasets/GF/variables/GFLNKID", "title": "Link ID", "type": "SDTM Dataset Variable"}}, "core": "Perm", "description": "Identifier used to link related records across domains. This may be a one-to-one or a one-to-many relationship.", "label": "Link ID", "name": "GFLNKID", "ordinal": "10", "role": "Identifier", "simpleDatatype": "Char"}, {"_links": {"modelClassVariable": {"href": "/mdr/sdtm/2-0/classes/GeneralObservations/variables/--LNKGRP", "title": "Link Group ID", "type": "SDTM Class Variable"}, "parentDataset": {"href": "/mdr/sdtmig/3-4/datasets/GF", "title": "Genomics Findings", "type": "SDTM Dataset"}, "parentProduct": {"href": "/mdr/sdtmig/3-4", "title": "Study Data Tabulation Model Implementation Guide: Human Clinical Trials", "type": "Implementation Guide"}, "rootItem": {"href": "/mdr/root/sdtmig/datasets/GF/variables/GFLNKGRP", "title": "Version-agnostic anchor resource for SDTMIG variable GF.GFLNKGRP", "type": "Root Data Element"}, "self": {"href": "/mdr/sdtmig/3-4/datasets/GF/variables/GFLNKGRP", "title": "Link Group ID", "type": "SDTM Dataset Variable"}}, "core": "Perm", "description": "Identifier used to link related records across domains. This will usually be a many-to-one relationship.", "label": "Link Group ID", "name": "GFLNKGRP", "ordinal": "11", "role": "Identifier", "simpleDatatype": "Char"}, {"_links": {"codelist": [{"href": "/mdr/root/ct/sdtmct/codelists/C181178", "title": "Version-agnostic anchor resource for codelist C181178", "type": "Root Value Domain"}], "modelClassVariable": {"href": "/mdr/sdtm/2-0/classes/Findings/variables/--TESTCD", "title": "Short Name of Measurement, Test, or Exam", "type": "SDTM Class Variable"}, "parentDataset": {"href": "/mdr/sdtmig/3-4/datasets/GF", "title": "Genomics Findings", "type": "SDTM Dataset"}, "parentProduct": {"href": "/mdr/sdtmig/3-4", "title": "Study Data Tabulation Model Implementation Guide: Human Clinical Trials", "type": "Implementation Guide"}, "rootItem": {"href": "/mdr/root/sdtmig/datasets/GF/variables/GFTESTCD", "title": "Version-agnostic anchor resource for SDTMIG variable GF.GFTESTCD", "type": "Root Data Element"}, "self": {"href": "/mdr/sdtmig/3-4/datasets/GF/variables/GFTESTCD", "title": "Short Name of Genomic Measurement", "type": "SDTM Dataset Variable"}}, "core": "Req", "description": "Short name of the measurement, test, or examination described in GFTEST. It can be used as a column name when converting a dataset from a vertical to a horizontal format. The value in GFTESTCD cannot be longer than 8 characters, nor can it start with a number (e.g., \"1TEST\" is not valid). GFTESTCD cannot contain characters other than letters, numbers, or underscores.", "label": "Short Name of Genomic Measurement", "name": "GFTESTCD", "ordinal": "12", "role": "Topic", "simpleDatatype": "Char"}, {"_links": {"codelist": [{"href": "/mdr/root/ct/sdtmct/codelists/C181179", "title": "Version-agnostic anchor resource for codelist C181179", "type": "Root Value Domain"}], "modelClassVariable": {"href": "/mdr/sdtm/2-0/classes/Findings/variables/--TEST", "title": "Name of Measurement, Test, or Exam", "type": "SDTM Class Variable"}, "parentDataset": {"href": "/mdr/sdtmig/3-4/datasets/GF", "title": "Genomics Findings", "type": "SDTM Dataset"}, "parentProduct": {"href": "/mdr/sdtmig/3-4", "title": "Study Data Tabulation Model Implementation Guide: Human Clinical Trials", "type": "Implementation Guide"}, "rootItem": {"href": "/mdr/root/sdtmig/datasets/GF/variables/GFTEST", "title": "Version-agnostic anchor resource for SDTMIG variable GF.GFTEST", "type": "Root Data Element"}, "self": {"href": "/mdr/sdtmig/3-4/datasets/GF/variables/GFTEST", "title": "Name of Genomic Measurement", "type": "SDTM Dataset Variable"}}, "core": "Req", "description": "Long name for GFTESTCD. The value in GFTEST cannot be longer than 40 characters.", "label": "Name of Genomic Measurement", "name": "GFTEST", "ordinal": "13", "role": "Synonym Qualifier", "simpleDatatype": "Char"}, {"_links": {"codelist": [{"href": "/mdr/root/ct/sdtmct/codelists/C181180", "title": "Version-agnostic anchor resource for codelist C181180", "type": "Root Value Domain"}], "modelClassVariable": {"href": "/mdr/sdtm/2-0/classes/Findings/variables/--TSTDTL", "title": "Measurement, Test, or Examination Detail", "type": "SDTM Class Variable"}, "parentDataset": {"href": "/mdr/sdtmig/3-4/datasets/GF", "title": "Genomics Findings", "type": "SDTM Dataset"}, "parentProduct": {"href": "/mdr/sdtmig/3-4", "title": "Study Data Tabulation Model Implementation Guide: Human Clinical Trials", "type": "Implementation Guide"}, "rootItem": {"href": "/mdr/root/sdtmig/datasets/GF/variables/GFTSTDTL", "title": "Version-agnostic anchor resource for SDTMIG variable GF.GFTSTDTL", "type": "Root Data Element"}, "self": {"href": "/mdr/sdtmig/3-4/datasets/GF/variables/GFTSTDTL", "title": "Measurement, Test, or Examination Detail", "type": "SDTM Dataset Variable"}}, "core": "Perm", "description": "Description of a reportable qualifying the assessment in GFTESTCD and GFTEST.", "label": "Measurement, Test, or Examination Detail", "name": "GFTSTDTL", "ordinal": "14", "role": "Variable Qualifier", "simpleDatatype": "Char"}, {"_links": {"modelClassVariable": {"href": "/mdr/sdtm/2-0/classes/Findings/variables/--CAT", "title": "Category", "type": "SDTM Class Variable"}, "parentDataset": {"href": "/mdr/sdtmig/3-4/datasets/GF", "title": "Genomics Findings", "type": "SDTM Dataset"}, "parentProduct": {"href": "/mdr/sdtmig/3-4", "title": "Study Data Tabulation Model Implementation Guide: Human Clinical Trials", "type": "Implementation Guide"}, "rootItem": {"href": "/mdr/root/sdtmig/datasets/GF/variables/GFCAT", "title": "Version-agnostic anchor resource for SDTMIG variable GF.GFCAT", "type": "Root Data Element"}, "self": {"href": "/mdr/sdtmig/3-4/datasets/GF/variables/GFCAT", "title": "Category for Genomic Finding", "type": "SDTM Dataset Variable"}}, "core": "Perm", "description": "Used to define a category of topic-variable values.", "label": "Category for Genomic Finding", "name": "GFCAT", "ordinal": "15", "role": "Grouping Qualifier", "simpleDatatype": "Char"}, {"_links": {"modelClassVariable": {"href": "/mdr/sdtm/2-0/classes/Findings/variables/--SCAT", "title": "Subcategory", "type": "SDTM Class Variable"}, "parentDataset": {"href": "/mdr/sdtmig/3-4/datasets/GF", "title": "Genomics Findings", "type": "SDTM Dataset"}, "parentProduct": {"href": "/mdr/sdtmig/3-4", "title": "Study Data Tabulation Model Implementation Guide: Human Clinical Trials", "type": "Implementation Guide"}, "rootItem": {"href": "/mdr/root/sdtmig/datasets/GF/variables/GFSCAT", "title": "Version-agnostic anchor resource for SDTMIG variable GF.GFSCAT", "type": "Root Data Element"}, "self": {"href": "/mdr/sdtmig/3-4/datasets/GF/variables/GFSCAT", "title": "Subcategory for Genomic Finding", "type": "SDTM Dataset Variable"}}, "core": "Perm", "description": "Used to define a further categorization of GFCAT values.", "label": "Subcategory for Genomic Finding", "name": "GFSCAT", "ordinal": "16", "role": "Grouping Qualifier", "simpleDatatype": "Char"}, {"_links": {"modelClassVariable": {"href": "/mdr/sdtm/2-0/classes/Findings/variables/--ORRES", "title": "Result or Finding in Original Units", "type": "SDTM Class Variable"}, "parentDataset": {"href": "/mdr/sdtmig/3-4/datasets/GF", "title": "Genomics Findings", "type": "SDTM Dataset"}, "parentProduct": {"href": "/mdr/sdtmig/3-4", "title": "Study Data Tabulation Model Implementation Guide: Human Clinical Trials", "type": "Implementation Guide"}, "rootItem": {"href": "/mdr/root/sdtmig/datasets/GF/variables/GFORRES", "title": "Version-agnostic anchor resource for SDTMIG variable GF.GFORRES", "type": "Root Data Element"}, "self": {"href": "/mdr/sdtmig/3-4/datasets/GF/variables/GFORRES", "title": "Result or Finding in Original Units", "type": "SDTM Dataset Variable"}}, "core": "Exp", "description": "Result of the measurement or finding as originally received or collected.", "label": "Result or Finding in Original Units", "name": "GFORRES", "ordinal": "17", "role": "Result Qualifier", "simpleDatatype": "Char"}, {"_links": {"codelist": [{"href": "/mdr/root/ct/sdtmct/codelists/C71620", "title": "Version-agnostic anchor resource for codelist C71620", "type": "Root Value Domain"}], "modelClassVariable": {"href": "/mdr/sdtm/2-0/classes/Findings/variables/--ORRESU", "title": "Original Units", "type": "SDTM Class Variable"}, "parentDataset": {"href": "/mdr/sdtmig/3-4/datasets/GF", "title": "Genomics Findings", "type": "SDTM Dataset"}, "parentProduct": {"href": "/mdr/sdtmig/3-4", "title": "Study Data Tabulation Model Implementation Guide: Human Clinical Trials", "type": "Implementation Guide"}, "rootItem": {"href": "/mdr/root/sdtmig/datasets/GF/variables/GFORRESU", "title": "Version-agnostic anchor resource for SDTMIG variable GF.GFORRESU", "type": "Root Data Element"}, "self": {"href": "/mdr/sdtmig/3-4/datasets/GF/variables/GFORRESU", "title": "Original Units", "type": "SDTM Dataset Variable"}}, "core": "Perm", "description": "Unit for GFORRES.", "label": "Original Units", "name": "GFORRESU", "ordinal": "18", "role": "Variable Qualifier", "simpleDatatype": "Char"}, {"_links": {"modelClassVariable": {"href": "/mdr/sdtm/2-0/classes/Findings/variables/--ORREF", "title": "Reference Result in Original Units", "type": "SDTM Class Variable"}, "parentDataset": {"href": "/mdr/sdtmig/3-4/datasets/GF", "title": "Genomics Findings", "type": "SDTM Dataset"}, "parentProduct": {"href": "/mdr/sdtmig/3-4", "title": "Study Data Tabulation Model Implementation Guide: Human Clinical Trials", "type": "Implementation Guide"}, "rootItem": {"href": "/mdr/root/sdtmig/datasets/GF/variables/GFORREF", "title": "Version-agnostic anchor resource for SDTMIG variable GF.GFORREF", "type": "Root Data Element"}, "self": {"href": "/mdr/sdtmig/3-4/datasets/GF/variables/GFORREF", "title": "Reference Result in Original Units", "type": "SDTM Dataset Variable"}}, "core": "Perm", "description": "Reference value for the result or finding as originally received or collected. GFORREF uses the same units as GFORRES, if applicable.", "label": "Reference Result in Original Units", "name": "GFORREF", "ordinal": "19", "role": "Variable Qualifier", "simpleDatatype": "Char"}, {"_links": {"modelClassVariable": {"href": "/mdr/sdtm/2-0/classes/Findings/variables/--STRESC", "title": "Result or Finding in Standard Format", "type": "SDTM Class Variable"}, "parentDataset": {"href": "/mdr/sdtmig/3-4/datasets/GF", "title": "Genomics Findings", "type": "SDTM Dataset"}, "parentProduct": {"href": "/mdr/sdtmig/3-4", "title": "Study Data Tabulation Model Implementation Guide: Human Clinical Trials", "type": "Implementation Guide"}, "rootItem": {"href": "/mdr/root/sdtmig/datasets/GF/variables/GFSTRESC", "title": "Version-agnostic anchor resource for SDTMIG variable GF.GFSTRESC", "type": "Root Data Element"}, "self": {"href": "/mdr/sdtmig/3-4/datasets/GF/variables/GFSTRESC", "title": "Result or Finding in Standard Format", "type": "SDTM Dataset Variable"}}, "core": "Exp", "description": "Contains the result value for all findings, copied or derived from GFORRES, in a standard format or in standard units. GFSTRESC should store all results or findings in character format; if results are numeric, they should also be stored in numeric format in GFSTRESN.", "label": "Result or Finding in Standard Format", "name": "GFSTRESC", "ordinal": "20", "role": "Result Qualifier", "simpleDatatype": "Char"}, {"_links": {"modelClassVariable": {"href": "/mdr/sdtm/2-0/classes/Findings/variables/--STRESN", "title": "Numeric Result/Finding in Standard Units", "type": "SDTM Class Variable"}, "parentDataset": {"href": "/mdr/sdtmig/3-4/datasets/GF", "title": "Genomics Findings", "type": "SDTM Dataset"}, "parentProduct": {"href": "/mdr/sdtmig/3-4", "title": "Study Data Tabulation Model Implementation Guide: Human Clinical Trials", "type": "Implementation Guide"}, "rootItem": {"href": "/mdr/root/sdtmig/datasets/GF/variables/GFSTRESN", "title": "Version-agnostic anchor resource for SDTMIG variable GF.GFSTRESN", "type": "Root Data Element"}, "self": {"href": "/mdr/sdtmig/3-4/datasets/GF/variables/GFSTRESN", "title": "Numeric Result/Finding in Standard Units", "type": "SDTM Dataset Variable"}}, "core": "Perm", "description": "Used for continuous or numeric results or findings in standard format; copied in numeric format from GFSTRESC. GFSTRESN should store all numeric test results or findings.", "label": "Numeric Result/Finding in Standard Units", "name": "GFSTRESN", "ordinal": "21", "role": "Result Qualifier", "simpleDatatype": "Num"}, {"_links": {"codelist": [{"href": "/mdr/root/ct/sdtmct/codelists/C71620", "title": "Version-agnostic anchor resource for codelist C71620", "type": "Root Value Domain"}], "modelClassVariable": {"href": "/mdr/sdtm/2-0/classes/Findings/variables/--STRESU", "title": "Standard Units", "type": "SDTM Class Variable"}, "parentDataset": {"href": "/mdr/sdtmig/3-4/datasets/GF", "title": "Genomics Findings", "type": "SDTM Dataset"}, "parentProduct": {"href": "/mdr/sdtmig/3-4", "title": "Study Data Tabulation Model Implementation Guide: Human Clinical Trials", "type": "Implementation Guide"}, "rootItem": {"href": "/mdr/root/sdtmig/datasets/GF/variables/GFSTRESU", "title": "Version-agnostic anchor resource for SDTMIG variable GF.GFSTRESU", "type": "Root Data Element"}, "self": {"href": "/mdr/sdtmig/3-4/datasets/GF/variables/GFSTRESU", "title": "Standard Units", "type": "SDTM Dataset Variable"}}, "core": "Perm", "description": "Standardized units used for GFSTRESC, GFSTRESN, GFSTREFC, and GFSTREFN.", "label": "Standard Units", "name": "GFSTRESU", "ordinal": "22", "role": "Variable Qualifier", "simpleDatatype": "Char"}, {"_links": {"modelClassVariable": {"href": "/mdr/sdtm/2-0/classes/Findings/variables/--STREFC", "title": "Reference Result in Standard Format", "type": "SDTM Class Variable"}, "parentDataset": {"href": "/mdr/sdtmig/3-4/datasets/GF", "title": "Genomics Findings", "type": "SDTM Dataset"}, "parentProduct": {"href": "/mdr/sdtmig/3-4", "title": "Study Data Tabulation Model Implementation Guide: Human Clinical Trials", "type": "Implementation Guide"}, "rootItem": {"href": "/mdr/root/sdtmig/datasets/GF/variables/GFSTREFC", "title": "Version-agnostic anchor resource for SDTMIG variable GF.GFSTREFC", "type": "Root Data Element"}, "self": {"href": "/mdr/sdtmig/3-4/datasets/GF/variables/GFSTREFC", "title": "Reference Result in Standard Format", "type": "SDTM Dataset Variable"}}, "core": "Perm", "description": "Reference value for the result or finding copied or derived from GFORREF in a standard format.", "label": "Reference Result in Standard Format", "name": "GFSTREFC", "ordinal": "23", "role": "Variable Qualifier", "simpleDatatype": "Char"}, {"_links": {"modelClassVariable": {"href": "/mdr/sdtm/2-0/classes/Findings/variables/--STREFN", "title": "Numeric Reference Result in Std Units", "type": "SDTM Class Variable"}, "parentDataset": {"href": "/mdr/sdtmig/3-4/datasets/GF", "title": "Genomics Findings", "type": "SDTM Dataset"}, "parentProduct": {"href": "/mdr/sdtmig/3-4", "title": "Study Data Tabulation Model Implementation Guide: Human Clinical Trials", "type": "Implementation Guide"}, "rootItem": {"href": "/mdr/root/sdtmig/datasets/GF/variables/GFSTREFN", "title": "Version-agnostic anchor resource for SDTMIG variable GF.GFSTREFN", "type": "Root Data Element"}, "self": {"href": "/mdr/sdtmig/3-4/datasets/GF/variables/GFSTREFN", "title": "Numeric Reference Result in Std Units", "type": "SDTM Dataset Variable"}}, "core": "Perm", "description": "Reference value for continuous or numeric results or findings in standard format or in standard units. GFSTREFN uses the same units as GFSTRESN, if applicable.", "label": "Numeric Reference Result in Std Units", "name": "GFSTREFN", "ordinal": "24", "role": "Variable Qualifier", "simpleDatatype": "Num"}, {"_links": {"modelClassVariable": {"href": "/mdr/sdtm/2-0/classes/Findings/variables/--RESCAT", "title": "Result Category", "type": "SDTM Class Variable"}, "parentDataset": {"href": "/mdr/sdtmig/3-4/datasets/GF", "title": "Genomics Findings", "type": "SDTM Dataset"}, "parentProduct": {"href": "/mdr/sdtmig/3-4", "title": "Study Data Tabulation Model Implementation Guide: Human Clinical Trials", "type": "Implementation Guide"}, "rootItem": {"href": "/mdr/root/sdtmig/datasets/GF/variables/GFRESCAT", "title": "Version-agnostic anchor resource for SDTMIG variable GF.GFRESCAT", "type": "Root Data Element"}, "self": {"href": "/mdr/sdtmig/3-4/datasets/GF/variables/GFRESCAT", "title": "Result Category", "type": "SDTM Dataset Variable"}}, "core": "Perm", "description": "Used to categorize the result of a finding.", "label": "Result Category", "name": "GFRESCAT", "ordinal": "25", "role": "Variable Qualifier", "simpleDatatype": "Char"}, {"_links": {"codelist": [{"href": "/mdr/root/ct/sdtmct/codelists/C181177", "title": "Version-agnostic anchor resource for codelist C181177", "type": "Root Value Domain"}], "modelClassVariable": {"href": "/mdr/sdtm/2-0/classes/Findings/variables/--INHERT", "title": "Inheritability", "type": "SDTM Class Variable"}, "parentDataset": {"href": "/mdr/sdtmig/3-4/datasets/GF", "title": "Genomics Findings", "type": "SDTM Dataset"}, "parentProduct": {"href": "/mdr/sdtmig/3-4", "title": "Study Data Tabulation Model Implementation Guide: Human Clinical Trials", "type": "Implementation Guide"}, "rootItem": {"href": "/mdr/root/sdtmig/datasets/GF/variables/GFINHERT", "title": "Version-agnostic anchor resource for SDTMIG variable GF.GFINHERT", "type": "Root Data Element"}, "self": {"href": "/mdr/sdtmig/3-4/datasets/GF/variables/GFINHERT", "title": "Inheritability", "type": "SDTM Dataset Variable"}}, "core": "Perm", "description": "Identifies whether the variation can be passed to the next generation.", "label": "Inheritability", "name": "GFINHERT", "ordinal": "26", "role": "Variable Qualifier", "simpleDatatype": "Char"}, {"_links": {"modelClassVariable": {"href": "/mdr/sdtm/2-0/classes/Findings/variables/--GENREF", "title": "Genome Reference", "type": "SDTM Class Variable"}, "parentDataset": {"href": "/mdr/sdtmig/3-4/datasets/GF", "title": "Genomics Findings", "type": "SDTM Dataset"}, "parentProduct": {"href": "/mdr/sdtmig/3-4", "title": "Study Data Tabulation Model Implementation Guide: Human Clinical Trials", "type": "Implementation Guide"}, "rootItem": {"href": "/mdr/root/sdtmig/datasets/GF/variables/GFGENREF", "title": "Version-agnostic anchor resource for SDTMIG variable GF.GFGENREF", "type": "Root Data Element"}, "self": {"href": "/mdr/sdtmig/3-4/datasets/GF/variables/GFGENREF", "title": "Genome Reference", "type": "SDTM Dataset Variable"}}, "core": "Perm", "description": "An identifier for the genome reference used to generate the reported result. For example, Genome Reference Consortium Human Build 38 patch release 13 may be represented as \"GRCh38.p13\".", "label": "Genome Reference", "name": "GFGENREF", "ordinal": "27", "role": "Variable Qualifier", "simpleDatatype": "Char"}, {"_links": {"modelClassVariable": {"href": "/mdr/sdtm/2-0/classes/Findings/variables/--CHROM", "title": "Chromosome Identifier", "type": "SDTM Class Variable"}, "parentDataset": {"href": "/mdr/sdtmig/3-4/datasets/GF", "title": "Genomics Findings", "type": "SDTM Dataset"}, "parentProduct": {"href": "/mdr/sdtmig/3-4", "title": "Study Data Tabulation Model Implementation Guide: Human Clinical Trials", "type": "Implementation Guide"}, "rootItem": {"href": "/mdr/root/sdtmig/datasets/GF/variables/GFCHROM", "title": "Version-agnostic anchor resource for SDTMIG variable GF.GFCHROM", "type": "Root Data Element"}, "self": {"href": "/mdr/sdtmig/3-4/datasets/GF/variables/GFCHROM", "title": "Chromosome Identifier", "type": "SDTM Dataset Variable"}}, "core": "Perm", "description": "The designation (name or number) of the chromosome or contig on which the variant or other feature appears (e.g., \"17\"; \"X\").", "label": "Chromosome Identifier", "name": "GFCHROM", "ordinal": "28", "role": "Variable Qualifier", "simpleDatatype": "Char"}, {"_links": {"modelClassVariable": {"href": "/mdr/sdtm/2-0/classes/Findings/variables/--SYM", "title": "Genomic Symbol", "type": "SDTM Class Variable"}, "parentDataset": {"href": "/mdr/sdtmig/3-4/datasets/GF", "title": "Genomics Findings", "type": "SDTM Dataset"}, "parentProduct": {"href": "/mdr/sdtmig/3-4", "title": "Study Data Tabulation Model Implementation Guide: Human Clinical Trials", "type": "Implementation Guide"}, "rootItem": {"href": "/mdr/root/sdtmig/datasets/GF/variables/GFSYM", "title": "Version-agnostic anchor resource for SDTMIG variable GF.GFSYM", "type": "Root Data Element"}, "self": {"href": "/mdr/sdtmig/3-4/datasets/GF/variables/GFSYM", "title": "Genomic Symbol", "type": "SDTM Dataset Variable"}}, "core": "Perm", "description": "A published symbol for the portion of the genome serving as a locus for the experiment/test.", "label": "Genomic Symbol", "name": "GFSYM", "ordinal": "29", "role": "Variable Qualifier", "simpleDatatype": "Char"}, {"_links": {"codelist": [{"href": "/mdr/root/ct/sdtmct/codelists/C181176", "title": "Version-agnostic anchor resource for codelist C181176", "type": "Root Value Domain"}], "modelClassVariable": {"href": "/mdr/sdtm/2-0/classes/Findings/variables/--SYMTYP", "title": "Genomic Symbol Type", "type": "SDTM Class Variable"}, "parentDataset": {"href": "/mdr/sdtmig/3-4/datasets/GF", "title": "Genomics Findings", "type": "SDTM Dataset"}, "parentProduct": {"href": "/mdr/sdtmig/3-4", "title": "Study Data Tabulation Model Implementation Guide: Human Clinical Trials", "type": "Implementation Guide"}, "rootItem": {"href": "/mdr/root/sdtmig/datasets/GF/variables/GFSYMTYP", "title": "Version-agnostic anchor resource for SDTMIG variable GF.GFSYMTYP", "type": "Root Data Element"}, "self": {"href": "/mdr/sdtmig/3-4/datasets/GF/variables/GFSYMTYP", "title": "Genomic Symbol Type", "type": "SDTM Dataset Variable"}}, "core": "Perm", "description": "A description of the type of genomic entity that is represented by the published symbol in GFSYM.", "label": "Genomic Symbol Type", "name": "GFSYMTYP", "ordinal": "30", "role": "Variable Qualifier", "simpleDatatype": "Char"}, {"_links": {"modelClassVariable": {"href": "/mdr/sdtm/2-0/classes/Findings/variables/--GENLOC", "title": "Genetic Location", "type": "SDTM Class Variable"}, "parentDataset": {"href": "/mdr/sdtmig/3-4/datasets/GF", "title": "Genomics Findings", "type": "SDTM Dataset"}, "parentProduct": {"href": "/mdr/sdtmig/3-4", "title": "Study Data Tabulation Model Implementation Guide: Human Clinical Trials", "type": "Implementation Guide"}, "rootItem": {"href": "/mdr/root/sdtmig/datasets/GF/variables/GFGENLOC", "title": "Version-agnostic anchor resource for SDTMIG variable GF.GFGENLOC", "type": "Root Data Element"}, "self": {"href": "/mdr/sdtmig/3-4/datasets/GF/variables/GFGENLOC", "title": "Genetic Location", "type": "SDTM Dataset Variable"}}, "core": "Perm", "description": "Specifies the location within a sequence for the observed value in GFORRES.", "label": "Genetic Location", "name": "GFGENLOC", "ordinal": "31", "role": "Variable Qualifier", "simpleDatatype": "Char"}, {"_links": {"modelClassVariable": {"href": "/mdr/sdtm/2-0/classes/Findings/variables/--GENSR", "title": "Genetic Sub-Region", "type": "SDTM Class Variable"}, "parentDataset": {"href": "/mdr/sdtmig/3-4/datasets/GF", "title": "Genomics Findings", "type": "SDTM Dataset"}, "parentProduct": {"href": "/mdr/sdtmig/3-4", "title": "Study Data Tabulation Model Implementation Guide: Human Clinical Trials", "type": "Implementation Guide"}, "rootItem": {"href": "/mdr/root/sdtmig/datasets/GF/variables/GFGENSR", "title": "Version-agnostic anchor resource for SDTMIG variable GF.GFGENSR", "type": "Root Data Element"}, "self": {"href": "/mdr/sdtmig/3-4/datasets/GF/variables/GFGENSR", "title": "Genetic Sub-Region", "type": "SDTM Dataset Variable"}}, "core": "Perm", "description": "The portion of the locus in which the variation was found. Examples: \"Exon 15\", \"Kinase domain\".", "label": "Genetic Sub-Region", "name": "GFGENSR", "ordinal": "32", "role": "Variable Qualifier", "simpleDatatype": "Char"}, {"_links": {"modelClassVariable": {"href": "/mdr/sdtm/2-0/classes/Findings/variables/--SEQID", "title": "Sequence Identifier", "type": "SDTM Class Variable"}, "parentDataset": {"href": "/mdr/sdtmig/3-4/datasets/GF", "title": "Genomics Findings", "type": "SDTM Dataset"}, "parentProduct": {"href": "/mdr/sdtmig/3-4", "title": "Study Data Tabulation Model Implementation Guide: Human Clinical Trials", "type": "Implementation Guide"}, "rootItem": {"href": "/mdr/root/sdtmig/datasets/GF/variables/GFSEQID", "title": "Version-agnostic anchor resource for SDTMIG variable GF.GFSEQID", "type": "Root Data Element"}, "self": {"href": "/mdr/sdtmig/3-4/datasets/GF/variables/GFSEQID", "title": "Sequence Identifier \\n", "type": "SDTM Dataset Variable"}}, "core": "Perm", "description": "A unique identifier for the sequence used as the reference to identify the genetic variation in the result. Examples: \"NM_001234\", \"ENSG00000182533\", \"ENST00000343849.2\".", "label": "Sequence Identifier \\n", "name": "GFSEQID", "ordinal": "33", "role": "Variable Qualifier", "simpleDatatype": "Char"}, {"_links": {"modelClassVariable": {"href": "/mdr/sdtm/2-0/classes/Findings/variables/--PVRID", "title": "Published Variant Identifier", "type": "SDTM Class Variable"}, "parentDataset": {"href": "/mdr/sdtmig/3-4/datasets/GF", "title": "Genomics Findings", "type": "SDTM Dataset"}, "parentProduct": {"href": "/mdr/sdtmig/3-4", "title": "Study Data Tabulation Model Implementation Guide: Human Clinical Trials", "type": "Implementation Guide"}, "rootItem": {"href": "/mdr/root/sdtmig/datasets/GF/variables/GFPVRID", "title": "Version-agnostic anchor resource for SDTMIG variable GF.GFPVRID", "type": "Root Data Element"}, "self": {"href": "/mdr/sdtmig/3-4/datasets/GF/variables/GFPVRID", "title": "Published Variant Identifier", "type": "SDTM Dataset Variable"}}, "core": "Perm", "description": "A unique identifier for the variation that has been publicly characterized in an external database. Examples: \"rs2231142\", \"COSM41596\".", "label": "Published Variant Identifier", "name": "GFPVRID", "ordinal": "34", "role": "Variable Qualifier", "simpleDatatype": "Char"}, {"_links": {"modelClassVariable": {"href": "/mdr/sdtm/2-0/classes/Findings/variables/--COPYID", "title": "Copy Identifier", "type": "SDTM Class Variable"}, "parentDataset": {"href": "/mdr/sdtmig/3-4/datasets/GF", "title": "Genomics Findings", "type": "SDTM Dataset"}, "parentProduct": {"href": "/mdr/sdtmig/3-4", "title": "Study Data Tabulation Model Implementation Guide: Human Clinical Trials", "type": "Implementation Guide"}, "rootItem": {"href": "/mdr/root/sdtmig/datasets/GF/variables/GFCOPYID", "title": "Version-agnostic anchor resource for SDTMIG variable GF.GFCOPYID", "type": "Root Data Element"}, "self": {"href": "/mdr/sdtmig/3-4/datasets/GF/variables/GFCOPYID", "title": "Copy Identifier", "type": "SDTM Dataset Variable"}}, "core": "Perm", "description": "An arbitrary identifier used to differentiate between copies of a genetic target of interest present on homologous chromosomes.", "label": "Copy Identifier", "name": "GFCOPYID", "ordinal": "35", "role": "Variable Qualifier", "simpleDatatype": "Char"}, {"_links": {"codelist": [{"href": "/mdr/root/ct/sdtmct/codelists/C66789", "title": "Version-agnostic anchor resource for codelist C66789", "type": "Root Value Domain"}], "modelClassVariable": {"href": "/mdr/sdtm/2-0/classes/Findings/variables/--STAT", "title": "Completion Status", "type": "SDTM Class Variable"}, "parentDataset": {"href": "/mdr/sdtmig/3-4/datasets/GF", "title": "Genomics Findings", "type": "SDTM Dataset"}, "parentProduct": {"href": "/mdr/sdtmig/3-4", "title": "Study Data Tabulation Model Implementation Guide: Human Clinical Trials", "type": "Implementation Guide"}, "rootItem": {"href": "/mdr/root/sdtmig/datasets/GF/variables/GFSTAT", "title": "Version-agnostic anchor resource for SDTMIG variable GF.GFSTAT", "type": "Root Data Element"}, "self": {"href": "/mdr/sdtmig/3-4/datasets/GF/variables/GFSTAT", "title": "Completion Status", "type": "SDTM Dataset Variable"}}, "core": "Perm", "description": "Used to indicate that a question was not asked or a test was not done, or a test was attempted but did not generate a result. Should be null or have a value of \"NOT DONE\".", "label": "Completion Status", "name": "GFSTAT", "ordinal": "36", "role": "Record Qualifier", "simpleDatatype": "Char"}, {"_links": {"modelClassVariable": {"href": "/mdr/sdtm/2-0/classes/Findings/variables/--REASND", "title": "Reason Not Done", "type": "SDTM Class Variable"}, "parentDataset": {"href": "/mdr/sdtmig/3-4/datasets/GF", "title": "Genomics Findings", "type": "SDTM Dataset"}, "parentProduct": {"href": "/mdr/sdtmig/3-4", "title": "Study Data Tabulation Model Implementation Guide: Human Clinical Trials", "type": "Implementation Guide"}, "rootItem": {"href": "/mdr/root/sdtmig/datasets/GF/variables/GFREASND", "title": "Version-agnostic anchor resource for SDTMIG variable GF.GFREASND", "type": "Root Data Element"}, "self": {"href": "/mdr/sdtmig/3-4/datasets/GF/variables/GFREASND", "title": "Reason Test Not Done", "type": "SDTM Dataset Variable"}}, "core": "Perm", "description": "Reason not done. Used in conjunction with GFSTAT when value is \"NOT DONE\".", "label": "Reason Test Not Done", "name": "GFREASND", "ordinal": "37", "role": "Record Qualifier", "simpleDatatype": "Char"}, {"_links": {"modelClassVariable": {"href": "/mdr/sdtm/2-0/classes/Findings/variables/--XFN", "title": "External File Path", "type": "SDTM Class Variable"}, "parentDataset": {"href": "/mdr/sdtmig/3-4/datasets/GF", "title": "Genomics Findings", "type": "SDTM Dataset"}, "parentProduct": {"href": "/mdr/sdtmig/3-4", "title": "Study Data Tabulation Model Implementation Guide: Human Clinical Trials", "type": "Implementation Guide"}, "rootItem": {"href": "/mdr/root/sdtmig/datasets/GF/variables/GFXFN", "title": "Version-agnostic anchor resource for SDTMIG variable GF.GFXFN", "type": "Root Data Element"}, "self": {"href": "/mdr/sdtmig/3-4/datasets/GF/variables/GFXFN", "title": "External File Path", "type": "SDTM Dataset Variable"}}, "core": "Perm", "description": "The filename and/or path to external data not stored in the same format and possibly not the same location as the other data for a study.", "label": "External File Path", "name": "GFXFN", "ordinal": "38", "role": "Record Qualifier", "simpleDatatype": "Char"}, {"_links": {"modelClassVariable": {"href": "/mdr/sdtm/2-0/classes/Findings/variables/--NAM", "title": "Laboratory/Vendor Name", "type": "SDTM Class Variable"}, "parentDataset": {"href": "/mdr/sdtmig/3-4/datasets/GF", "title": "Genomics Findings", "type": "SDTM Dataset"}, "parentProduct": {"href": "/mdr/sdtmig/3-4", "title": "Study Data Tabulation Model Implementation Guide: Human Clinical Trials", "type": "Implementation Guide"}, "rootItem": {"href": "/mdr/root/sdtmig/datasets/GF/variables/GFNAM", "title": "Version-agnostic anchor resource for SDTMIG variable GF.GFNAM", "type": "Root Data Element"}, "self": {"href": "/mdr/sdtmig/3-4/datasets/GF/variables/GFNAM", "title": "Laboratory/Vendor Name", "type": "SDTM Dataset Variable"}}, "core": "Perm", "description": "Name or identifier of the vendor that provided the test result. When more than 1 vendor is involved in the generation of the result, additional vendors should be represented as supplemental qualifiers.", "label": "Laboratory/Vendor Name", "name": "GFNAM", "ordinal": "39", "role": "Record Qualifier", "simpleDatatype": "Char"}, {"_links": {"codelist": [{"href": "/mdr/root/ct/sdtmct/codelists/C111114", "title": "Version-agnostic anchor resource for codelist C111114", "type": "Root Value Domain"}], "modelClassVariable": {"href": "/mdr/sdtm/2-0/classes/Findings/variables/--SPEC", "title": "Specimen Material Type", "type": "SDTM Class Variable"}, "parentDataset": {"href": "/mdr/sdtmig/3-4/datasets/GF", "title": "Genomics Findings", "type": "SDTM Dataset"}, "parentProduct": {"href": "/mdr/sdtmig/3-4", "title": "Study Data Tabulation Model Implementation Guide: Human Clinical Trials", "type": "Implementation Guide"}, "rootItem": {"href": "/mdr/root/sdtmig/datasets/GF/variables/GFSPEC", "title": "Version-agnostic anchor resource for SDTMIG variable GF.GFSPEC", "type": "Root Data Element"}, "self": {"href": "/mdr/sdtmig/3-4/datasets/GF/variables/GFSPEC", "title": "Specimen Material Type", "type": "SDTM Dataset Variable"}}, "core": "Perm", "description": "Identifies the type of genetic material used for the measurement.", "label": "Specimen Material Type", "name": "GFSPEC", "ordinal": "40", "role": "Record Qualifier", "simpleDatatype": "Char"}, {"_links": {"codelist": [{"href": "/mdr/root/ct/sdtmct/codelists/C85492", "title": "Version-agnostic anchor resource for codelist C85492", "type": "Root Value Domain"}], "modelClassVariable": {"href": "/mdr/sdtm/2-0/classes/Findings/variables/--METHOD", "title": "Method of Test or Examination", "type": "SDTM Class Variable"}, "parentDataset": {"href": "/mdr/sdtmig/3-4/datasets/GF", "title": "Genomics Findings", "type": "SDTM Dataset"}, "parentProduct": {"href": "/mdr/sdtmig/3-4", "title": "Study Data Tabulation Model Implementation Guide: Human Clinical Trials", "type": "Implementation Guide"}, "rootItem": {"href": "/mdr/root/sdtmig/datasets/GF/variables/GFMETHOD", "title": "Version-agnostic anchor resource for SDTMIG variable GF.GFMETHOD", "type": "Root Data Element"}, "self": {"href": "/mdr/sdtmig/3-4/datasets/GF/variables/GFMETHOD", "title": "Method of Test or Examination", "type": "SDTM Dataset Variable"}}, "core": "Exp", "description": "The test method by which the examination is performed by the wet lab in order to yield the result reported in the dataset.", "label": "Method of Test or Examination", "name": "GFMETHOD", "ordinal": "41", "role": "Record Qualifier", "simpleDatatype": "Char"}, {"_links": {"modelClassVariable": {"href": "/mdr/sdtm/2-0/classes/Findings/variables/--RUNID", "title": "Run ID", "type": "SDTM Class Variable"}, "parentDataset": {"href": "/mdr/sdtmig/3-4/datasets/GF", "title": "Genomics Findings", "type": "SDTM Dataset"}, "parentProduct": {"href": "/mdr/sdtmig/3-4", "title": "Study Data Tabulation Model Implementation Guide: Human Clinical Trials", "type": "Implementation Guide"}, "rootItem": {"href": "/mdr/root/sdtmig/datasets/GF/variables/GFRUNID", "title": "Version-agnostic anchor resource for SDTMIG variable GF.GFRUNID", "type": "Root Data Element"}, "self": {"href": "/mdr/sdtmig/3-4/datasets/GF/variables/GFRUNID", "title": "Run ID", "type": "SDTM Dataset Variable"}}, "core": "Perm", "description": "A unique identifier for a particular run of a test performed by the wet lab on a particular batch of samples. This identifier can be used to distinguish between records for the same test performed at different times.", "label": "Run ID", "name": "GFRUNID", "ordinal": "42", "role": "Record Qualifier", "simpleDatatype": "Char"}, {"_links": {"codelist": [{"href": "/mdr/root/ct/sdtmct/codelists/C181181", "title": "Version-agnostic anchor resource for codelist C181181", "type": "Root Value Domain"}], "modelClassVariable": {"href": "/mdr/sdtm/2-0/classes/Findings/variables/--ANMETH", "title": "Analysis Method", "type": "SDTM Class Variable"}, "parentDataset": {"href": "/mdr/sdtmig/3-4/datasets/GF", "title": "Genomics Findings", "type": "SDTM Dataset"}, "parentProduct": {"href": "/mdr/sdtmig/3-4", "title": "Study Data Tabulation Model Implementation Guide: Human Clinical Trials", "type": "Implementation Guide"}, "rootItem": {"href": "/mdr/root/sdtmig/datasets/GF/variables/GFANMETH", "title": "Version-agnostic anchor resource for SDTMIG variable GF.GFANMETH", "type": "Root Data Element"}, "self": {"href": "/mdr/sdtmig/3-4/datasets/GF/variables/GFANMETH", "title": "Analysis Method", "type": "SDTM Dataset Variable"}}, "core": "Perm", "description": "The method of secondary processing performed by the dry lab to yield the result reported in the dataset.", "label": "Analysis Method", "name": "GFANMETH", "ordinal": "43", "role": "Record Qualifier", "simpleDatatype": "Char"}, {"_links": {"codelist": [{"href": "/mdr/root/ct/sdtmct/codelists/C66742", "title": "Version-agnostic anchor resource for codelist C66742", "type": "Root Value Domain"}], "modelClassVariable": {"href": "/mdr/sdtm/2-0/classes/Findings/variables/--BLFL", "title": "Baseline Flag", "type": "SDTM Class Variable"}, "parentDataset": {"href": "/mdr/sdtmig/3-4/datasets/GF", "title": "Genomics Findings", "type": "SDTM Dataset"}, "parentProduct": {"href": "/mdr/sdtmig/3-4", "title": "Study Data Tabulation Model Implementation Guide: Human Clinical Trials", "type": "Implementation Guide"}, "rootItem": {"href": "/mdr/root/sdtmig/datasets/GF/variables/GFBLFL", "title": "Version-agnostic anchor resource for SDTMIG variable GF.GFBLFL", "type": "Root Data Element"}, "self": {"href": "/mdr/sdtmig/3-4/datasets/GF/variables/GFBLFL", "title": "Baseline Flag", "type": "SDTM Dataset Variable"}}, "core": "Perm", "description": "Indicator used to identify a baseline value. Should be \"Y\" or null.", "label": "Baseline Flag", "name": "GFBLFL", "ordinal": "44", "role": "Record Qualifier", "simpleDatatype": "Char"}, {"_links": {"codelist": [{"href": "/mdr/root/ct/sdtmct/codelists/C66742", "title": "Version-agnostic anchor resource for codelist C66742", "type": "Root Value Domain"}], "modelClassVariable": {"href": "/mdr/sdtm/2-0/classes/Findings/variables/--DRVFL", "title": "Derived Flag", "type": "SDTM Class Variable"}, "parentDataset": {"href": "/mdr/sdtmig/3-4/datasets/GF", "title": "Genomics Findings", "type": "SDTM Dataset"}, "parentProduct": {"href": "/mdr/sdtmig/3-4", "title": "Study Data Tabulation Model Implementation Guide: Human Clinical Trials", "type": "Implementation Guide"}, "rootItem": {"href": "/mdr/root/sdtmig/datasets/GF/variables/GFDRVFL", "title": "Version-agnostic anchor resource for SDTMIG variable GF.GFDRVFL", "type": "Root Data Element"}, "self": {"href": "/mdr/sdtmig/3-4/datasets/GF/variables/GFDRVFL", "title": "Derived Flag", "type": "SDTM Dataset Variable"}}, "core": "Perm", "description": "Used to indicate a derived record (e.g., a record that represents the average of other records such as a computed baseline). Should be \"Y\" or null.", "label": "Derived Flag", "name": "GFDRVFL", "ordinal": "45", "role": "Record Qualifier", "simpleDatatype": "Char"}, {"_links": {"modelClassVariable": {"href": "/mdr/sdtm/2-0/classes/Findings/variables/--LLOQ", "title": "Lower Limit of Quantitation", "type": "SDTM Class Variable"}, "parentDataset": {"href": "/mdr/sdtmig/3-4/datasets/GF", "title": "Genomics Findings", "type": "SDTM Dataset"}, "parentProduct": {"href": "/mdr/sdtmig/3-4", "title": "Study Data Tabulation Model Implementation Guide: Human Clinical Trials", "type": "Implementation Guide"}, "rootItem": {"href": "/mdr/root/sdtmig/datasets/GF/variables/GFLLOQ", "title": "Version-agnostic anchor resource for SDTMIG variable GF.GFLLOQ", "type": "Root Data Element"}, "self": {"href": "/mdr/sdtmig/3-4/datasets/GF/variables/GFLLOQ", "title": "Lower Limit of Quantitation", "type": "SDTM Dataset Variable"}}, "core": "Perm", "description": "Indicates the lower limit of quantitation for an assay. Units will be those used for GFSTRESU.", "label": "Lower Limit of Quantitation", "name": "GFLLOQ", "ordinal": "46", "role": "Variable Qualifier", "simpleDatatype": "Num"}, {"_links": {"modelClassVariable": {"href": "/mdr/sdtm/2-0/classes/Findings/variables/--REPNUM", "title": "Repetition Number", "type": "SDTM Class Variable"}, "parentDataset": {"href": "/mdr/sdtmig/3-4/datasets/GF", "title": "Genomics Findings", "type": "SDTM Dataset"}, "parentProduct": {"href": "/mdr/sdtmig/3-4", "title": "Study Data Tabulation Model Implementation Guide: Human Clinical Trials", "type": "Implementation Guide"}, "rootItem": {"href": "/mdr/root/sdtmig/datasets/GF/variables/GFREPNUM", "title": "Version-agnostic anchor resource for SDTMIG variable GF.GFREPNUM", "type": "Root Data Element"}, "self": {"href": "/mdr/sdtmig/3-4/datasets/GF/variables/GFREPNUM", "title": "Repetition Number", "type": "SDTM Dataset Variable"}}, "core": "Perm", "description": "The instance number of a test that is repeated within a given timeframe for the same test performed by the wet lab.", "label": "Repetition Number", "name": "GFREPNUM", "ordinal": "47", "role": "Record Qualifier", "simpleDatatype": "Num"}, {"_links": {"modelClassVariable": {"href": "/mdr/sdtm/2-0/classes/GeneralObservations/variables/VISITNUM", "title": "Visit Number", "type": "SDTM Class Variable"}, "parentDataset": {"href": "/mdr/sdtmig/3-4/datasets/GF", "title": "Genomics Findings", "type": "SDTM Dataset"}, "parentProduct": {"href": "/mdr/sdtmig/3-4", "title": "Study Data Tabulation Model Implementation Guide: Human Clinical Trials", "type": "Implementation Guide"}, "rootItem": {"href": "/mdr/root/sdtmig/datasets/GF/variables/VISITNUM", "title": "Version-agnostic anchor resource for SDTMIG variable GF.VISITNUM", "type": "Root Data Element"}, "self": {"href": "/mdr/sdtmig/3-4/datasets/GF/variables/VISITNUM", "title": "Visit Number", "type": "SDTM Dataset Variable"}}, "core": "Exp", "description": "Clinical encounter number. Numeric version of VISIT, used for sorting.", "label": "Visit Number", "name": "VISITNUM", "ordinal": "48", "role": "Timing", "simpleDatatype": "Num"}, {"_links": {"modelClassVariable": {"href": "/mdr/sdtm/2-0/classes/GeneralObservations/variables/VISIT", "title": "Visit Name", "type": "SDTM Class Variable"}, "parentDataset": {"href": "/mdr/sdtmig/3-4/datasets/GF", "title": "Genomics Findings", "type": "SDTM Dataset"}, "parentProduct": {"href": "/mdr/sdtmig/3-4", "title": "Study Data Tabulation Model Implementation Guide: Human Clinical Trials", "type": "Implementation Guide"}, "rootItem": {"href": "/mdr/root/sdtmig/datasets/GF/variables/VISIT", "title": "Version-agnostic anchor resource for SDTMIG variable GF.VISIT", "type": "Root Data Element"}, "self": {"href": "/mdr/sdtmig/3-4/datasets/GF/variables/VISIT", "title": "Visit Name", "type": "SDTM Dataset Variable"}}, "core": "Perm", "description": "Protocol-defined description of clinical encounter.", "label": "Visit Name", "name": "VISIT", "ordinal": "49", "role": "Timing", "simpleDatatype": "Char"}, {"_links": {"modelClassVariable": {"href": "/mdr/sdtm/2-0/classes/GeneralObservations/variables/VISITDY", "title": "Planned Study Day of Visit", "type": "SDTM Class Variable"}, "parentDataset": {"href": "/mdr/sdtmig/3-4/datasets/GF", "title": "Genomics Findings", "type": "SDTM Dataset"}, "parentProduct": {"href": "/mdr/sdtmig/3-4", "title": "Study Data Tabulation Model Implementation Guide: Human Clinical Trials", "type": "Implementation Guide"}, "rootItem": {"href": "/mdr/root/sdtmig/datasets/GF/variables/VISITDY", "title": "Version-agnostic anchor resource for SDTMIG variable GF.VISITDY", "type": "Root Data Element"}, "self": {"href": "/mdr/sdtmig/3-4/datasets/GF/variables/VISITDY", "title": "Planned Study Day of Visit", "type": "SDTM Dataset Variable"}}, "core": "Perm", "description": "Planned study day of VISIT. Should be an integer.", "label": "Planned Study Day of Visit", "name": "VISITDY", "ordinal": "50", "role": "Timing", "simpleDatatype": "Num"}, {"_links": {"modelClassVariable": {"href": "/mdr/sdtm/2-0/classes/GeneralObservations/variables/--DTC", "title": "Date/Time of Collection", "type": "SDTM Class Variable"}, "parentDataset": {"href": "/mdr/sdtmig/3-4/datasets/GF", "title": "Genomics Findings", "type": "SDTM Dataset"}, "parentProduct": {"href": "/mdr/sdtmig/3-4", "title": "Study Data Tabulation Model Implementation Guide: Human Clinical Trials", "type": "Implementation Guide"}, "rootItem": {"href": "/mdr/root/sdtmig/datasets/GF/variables/GFDTC", "title": "Version-agnostic anchor resource for SDTMIG variable GF.GFDTC", "type": "Root Data Element"}, "self": {"href": "/mdr/sdtmig/3-4/datasets/GF/variables/GFDTC", "title": "Date/Time of Specimen Collection", "type": "SDTM Dataset Variable"}}, "core": "Exp", "describedValueDomain": "ISO 8601 datetime or interval", "description": "Date and time of specimen collection.", "label": "Date/Time of Specimen Collection", "name": "GFDTC", "ordinal": "51", "role": "Timing", "simpleDatatype": "Char"}, {"_links": {"modelClassVariable": {"href": "/mdr/sdtm/2-0/classes/GeneralObservations/variables/--DY", "title": "Study Day of Visit/Collection/Exam", "type": "SDTM Class Variable"}, "parentDataset": {"href": "/mdr/sdtmig/3-4/datasets/GF", "title": "Genomics Findings", "type": "SDTM Dataset"}, "parentProduct": {"href": "/mdr/sdtmig/3-4", "title": "Study Data Tabulation Model Implementation Guide: Human Clinical Trials", "type": "Implementation Guide"}, "rootItem": {"href": "/mdr/root/sdtmig/datasets/GF/variables/GFDY", "title": "Version-agnostic anchor resource for SDTMIG variable GF.GFDY", "type": "Root Data Element"}, "self": {"href": "/mdr/sdtmig/3-4/datasets/GF/variables/GFDY", "title": "Study Day of Specimen Collection", "type": "SDTM Dataset Variable"}}, "core": "Perm", "description": "Actual study day of visit/collection/exam expressed in integer days relative to the sponsor-defined RFSTDTC in Demographics.", "label": "Study Day of Specimen Collection", "name": "GFDY", "ordinal": "52", "role": "Timing", "simpleDatatype": "Num"}, {"_links": {"modelClassVariable": {"href": "/mdr/sdtm/2-0/classes/GeneralObservations/variables/--TPT", "title": "Planned Time Point Name", "type": "SDTM Class Variable"}, "parentDataset": {"href": "/mdr/sdtmig/3-4/datasets/GF", "title": "Genomics Findings", "type": "SDTM Dataset"}, "parentProduct": {"href": "/mdr/sdtmig/3-4", "title": "Study Data Tabulation Model Implementation Guide: Human Clinical Trials", "type": "Implementation Guide"}, "rootItem": {"href": "/mdr/root/sdtmig/datasets/GF/variables/GFTPT", "title": "Version-agnostic anchor resource for SDTMIG variable GF.GFTPT", "type": "Root Data Element"}, "self": {"href": "/mdr/sdtmig/3-4/datasets/GF/variables/GFTPT", "title": "Planned Time Point Name", "type": "SDTM Dataset Variable"}}, "core": "Perm", "description": "Text description of time when a measurement or observation should be taken as defined in the protocol. This may be represented as an elapsed time relative to a fixed reference point, such as time of last dose. See GFTPTNUM and GFTPTREF.", "label": "Planned Time Point Name", "name": "GFTPT", "ordinal": "53", "role": "Timing", "simpleDatatype": "Char"}, {"_links": {"modelClassVariable": {"href": "/mdr/sdtm/2-0/classes/GeneralObservations/variables/--TPTNUM", "title": "Planned Time Point Number", "type": "SDTM Class Variable"}, "parentDataset": {"href": "/mdr/sdtmig/3-4/datasets/GF", "title": "Genomics Findings", "type": "SDTM Dataset"}, "parentProduct": {"href": "/mdr/sdtmig/3-4", "title": "Study Data Tabulation Model Implementation Guide: Human Clinical Trials", "type": "Implementation Guide"}, "rootItem": {"href": "/mdr/root/sdtmig/datasets/GF/variables/GFTPTNUM", "title": "Version-agnostic anchor resource for SDTMIG variable GF.GFTPTNUM", "type": "Root Data Element"}, "self": {"href": "/mdr/sdtmig/3-4/datasets/GF/variables/GFTPTNUM", "title": "Planned Time Point Number", "type": "SDTM Dataset Variable"}}, "core": "Perm", "description": "Numerical version of GFTPT used in sorting.", "label": "Planned Time Point Number", "name": "GFTPTNUM", "ordinal": "54", "role": "Timing", "simpleDatatype": "Num"}, {"_links": {"modelClassVariable": {"href": "/mdr/sdtm/2-0/classes/GeneralObservations/variables/--ELTM", "title": "Planned Elapsed Time from Time Point Ref", "type": "SDTM Class Variable"}, "parentDataset": {"href": "/mdr/sdtmig/3-4/datasets/GF", "title": "Genomics Findings", "type": "SDTM Dataset"}, "parentProduct": {"href": "/mdr/sdtmig/3-4", "title": "Study Data Tabulation Model Implementation Guide: Human Clinical Trials", "type": "Implementation Guide"}, "rootItem": {"href": "/mdr/root/sdtmig/datasets/GF/variables/GFELTM", "title": "Version-agnostic anchor resource for SDTMIG variable GF.GFELTM", "type": "Root Data Element"}, "self": {"href": "/mdr/sdtmig/3-4/datasets/GF/variables/GFELTM", "title": "Planned Elapsed Time from Time Point Ref", "type": "SDTM Dataset Variable"}}, "core": "Perm", "describedValueDomain": "ISO 8601 duration", "description": "Elapsed time relative to a planned fixed reference (GFTPTREF). This variable is useful where there are repetitive measures. Not a clock time or a date time variable, but an interval, represented as ISO duration.", "label": "Planned Elapsed Time from Time Point Ref", "name": "GFELTM", "ordinal": "55", "role": "Timing", "simpleDatatype": "Char"}, {"_links": {"modelClassVariable": {"href": "/mdr/sdtm/2-0/classes/GeneralObservations/variables/--TPTREF", "title": "Time Point Reference", "type": "SDTM Class Variable"}, "parentDataset": {"href": "/mdr/sdtmig/3-4/datasets/GF", "title": "Genomics Findings", "type": "SDTM Dataset"}, "parentProduct": {"href": "/mdr/sdtmig/3-4", "title": "Study Data Tabulation Model Implementation Guide: Human Clinical Trials", "type": "Implementation Guide"}, "rootItem": {"href": "/mdr/root/sdtmig/datasets/GF/variables/GFTPTREF", "title": "Version-agnostic anchor resource for SDTMIG variable GF.GFTPTREF", "type": "Root Data Element"}, "self": {"href": "/mdr/sdtmig/3-4/datasets/GF/variables/GFTPTREF", "title": "Time Point Reference", "type": "SDTM Dataset Variable"}}, "core": "Perm", "description": "Name of the fixed reference point referred to by GFELTM, GFTPTNUM, and GFTPT. Examples: \"PREVIOUS DOSE\", \"PREVIOUS MEAL\".", "label": "Time Point Reference", "name": "GFTPTREF", "ordinal": "56", "role": "Timing", "simpleDatatype": "Char"}, {"_links": {"modelClassVariable": {"href": "/mdr/sdtm/2-0/classes/GeneralObservations/variables/--RFTDTC", "title": "Date/Time of Reference Time Point", "type": "SDTM Class Variable"}, "parentDataset": {"href": "/mdr/sdtmig/3-4/datasets/GF", "title": "Genomics Findings", "type": "SDTM Dataset"}, "parentProduct": {"href": "/mdr/sdtmig/3-4", "title": "Study Data Tabulation Model Implementation Guide: Human Clinical Trials", "type": "Implementation Guide"}, "rootItem": {"href": "/mdr/root/sdtmig/datasets/GF/variables/GFRFTDTC", "title": "Version-agnostic anchor resource for SDTMIG variable GF.GFRFTDTC", "type": "Root Data Element"}, "self": {"href": "/mdr/sdtmig/3-4/datasets/GF/variables/GFRFTDTC", "title": "Date/Time of Reference Time Point", "type": "SDTM Dataset Variable"}}, "core": "Perm", "describedValueDomain": "ISO 8601 datetime or interval", "description": "Date/time for a fixed reference time point defined by GFTPTREF.", "label": "Date/Time of Reference Time Point", "name": "GFRFTDTC", "ordinal": "57", "role": "Timing", "simpleDatatype": "Char"}], "description": "A findings domain that contains data related to the structure, function, evolution, mapping, and editing of subject and non-host organism genomic material of interest. This domain includes but is not limited to assessments and results for genetic variation and transcription, and summary measures derived from these assessments. The GF domain is used for findings from characteristics assessed from nucleic acids and may include subsequent inferences and/or predictions about related proteins/amino acids.", "label": "Genomics Findings", "name": "GF", "ordinal": "20"}
