{"_links": {"parentClass": {"href": "/mdr/sdtmig/3-4/classes/Findings", "title": "Findings", "type": "Class"}, "parentProduct": {"href": "/mdr/sdtmig/3-4", "title": "Study Data Tabulation Model Implementation Guide: Human Clinical Trials", "type": "Implementation Guide"}, "priorVersion": {"href": "/mdr/sdtmig/3-3/datasets/IS", "title": "Immunogenicity Specimen Assessments", "type": "SDTM Dataset"}, "self": {"href": "/mdr/sdtmig/3-4/datasets/IS", "title": "Immunogenicity Specimen Assessments", "type": "SDTM Dataset"}}, "datasetStructure": "One record per test per visit per subject", "datasetVariables": [{"_links": {"modelClassVariable": {"href": "/mdr/sdtm/2-0/classes/GeneralObservations/variables/STUDYID", "title": "Study Identifier", "type": "SDTM Class Variable"}, "parentDataset": {"href": "/mdr/sdtmig/3-4/datasets/IS", "title": "Immunogenicity Specimen Assessments", "type": "SDTM Dataset"}, "parentProduct": {"href": "/mdr/sdtmig/3-4", "title": "Study Data Tabulation Model Implementation Guide: Human Clinical Trials", "type": "Implementation Guide"}, "priorVersion": {"href": "/mdr/sdtmig/3-3/datasets/IS/variables/STUDYID", "title": "Study Identifier", "type": "SDTM Dataset Variable"}, "rootItem": {"href": "/mdr/root/sdtmig/datasets/IS/variables/STUDYID", "title": "Version-agnostic anchor resource for SDTMIG variable IS.STUDYID", "type": "Root Data Element"}, "self": {"href": "/mdr/sdtmig/3-4/datasets/IS/variables/STUDYID", "title": "Study Identifier", "type": "SDTM Dataset Variable"}}, "core": "Req", "description": "Unique identifier for a study.", "label": "Study Identifier", "name": "STUDYID", "ordinal": "1", "role": "Identifier", "simpleDatatype": "Char"}, {"_links": {"modelClassVariable": {"href": "/mdr/sdtm/2-0/classes/GeneralObservations/variables/DOMAIN", "title": "Domain Abbreviation", "type": "SDTM Class Variable"}, "parentDataset": {"href": "/mdr/sdtmig/3-4/datasets/IS", "title": "Immunogenicity Specimen Assessments", "type": "SDTM Dataset"}, "parentProduct": {"href": "/mdr/sdtmig/3-4", "title": "Study Data Tabulation Model Implementation Guide: Human Clinical Trials", "type": "Implementation Guide"}, "priorVersion": {"href": "/mdr/sdtmig/3-3/datasets/IS/variables/DOMAIN", "title": "Domain Abbreviation", "type": "SDTM Dataset Variable"}, "rootItem": {"href": "/mdr/root/sdtmig/datasets/IS/variables/DOMAIN", "title": "Version-agnostic anchor resource for SDTMIG variable IS.DOMAIN", "type": "Root Data Element"}, "self": {"href": "/mdr/sdtmig/3-4/datasets/IS/variables/DOMAIN", "title": "Domain Abbreviation", "type": "SDTM Dataset Variable"}}, "core": "Req", "description": "Two-character abbreviation for the domain.", "label": "Domain Abbreviation", "name": "DOMAIN", "ordinal": "2", "role": "Identifier", "simpleDatatype": "Char", "valueList": ["IS"]}, {"_links": {"modelClassVariable": {"href": "/mdr/sdtm/2-0/classes/GeneralObservations/variables/USUBJID", "title": "Unique Subject Identifier", "type": "SDTM Class Variable"}, "parentDataset": {"href": "/mdr/sdtmig/3-4/datasets/IS", "title": "Immunogenicity Specimen Assessments", "type": "SDTM Dataset"}, "parentProduct": {"href": "/mdr/sdtmig/3-4", "title": "Study Data Tabulation Model Implementation Guide: Human Clinical Trials", "type": "Implementation Guide"}, "priorVersion": {"href": "/mdr/sdtmig/3-3/datasets/IS/variables/USUBJID", "title": "Unique Subject Identifier", "type": "SDTM Dataset Variable"}, "rootItem": {"href": "/mdr/root/sdtmig/datasets/IS/variables/USUBJID", "title": "Version-agnostic anchor resource for SDTMIG variable IS.USUBJID", "type": "Root Data Element"}, "self": {"href": "/mdr/sdtmig/3-4/datasets/IS/variables/USUBJID", "title": "Unique Subject Identifier", "type": "SDTM Dataset Variable"}}, "core": "Req", "description": "Identifier used to uniquely identify a subject across all studies for all applications or submissions involving the product.", "label": "Unique Subject Identifier", "name": "USUBJID", "ordinal": "3", "role": "Identifier", "simpleDatatype": "Char"}, {"_links": {"modelClassVariable": {"href": "/mdr/sdtm/2-0/classes/GeneralObservations/variables/NHOID", "title": "Non-Host Organism Identifier", "type": "SDTM Class Variable"}, "parentDataset": {"href": "/mdr/sdtmig/3-4/datasets/IS", "title": "Immunogenicity Specimen Assessments", "type": "SDTM Dataset"}, "parentProduct": {"href": "/mdr/sdtmig/3-4", "title": "Study Data Tabulation Model Implementation Guide: Human Clinical Trials", "type": "Implementation Guide"}, "rootItem": {"href": "/mdr/root/sdtmig/datasets/IS/variables/NHOID", "title": "Version-agnostic anchor resource for SDTMIG variable IS.NHOID", "type": "Root Data Element"}, "self": {"href": "/mdr/sdtmig/3-4/datasets/IS/variables/NHOID", "title": "Non-host Organism ID", "type": "SDTM Dataset Variable"}}, "core": "Perm", "description": "Sponsor-defined identifier for a non-host organism which should only be used when the organism is the subject of the TEST. This variable should be populated with an intuitive name based on the identity of the non-host organism as reported by a lab (e.g., \"A/California/7/2009 (H1N1)\"). It is not to be used as a qualifier of the result in the record on which it appears.", "label": "Non-host Organism ID", "name": "NHOID", "ordinal": "4", "role": "Identifier", "simpleDatatype": "Char"}, {"_links": {"modelClassVariable": {"href": "/mdr/sdtm/2-0/classes/GeneralObservations/variables/--SEQ", "title": "Sequence Number", "type": "SDTM Class Variable"}, "parentDataset": {"href": "/mdr/sdtmig/3-4/datasets/IS", "title": "Immunogenicity Specimen Assessments", "type": "SDTM Dataset"}, "parentProduct": {"href": "/mdr/sdtmig/3-4", "title": "Study Data Tabulation Model Implementation Guide: Human Clinical Trials", "type": "Implementation Guide"}, "priorVersion": {"href": "/mdr/sdtmig/3-3/datasets/IS/variables/ISSEQ", "title": "Sequence Number", "type": "SDTM Dataset Variable"}, "rootItem": {"href": "/mdr/root/sdtmig/datasets/IS/variables/ISSEQ", "title": "Version-agnostic anchor resource for SDTMIG variable IS.ISSEQ", "type": "Root Data Element"}, "self": {"href": "/mdr/sdtmig/3-4/datasets/IS/variables/ISSEQ", "title": "Sequence Number", "type": "SDTM Dataset Variable"}}, "core": "Req", "description": "Sequence number to ensure uniqueness of records within a dataset for a subject. May be any valid number (including decimals) and does not have to start at 1.", "label": "Sequence Number", "name": "ISSEQ", "ordinal": "5", "role": "Identifier", "simpleDatatype": "Num"}, {"_links": {"modelClassVariable": {"href": "/mdr/sdtm/2-0/classes/GeneralObservations/variables/--GRPID", "title": "Group ID", "type": "SDTM Class Variable"}, "parentDataset": {"href": "/mdr/sdtmig/3-4/datasets/IS", "title": "Immunogenicity Specimen Assessments", "type": "SDTM Dataset"}, "parentProduct": {"href": "/mdr/sdtmig/3-4", "title": "Study Data Tabulation Model Implementation Guide: Human Clinical Trials", "type": "Implementation Guide"}, "priorVersion": {"href": "/mdr/sdtmig/3-3/datasets/IS/variables/ISGRPID", "title": "Group ID", "type": "SDTM Dataset Variable"}, "rootItem": {"href": "/mdr/root/sdtmig/datasets/IS/variables/ISGRPID", "title": "Version-agnostic anchor resource for SDTMIG variable IS.ISGRPID", "type": "Root Data Element"}, "self": {"href": "/mdr/sdtmig/3-4/datasets/IS/variables/ISGRPID", "title": "Group ID", "type": "SDTM Dataset Variable"}}, "core": "Perm", "description": "Used to tie together a block of related records in a single domain for a subject.", "label": "Group ID", "name": "ISGRPID", "ordinal": "6", "role": "Identifier", "simpleDatatype": "Char"}, {"_links": {"modelClassVariable": {"href": "/mdr/sdtm/2-0/classes/GeneralObservations/variables/--REFID", "title": "Reference ID", "type": "SDTM Class Variable"}, "parentDataset": {"href": "/mdr/sdtmig/3-4/datasets/IS", "title": "Immunogenicity Specimen Assessments", "type": "SDTM Dataset"}, "parentProduct": {"href": "/mdr/sdtmig/3-4", "title": "Study Data Tabulation Model Implementation Guide: Human Clinical Trials", "type": "Implementation Guide"}, "priorVersion": {"href": "/mdr/sdtmig/3-3/datasets/IS/variables/ISREFID", "title": "Reference ID", "type": "SDTM Dataset Variable"}, "rootItem": {"href": "/mdr/root/sdtmig/datasets/IS/variables/ISREFID", "title": "Version-agnostic anchor resource for SDTMIG variable IS.ISREFID", "type": "Root Data Element"}, "self": {"href": "/mdr/sdtmig/3-4/datasets/IS/variables/ISREFID", "title": "Reference ID", "type": "SDTM Dataset Variable"}}, "core": "Perm", "description": "Internal or external specimen identifier. Example: \"458975-01\".", "label": "Reference ID", "name": "ISREFID", "ordinal": "7", "role": "Identifier", "simpleDatatype": "Char"}, {"_links": {"modelClassVariable": {"href": "/mdr/sdtm/2-0/classes/GeneralObservations/variables/--SPID", "title": "Sponsor-Defined Identifier", "type": "SDTM Class Variable"}, "parentDataset": {"href": "/mdr/sdtmig/3-4/datasets/IS", "title": "Immunogenicity Specimen Assessments", "type": "SDTM Dataset"}, "parentProduct": {"href": "/mdr/sdtmig/3-4", "title": "Study Data Tabulation Model Implementation Guide: Human Clinical Trials", "type": "Implementation Guide"}, "priorVersion": {"href": "/mdr/sdtmig/3-3/datasets/IS/variables/ISSPID", "title": "Sponsor-Defined Identifier", "type": "SDTM Dataset Variable"}, "rootItem": {"href": "/mdr/root/sdtmig/datasets/IS/variables/ISSPID", "title": "Version-agnostic anchor resource for SDTMIG variable IS.ISSPID", "type": "Root Data Element"}, "self": {"href": "/mdr/sdtmig/3-4/datasets/IS/variables/ISSPID", "title": "Sponsor-Defined Identifier", "type": "SDTM Dataset Variable"}}, "core": "Perm", "description": "Sponsor-defined identifier.", "label": "Sponsor-Defined Identifier", "name": "ISSPID", "ordinal": "8", "role": "Identifier", "simpleDatatype": "Char"}, {"_links": {"codelist": [{"href": "/mdr/root/ct/sdtmct/codelists/C120525", "title": "Version-agnostic anchor resource for codelist C120525", "type": "Root Value Domain"}], "modelClassVariable": {"href": "/mdr/sdtm/2-0/classes/Findings/variables/--TESTCD", "title": "Short Name of Measurement, Test, or Exam", "type": "SDTM Class Variable"}, "parentDataset": {"href": "/mdr/sdtmig/3-4/datasets/IS", "title": "Immunogenicity Specimen Assessments", "type": "SDTM Dataset"}, "parentProduct": {"href": "/mdr/sdtmig/3-4", "title": "Study Data Tabulation Model Implementation Guide: Human Clinical Trials", "type": "Implementation Guide"}, "priorVersion": {"href": "/mdr/sdtmig/3-3/datasets/IS/variables/ISTESTCD", "title": "Immunogenicity Test/Exam Short Name", "type": "SDTM Dataset Variable"}, "rootItem": {"href": "/mdr/root/sdtmig/datasets/IS/variables/ISTESTCD", "title": "Version-agnostic anchor resource for SDTMIG variable IS.ISTESTCD", "type": "Root Data Element"}, "self": {"href": "/mdr/sdtmig/3-4/datasets/IS/variables/ISTESTCD", "title": "Immunogenicity Test/Exam Short Name", "type": "SDTM Dataset Variable"}}, "core": "Req", "description": "Short name of the measurement, test, or examination described in ISTEST. It can be used as a column name when converting a dataset from a vertical to a horizontal format. The value in ISTESTCD cannot be longer than 8 characters, nor can it start with a number (e.g., \"1TEST\" is not valid). ISTESTCD cannot contain characters other than letters, numbers, or underscores.", "label": "Immunogenicity Test/Exam Short Name", "name": "ISTESTCD", "ordinal": "9", "role": "Topic", "simpleDatatype": "Char"}, {"_links": {"codelist": [{"href": "/mdr/root/ct/sdtmct/codelists/C120526", "title": "Version-agnostic anchor resource for codelist C120526", "type": "Root Value Domain"}], "modelClassVariable": {"href": "/mdr/sdtm/2-0/classes/Findings/variables/--TEST", "title": "Name of Measurement, Test, or Exam", "type": "SDTM Class Variable"}, "parentDataset": {"href": "/mdr/sdtmig/3-4/datasets/IS", "title": "Immunogenicity Specimen Assessments", "type": "SDTM Dataset"}, "parentProduct": {"href": "/mdr/sdtmig/3-4", "title": "Study Data Tabulation Model Implementation Guide: Human Clinical Trials", "type": "Implementation Guide"}, "priorVersion": {"href": "/mdr/sdtmig/3-3/datasets/IS/variables/ISTEST", "title": "Immunogenicity Test or Examination Name", "type": "SDTM Dataset Variable"}, "rootItem": {"href": "/mdr/root/sdtmig/datasets/IS/variables/ISTEST", "title": "Version-agnostic anchor resource for SDTMIG variable IS.ISTEST", "type": "Root Data Element"}, "self": {"href": "/mdr/sdtmig/3-4/datasets/IS/variables/ISTEST", "title": "Immunogenicity Test or Examination Name", "type": "SDTM Dataset Variable"}}, "core": "Req", "description": "Verbatim name of the test or examination used to obtain the measurement or finding. The value in ISTEST cannot be longer than 40 characters. Example: \"Immunoglobulin E\".", "label": "Immunogenicity Test or Examination Name", "name": "ISTEST", "ordinal": "10", "role": "Synonym Qualifier", "simpleDatatype": "Char"}, {"_links": {"codelist": [{"href": "/mdr/root/ct/sdtmct/codelists/C181175", "title": "Version-agnostic anchor resource for codelist C181175", "type": "Root Value Domain"}], "modelClassVariable": {"href": "/mdr/sdtm/2-0/classes/Findings/variables/--TSTCND", "title": "Test Condition", "type": "SDTM Class Variable"}, "parentDataset": {"href": "/mdr/sdtmig/3-4/datasets/IS", "title": "Immunogenicity Specimen Assessments", "type": "SDTM Dataset"}, "parentProduct": {"href": "/mdr/sdtmig/3-4", "title": "Study Data Tabulation Model Implementation Guide: Human Clinical Trials", "type": "Implementation Guide"}, "rootItem": {"href": "/mdr/root/sdtmig/datasets/IS/variables/ISTSTCND", "title": "Version-agnostic anchor resource for SDTMIG variable IS.ISTSTCND", "type": "Root Data Element"}, "self": {"href": "/mdr/sdtmig/3-4/datasets/IS/variables/ISTSTCND", "title": "Test Condition", "type": "SDTM Dataset Variable"}}, "core": "Perm", "description": "Identifies any planned condition imposed by the assay system on the specimen at the time the test is performed.", "label": "Test Condition", "name": "ISTSTCND", "ordinal": "11", "role": "Variable Qualifier", "simpleDatatype": "Char"}, {"_links": {"modelClassVariable": {"href": "/mdr/sdtm/2-0/classes/Findings/variables/--CNDAGT", "title": "Test Condition Agent", "type": "SDTM Class Variable"}, "parentDataset": {"href": "/mdr/sdtmig/3-4/datasets/IS", "title": "Immunogenicity Specimen Assessments", "type": "SDTM Dataset"}, "parentProduct": {"href": "/mdr/sdtmig/3-4", "title": "Study Data Tabulation Model Implementation Guide: Human Clinical Trials", "type": "Implementation Guide"}, "rootItem": {"href": "/mdr/root/sdtmig/datasets/IS/variables/ISCNDAGT", "title": "Version-agnostic anchor resource for SDTMIG variable IS.ISCNDAGT", "type": "Root Data Element"}, "self": {"href": "/mdr/sdtmig/3-4/datasets/IS/variables/ISCNDAGT", "title": "Test Condition Agent", "type": "SDTM Dataset Variable"}}, "core": "Perm", "description": "The textual description of the agent used to impose a test condition. Examples are different stimulating agents used in immunoassays such as those in the Interferon Gamma Response assay (e.g., Mycobacterium tuberculosis ESAT-6, CFP-10, TB 7.7, Mitogen).", "label": "Test Condition Agent", "name": "ISCNDAGT", "ordinal": "12", "role": "Record Qualifier", "simpleDatatype": "Char"}, {"_links": {"codelist": [{"href": "/mdr/root/ct/sdtmct/codelists/C85491", "title": "Version-agnostic anchor resource for codelist C85491", "type": "Root Value Domain"}, {"href": "/mdr/root/ct/sdtmct/codelists/C181169", "title": "Version-agnostic anchor resource for codelist C181169", "type": "Root Value Domain"}], "modelClassVariable": {"href": "/mdr/sdtm/2-0/classes/Findings/variables/--BDAGNT", "title": "Binding Agent", "type": "SDTM Class Variable"}, "parentDataset": {"href": "/mdr/sdtmig/3-4/datasets/IS", "title": "Immunogenicity Specimen Assessments", "type": "SDTM Dataset"}, "parentProduct": {"href": "/mdr/sdtmig/3-4", "title": "Study Data Tabulation Model Implementation Guide: Human Clinical Trials", "type": "Implementation Guide"}, "rootItem": {"href": "/mdr/root/sdtmig/datasets/IS/variables/ISBDAGNT", "title": "Version-agnostic anchor resource for SDTMIG variable IS.ISBDAGNT", "type": "Root Data Element"}, "self": {"href": "/mdr/sdtmig/3-4/datasets/IS/variables/ISBDAGNT", "title": "Binding Agent", "type": "SDTM Dataset Variable"}}, "core": "Perm", "description": "Text description of the agent that is binding to the entity in the ISTEST variable. ISBDAGNT is used to indicate that there is a binding relationship between the entities in the ISTEST and ISBDAGNT variables, regardless of direction. \\n ISBDAGNT is not a method qualifier. It should only be used when the actual interest of the measurement is the binding interaction between the 2 entities in ISTEST and ISBDAGNT. In other words, the combination of ISTEST and ISBDAGNT should describe the entity or the analyte being measured, without the need for additional variables. \\n The binding agent may be (but is not limited to) a test article, a portion of the test article, a related compound, an endogenous molecule, an allergen, or an infectious agent.", "label": "Binding Agent", "name": "ISBDAGNT", "ordinal": "13", "role": "Variable Qualifier", "simpleDatatype": "Char"}, {"_links": {"codelist": [{"href": "/mdr/root/ct/sdtmct/codelists/C181170", "title": "Version-agnostic anchor resource for codelist C181170", "type": "Root Value Domain"}], "modelClassVariable": {"href": "/mdr/sdtm/2-0/classes/Findings/variables/--TSTOPO", "title": "Test Operational Objective", "type": "SDTM Class Variable"}, "parentDataset": {"href": "/mdr/sdtmig/3-4/datasets/IS", "title": "Immunogenicity Specimen Assessments", "type": "SDTM Dataset"}, "parentProduct": {"href": "/mdr/sdtmig/3-4", "title": "Study Data Tabulation Model Implementation Guide: Human Clinical Trials", "type": "Implementation Guide"}, "rootItem": {"href": "/mdr/root/sdtmig/datasets/IS/variables/ISTSTOPO", "title": "Version-agnostic anchor resource for SDTMIG variable IS.ISTSTOPO", "type": "Root Data Element"}, "self": {"href": "/mdr/sdtmig/3-4/datasets/IS/variables/ISTSTOPO", "title": "Test Operational Objective", "type": "SDTM Dataset Variable"}}, "core": "Perm", "description": "Text description of the high-level purpose of the test at the operational level. If populated, valid values are \"SCREEN\", \"CONFIRM\", and \"QUANTIFY\".", "label": "Test Operational Objective", "name": "ISTSTOPO", "ordinal": "14", "role": "Variable Qualifier", "simpleDatatype": "Char"}, {"_links": {"modelClassVariable": {"href": "/mdr/sdtm/2-0/classes/Findings/variables/--MSCBCE", "title": "Molecule Secreted by Cells", "type": "SDTM Class Variable"}, "parentDataset": {"href": "/mdr/sdtmig/3-4/datasets/IS", "title": "Immunogenicity Specimen Assessments", "type": "SDTM Dataset"}, "parentProduct": {"href": "/mdr/sdtmig/3-4", "title": "Study Data Tabulation Model Implementation Guide: Human Clinical Trials", "type": "Implementation Guide"}, "rootItem": {"href": "/mdr/root/sdtmig/datasets/IS/variables/ISMSCBCE", "title": "Version-agnostic anchor resource for SDTMIG variable IS.ISMSCBCE", "type": "Root Data Element"}, "self": {"href": "/mdr/sdtmig/3-4/datasets/IS/variables/ISMSCBCE", "title": "Molecule Secreted by Cells", "type": "SDTM Dataset Variable"}}, "core": "Perm", "description": "Text description of the entity secreted by the cells represented in ISTEST. The combination of ISTEST and ISMSCBCE should describe the entity or the analyte being measured, without the need for additional variables.", "label": "Molecule Secreted by Cells", "name": "ISMSCBCE", "ordinal": "15", "role": "Variable Qualifier", "simpleDatatype": "Char"}, {"_links": {"modelClassVariable": {"href": "/mdr/sdtm/2-0/classes/Findings/variables/--TSTDTL", "title": "Measurement, Test, or Examination Detail", "type": "SDTM Class Variable"}, "parentDataset": {"href": "/mdr/sdtmig/3-4/datasets/IS", "title": "Immunogenicity Specimen Assessments", "type": "SDTM Dataset"}, "parentProduct": {"href": "/mdr/sdtmig/3-4", "title": "Study Data Tabulation Model Implementation Guide: Human Clinical Trials", "type": "Implementation Guide"}, "rootItem": {"href": "/mdr/root/sdtmig/datasets/IS/variables/ISTSTDTL", "title": "Version-agnostic anchor resource for SDTMIG variable IS.ISTSTDTL", "type": "Root Data Element"}, "self": {"href": "/mdr/sdtmig/3-4/datasets/IS/variables/ISTSTDTL", "title": "Test Detail", "type": "SDTM Dataset Variable"}}, "core": "Perm", "description": "Further description of ISTESTCD and ISTEST.", "label": "Test Detail", "name": "ISTSTDTL", "ordinal": "16", "role": "Variable Qualifier", "simpleDatatype": "Char"}, {"_links": {"modelClassVariable": {"href": "/mdr/sdtm/2-0/classes/Findings/variables/--CAT", "title": "Category", "type": "SDTM Class Variable"}, "parentDataset": {"href": "/mdr/sdtmig/3-4/datasets/IS", "title": "Immunogenicity Specimen Assessments", "type": "SDTM Dataset"}, "parentProduct": {"href": "/mdr/sdtmig/3-4", "title": "Study Data Tabulation Model Implementation Guide: Human Clinical Trials", "type": "Implementation Guide"}, "priorVersion": {"href": "/mdr/sdtmig/3-3/datasets/IS/variables/ISCAT", "title": "Category for Immunogenicity Test", "type": "SDTM Dataset Variable"}, "rootItem": {"href": "/mdr/root/sdtmig/datasets/IS/variables/ISCAT", "title": "Version-agnostic anchor resource for SDTMIG variable IS.ISCAT", "type": "Root Data Element"}, "self": {"href": "/mdr/sdtmig/3-4/datasets/IS/variables/ISCAT", "title": "Category for Immunogenicity Test", "type": "SDTM Dataset Variable"}}, "core": "Perm", "description": "Used to define a category of topic-variable values across subjects. Example: \"SEROLOGY\".", "label": "Category for Immunogenicity Test", "name": "ISCAT", "ordinal": "17", "role": "Grouping Qualifier", "simpleDatatype": "Char"}, {"_links": {"modelClassVariable": {"href": "/mdr/sdtm/2-0/classes/Findings/variables/--SCAT", "title": "Subcategory", "type": "SDTM Class Variable"}, "parentDataset": {"href": "/mdr/sdtmig/3-4/datasets/IS", "title": "Immunogenicity Specimen Assessments", "type": "SDTM Dataset"}, "parentProduct": {"href": "/mdr/sdtmig/3-4", "title": "Study Data Tabulation Model Implementation Guide: Human Clinical Trials", "type": "Implementation Guide"}, "priorVersion": {"href": "/mdr/sdtmig/3-3/datasets/IS/variables/ISSCAT", "title": "Subcategory for Immunogenicity Test", "type": "SDTM Dataset Variable"}, "rootItem": {"href": "/mdr/root/sdtmig/datasets/IS/variables/ISSCAT", "title": "Version-agnostic anchor resource for SDTMIG variable IS.ISSCAT", "type": "Root Data Element"}, "self": {"href": "/mdr/sdtmig/3-4/datasets/IS/variables/ISSCAT", "title": "Subcategory for Immunogenicity Test", "type": "SDTM Dataset Variable"}}, "core": "Perm", "description": "A further categorization of ISCAT.", "label": "Subcategory for Immunogenicity Test", "name": "ISSCAT", "ordinal": "18", "role": "Grouping Qualifier", "simpleDatatype": "Char"}, {"_links": {"modelClassVariable": {"href": "/mdr/sdtm/2-0/classes/Findings/variables/--ORRES", "title": "Result or Finding in Original Units", "type": "SDTM Class Variable"}, "parentDataset": {"href": "/mdr/sdtmig/3-4/datasets/IS", "title": "Immunogenicity Specimen Assessments", "type": "SDTM Dataset"}, "parentProduct": {"href": "/mdr/sdtmig/3-4", "title": "Study Data Tabulation Model Implementation Guide: Human Clinical Trials", "type": "Implementation Guide"}, "priorVersion": {"href": "/mdr/sdtmig/3-3/datasets/IS/variables/ISORRES", "title": "Results or Findings in Original Units", "type": "SDTM Dataset Variable"}, "rootItem": {"href": "/mdr/root/sdtmig/datasets/IS/variables/ISORRES", "title": "Version-agnostic anchor resource for SDTMIG variable IS.ISORRES", "type": "Root Data Element"}, "self": {"href": "/mdr/sdtmig/3-4/datasets/IS/variables/ISORRES", "title": "Results or Findings in Original Units", "type": "SDTM Dataset Variable"}}, "core": "Exp", "description": "Result of the measurement or finding as originally received or collected.", "label": "Results or Findings in Original Units", "name": "ISORRES", "ordinal": "19", "role": "Result Qualifier", "simpleDatatype": "Char"}, {"_links": {"codelist": [{"href": "/mdr/root/ct/sdtmct/codelists/C71620", "title": "Version-agnostic anchor resource for codelist C71620", "type": "Root Value Domain"}], "modelClassVariable": {"href": "/mdr/sdtm/2-0/classes/Findings/variables/--ORRESU", "title": "Original Units", "type": "SDTM Class Variable"}, "parentDataset": {"href": "/mdr/sdtmig/3-4/datasets/IS", "title": "Immunogenicity Specimen Assessments", "type": "SDTM Dataset"}, "parentProduct": {"href": "/mdr/sdtmig/3-4", "title": "Study Data Tabulation Model Implementation Guide: Human Clinical Trials", "type": "Implementation Guide"}, "priorVersion": {"href": "/mdr/sdtmig/3-3/datasets/IS/variables/ISORRESU", "title": "Original Units", "type": "SDTM Dataset Variable"}, "rootItem": {"href": "/mdr/root/sdtmig/datasets/IS/variables/ISORRESU", "title": "Version-agnostic anchor resource for SDTMIG variable IS.ISORRESU", "type": "Root Data Element"}, "self": {"href": "/mdr/sdtmig/3-4/datasets/IS/variables/ISORRESU", "title": "Original Units", "type": "SDTM Dataset Variable"}}, "core": "Exp", "description": "Original units in which the data were collected. The unit for ISORRES. Examples: \"Index Value\", \"gpELISA\", \"unit/mL\".", "label": "Original Units", "name": "ISORRESU", "ordinal": "20", "role": "Variable Qualifier", "simpleDatatype": "Char"}, {"_links": {"modelClassVariable": {"href": "/mdr/sdtm/2-0/classes/Findings/variables/--ORNRLO", "title": "Normal Range Lower Limit-Original Units", "type": "SDTM Class Variable"}, "parentDataset": {"href": "/mdr/sdtmig/3-4/datasets/IS", "title": "Immunogenicity Specimen Assessments", "type": "SDTM Dataset"}, "parentProduct": {"href": "/mdr/sdtmig/3-4", "title": "Study Data Tabulation Model Implementation Guide: Human Clinical Trials", "type": "Implementation Guide"}, "rootItem": {"href": "/mdr/root/sdtmig/datasets/IS/variables/ISORNRLO", "title": "Version-agnostic anchor resource for SDTMIG variable IS.ISORNRLO", "type": "Root Data Element"}, "self": {"href": "/mdr/sdtmig/3-4/datasets/IS/variables/ISORNRLO", "title": "Reference Range Lower Limit in Orig Unit", "type": "SDTM Dataset Variable"}}, "core": "Exp", "description": "Lower end of reference range for continuous measurement in original units. Should be populated only for continuous results.", "label": "Reference Range Lower Limit in Orig Unit", "name": "ISORNRLO", "ordinal": "21", "role": "Variable Qualifier", "simpleDatatype": "Char"}, {"_links": {"modelClassVariable": {"href": "/mdr/sdtm/2-0/classes/Findings/variables/--ORNRHI", "title": "Normal Range Upper Limit-Original Units", "type": "SDTM Class Variable"}, "parentDataset": {"href": "/mdr/sdtmig/3-4/datasets/IS", "title": "Immunogenicity Specimen Assessments", "type": "SDTM Dataset"}, "parentProduct": {"href": "/mdr/sdtmig/3-4", "title": "Study Data Tabulation Model Implementation Guide: Human Clinical Trials", "type": "Implementation Guide"}, "rootItem": {"href": "/mdr/root/sdtmig/datasets/IS/variables/ISORNRHI", "title": "Version-agnostic anchor resource for SDTMIG variable IS.ISORNRHI", "type": "Root Data Element"}, "self": {"href": "/mdr/sdtmig/3-4/datasets/IS/variables/ISORNRHI", "title": "Reference Range Upper Limit in Orig Unit", "type": "SDTM Dataset Variable"}}, "core": "Exp", "description": "Upper end of reference range for continuous measurement in original units. Should be populated only for continuous results.", "label": "Reference Range Upper Limit in Orig Unit", "name": "ISORNRHI", "ordinal": "22", "role": "Variable Qualifier", "simpleDatatype": "Char"}, {"_links": {"modelClassVariable": {"href": "/mdr/sdtm/2-0/classes/Findings/variables/--STRESC", "title": "Result or Finding in Standard Format", "type": "SDTM Class Variable"}, "parentDataset": {"href": "/mdr/sdtmig/3-4/datasets/IS", "title": "Immunogenicity Specimen Assessments", "type": "SDTM Dataset"}, "parentProduct": {"href": "/mdr/sdtmig/3-4", "title": "Study Data Tabulation Model Implementation Guide: Human Clinical Trials", "type": "Implementation Guide"}, "priorVersion": {"href": "/mdr/sdtmig/3-3/datasets/IS/variables/ISSTRESC", "title": "Character Result/Finding in Std Format", "type": "SDTM Dataset Variable"}, "rootItem": {"href": "/mdr/root/sdtmig/datasets/IS/variables/ISSTRESC", "title": "Version-agnostic anchor resource for SDTMIG variable IS.ISSTRESC", "type": "Root Data Element"}, "self": {"href": "/mdr/sdtmig/3-4/datasets/IS/variables/ISSTRESC", "title": "Character Result/Finding in Std Format", "type": "SDTM Dataset Variable"}}, "core": "Exp", "description": "Contains the result value for all findings copied or derived from ISORRES, in a standard format or in standard units. ISSTRESC should store all results or findings in character format; if results are numeric, they should also be stored in numeric format in ISSTRESN.", "label": "Character Result/Finding in Std Format", "name": "ISSTRESC", "ordinal": "23", "role": "Result Qualifier", "simpleDatatype": "Char"}, {"_links": {"modelClassVariable": {"href": "/mdr/sdtm/2-0/classes/Findings/variables/--STRESN", "title": "Numeric Result/Finding in Standard Units", "type": "SDTM Class Variable"}, "parentDataset": {"href": "/mdr/sdtmig/3-4/datasets/IS", "title": "Immunogenicity Specimen Assessments", "type": "SDTM Dataset"}, "parentProduct": {"href": "/mdr/sdtmig/3-4", "title": "Study Data Tabulation Model Implementation Guide: Human Clinical Trials", "type": "Implementation Guide"}, "priorVersion": {"href": "/mdr/sdtmig/3-3/datasets/IS/variables/ISSTRESN", "title": "Numeric Results/Findings in Std. Units", "type": "SDTM Dataset Variable"}, "rootItem": {"href": "/mdr/root/sdtmig/datasets/IS/variables/ISSTRESN", "title": "Version-agnostic anchor resource for SDTMIG variable IS.ISSTRESN", "type": "Root Data Element"}, "self": {"href": "/mdr/sdtmig/3-4/datasets/IS/variables/ISSTRESN", "title": "Numeric Results/Findings in Std. Units", "type": "SDTM Dataset Variable"}}, "core": "Exp", "description": "Used for continuous or numeric results or findings in standard format; copied in numeric format from ISSTRESC. ISSTRESN should store all numeric test results or findings.", "label": "Numeric Results/Findings in Std. Units", "name": "ISSTRESN", "ordinal": "24", "role": "Result Qualifier", "simpleDatatype": "Num"}, {"_links": {"codelist": [{"href": "/mdr/root/ct/sdtmct/codelists/C71620", "title": "Version-agnostic anchor resource for codelist C71620", "type": "Root Value Domain"}], "modelClassVariable": {"href": "/mdr/sdtm/2-0/classes/Findings/variables/--STRESU", "title": "Standard Units", "type": "SDTM Class Variable"}, "parentDataset": {"href": "/mdr/sdtmig/3-4/datasets/IS", "title": "Immunogenicity Specimen Assessments", "type": "SDTM Dataset"}, "parentProduct": {"href": "/mdr/sdtmig/3-4", "title": "Study Data Tabulation Model Implementation Guide: Human Clinical Trials", "type": "Implementation Guide"}, "priorVersion": {"href": "/mdr/sdtmig/3-3/datasets/IS/variables/ISSTRESU", "title": "Standard Units", "type": "SDTM Dataset Variable"}, "rootItem": {"href": "/mdr/root/sdtmig/datasets/IS/variables/ISSTRESU", "title": "Version-agnostic anchor resource for SDTMIG variable IS.ISSTRESU", "type": "Root Data Element"}, "self": {"href": "/mdr/sdtmig/3-4/datasets/IS/variables/ISSTRESU", "title": "Standard Units", "type": "SDTM Dataset Variable"}}, "core": "Exp", "description": "Standardized units used for ISSTRESC and ISSTRESN. Examples: \"Index Value\", \"gpELISA\", \"unit/mL\".", "label": "Standard Units", "name": "ISSTRESU", "ordinal": "25", "role": "Variable Qualifier", "simpleDatatype": "Char"}, {"_links": {"modelClassVariable": {"href": "/mdr/sdtm/2-0/classes/Findings/variables/--STNRLO", "title": "Normal Range Lower Limit-Standard Units", "type": "SDTM Class Variable"}, "parentDataset": {"href": "/mdr/sdtmig/3-4/datasets/IS", "title": "Immunogenicity Specimen Assessments", "type": "SDTM Dataset"}, "parentProduct": {"href": "/mdr/sdtmig/3-4", "title": "Study Data Tabulation Model Implementation Guide: Human Clinical Trials", "type": "Implementation Guide"}, "rootItem": {"href": "/mdr/root/sdtmig/datasets/IS/variables/ISSTNRLO", "title": "Version-agnostic anchor resource for SDTMIG variable IS.ISSTNRLO", "type": "Root Data Element"}, "self": {"href": "/mdr/sdtmig/3-4/datasets/IS/variables/ISSTNRLO", "title": "Reference Range Lower Limit-Std Units", "type": "SDTM Dataset Variable"}}, "core": "Exp", "description": "Lower end of reference range for continuous measurements for ISSTRESC/ISSTRESN in standardized units. Should be populated only for continuous results.", "label": "Reference Range Lower Limit-Std Units", "name": "ISSTNRLO", "ordinal": "26", "role": "Variable Qualifier", "simpleDatatype": "Num"}, {"_links": {"modelClassVariable": {"href": "/mdr/sdtm/2-0/classes/Findings/variables/--STNRHI", "title": "Normal Range Upper Limit-Standard Units", "type": "SDTM Class Variable"}, "parentDataset": {"href": "/mdr/sdtmig/3-4/datasets/IS", "title": "Immunogenicity Specimen Assessments", "type": "SDTM Dataset"}, "parentProduct": {"href": "/mdr/sdtmig/3-4", "title": "Study Data Tabulation Model Implementation Guide: Human Clinical Trials", "type": "Implementation Guide"}, "rootItem": {"href": "/mdr/root/sdtmig/datasets/IS/variables/ISSTNRHI", "title": "Version-agnostic anchor resource for SDTMIG variable IS.ISSTNRHI", "type": "Root Data Element"}, "self": {"href": "/mdr/sdtmig/3-4/datasets/IS/variables/ISSTNRHI", "title": "Reference Range Upper Limit-Std Units", "type": "SDTM Dataset Variable"}}, "core": "Exp", "description": "Upper end of reference range for continuous measurements in standardized units. Should be populated only for continuous results.", "label": "Reference Range Upper Limit-Std Units", "name": "ISSTNRHI", "ordinal": "27", "role": "Variable Qualifier", "simpleDatatype": "Num"}, {"_links": {"modelClassVariable": {"href": "/mdr/sdtm/2-0/classes/Findings/variables/--STNRC", "title": "Normal Range for Character Results", "type": "SDTM Class Variable"}, "parentDataset": {"href": "/mdr/sdtmig/3-4/datasets/IS", "title": "Immunogenicity Specimen Assessments", "type": "SDTM Dataset"}, "parentProduct": {"href": "/mdr/sdtmig/3-4", "title": "Study Data Tabulation Model Implementation Guide: Human Clinical Trials", "type": "Implementation Guide"}, "rootItem": {"href": "/mdr/root/sdtmig/datasets/IS/variables/ISSTNRC", "title": "Version-agnostic anchor resource for SDTMIG variable IS.ISSTNRC", "type": "Root Data Element"}, "self": {"href": "/mdr/sdtmig/3-4/datasets/IS/variables/ISSTNRC", "title": "Reference Range for Char Rslt-Std Units", "type": "SDTM Dataset Variable"}}, "core": "Perm", "description": "For normal range values that are character in ordinal scale or if categorical ranges were supplied. Examples: \"-1 to +1\", \"NEGATIVE TO TRACE\".", "label": "Reference Range for Char Rslt-Std Units", "name": "ISSTNRC", "ordinal": "28", "role": "Variable Qualifier", "simpleDatatype": "Char"}, {"_links": {"codelist": [{"href": "/mdr/root/ct/sdtmct/codelists/C78736", "title": "Version-agnostic anchor resource for codelist C78736", "type": "Root Value Domain"}], "modelClassVariable": {"href": "/mdr/sdtm/2-0/classes/Findings/variables/--NRIND", "title": "Normal/Reference Range Indicator", "type": "SDTM Class Variable"}, "parentDataset": {"href": "/mdr/sdtmig/3-4/datasets/IS", "title": "Immunogenicity Specimen Assessments", "type": "SDTM Dataset"}, "parentProduct": {"href": "/mdr/sdtmig/3-4", "title": "Study Data Tabulation Model Implementation Guide: Human Clinical Trials", "type": "Implementation Guide"}, "rootItem": {"href": "/mdr/root/sdtmig/datasets/IS/variables/ISNRIND", "title": "Version-agnostic anchor resource for SDTMIG variable IS.ISNRIND", "type": "Root Data Element"}, "self": {"href": "/mdr/sdtmig/3-4/datasets/IS/variables/ISNRIND", "title": "Reference Range Indicator", "type": "SDTM Dataset Variable"}}, "core": "Exp", "description": "Indicates where the value falls with respect to reference range defined by ISORNRLO and ISORNRHI, ISSTNRLO and ISSTNRHI, or by ISSTNRC. Examples: \"NORMAL\", \"ABNORMAL\", \"HIGH\", \"LOW\". \\n Sponsors should specify in the study metadata (Comments column in the Define-XML document) whether ISNRIND refers to the original or standard reference ranges and results. \\n Should not be used to indicate clinical significance.", "label": "Reference Range Indicator", "name": "ISNRIND", "ordinal": "29", "role": "Variable Qualifier", "simpleDatatype": "Char"}, {"_links": {"codelist": [{"href": "/mdr/root/ct/sdtmct/codelists/C66789", "title": "Version-agnostic anchor resource for codelist C66789", "type": "Root Value Domain"}], "modelClassVariable": {"href": "/mdr/sdtm/2-0/classes/Findings/variables/--STAT", "title": "Completion Status", "type": "SDTM Class Variable"}, "parentDataset": {"href": "/mdr/sdtmig/3-4/datasets/IS", "title": "Immunogenicity Specimen Assessments", "type": "SDTM Dataset"}, "parentProduct": {"href": "/mdr/sdtmig/3-4", "title": "Study Data Tabulation Model Implementation Guide: Human Clinical Trials", "type": "Implementation Guide"}, "priorVersion": {"href": "/mdr/sdtmig/3-3/datasets/IS/variables/ISSTAT", "title": "Completion Status", "type": "SDTM Dataset Variable"}, "rootItem": {"href": "/mdr/root/sdtmig/datasets/IS/variables/ISSTAT", "title": "Version-agnostic anchor resource for SDTMIG variable IS.ISSTAT", "type": "Root Data Element"}, "self": {"href": "/mdr/sdtmig/3-4/datasets/IS/variables/ISSTAT", "title": "Completion Status", "type": "SDTM Dataset Variable"}}, "core": "Perm", "description": "Used to indicate a test was not done. Should be null if a result exists in ISORRES.", "label": "Completion Status", "name": "ISSTAT", "ordinal": "30", "role": "Record Qualifier", "simpleDatatype": "Char"}, {"_links": {"modelClassVariable": {"href": "/mdr/sdtm/2-0/classes/Findings/variables/--REASND", "title": "Reason Not Done", "type": "SDTM Class Variable"}, "parentDataset": {"href": "/mdr/sdtmig/3-4/datasets/IS", "title": "Immunogenicity Specimen Assessments", "type": "SDTM Dataset"}, "parentProduct": {"href": "/mdr/sdtmig/3-4", "title": "Study Data Tabulation Model Implementation Guide: Human Clinical Trials", "type": "Implementation Guide"}, "priorVersion": {"href": "/mdr/sdtmig/3-3/datasets/IS/variables/ISREASND", "title": "Reason Not Done", "type": "SDTM Dataset Variable"}, "rootItem": {"href": "/mdr/root/sdtmig/datasets/IS/variables/ISREASND", "title": "Version-agnostic anchor resource for SDTMIG variable IS.ISREASND", "type": "Root Data Element"}, "self": {"href": "/mdr/sdtmig/3-4/datasets/IS/variables/ISREASND", "title": "Reason Not Done", "type": "SDTM Dataset Variable"}}, "core": "Perm", "description": "Describes why a measurement or test was not performed. Used in conjunction with ISSTAT when value is \"NOT DONE\".", "label": "Reason Not Done", "name": "ISREASND", "ordinal": "31", "role": "Record Qualifier", "simpleDatatype": "Char"}, {"_links": {"modelClassVariable": {"href": "/mdr/sdtm/2-0/classes/Findings/variables/--NAM", "title": "Laboratory/Vendor Name", "type": "SDTM Class Variable"}, "parentDataset": {"href": "/mdr/sdtmig/3-4/datasets/IS", "title": "Immunogenicity Specimen Assessments", "type": "SDTM Dataset"}, "parentProduct": {"href": "/mdr/sdtmig/3-4", "title": "Study Data Tabulation Model Implementation Guide: Human Clinical Trials", "type": "Implementation Guide"}, "priorVersion": {"href": "/mdr/sdtmig/3-3/datasets/IS/variables/ISNAM", "title": "Vendor Name", "type": "SDTM Dataset Variable"}, "rootItem": {"href": "/mdr/root/sdtmig/datasets/IS/variables/ISNAM", "title": "Version-agnostic anchor resource for SDTMIG variable IS.ISNAM", "type": "Root Data Element"}, "self": {"href": "/mdr/sdtmig/3-4/datasets/IS/variables/ISNAM", "title": "Vendor Name", "type": "SDTM Dataset Variable"}}, "core": "Perm", "description": "Name or identifier of the laboratory or vendor who provided the test results.", "label": "Vendor Name", "name": "ISNAM", "ordinal": "32", "role": "Record Qualifier", "simpleDatatype": "Char"}, {"_links": {"codelist": [{"href": "/mdr/root/ct/sdtmct/codelists/C78734", "title": "Version-agnostic anchor resource for codelist C78734", "type": "Root Value Domain"}], "modelClassVariable": {"href": "/mdr/sdtm/2-0/classes/Findings/variables/--SPEC", "title": "Specimen Material Type", "type": "SDTM Class Variable"}, "parentDataset": {"href": "/mdr/sdtmig/3-4/datasets/IS", "title": "Immunogenicity Specimen Assessments", "type": "SDTM Dataset"}, "parentProduct": {"href": "/mdr/sdtmig/3-4", "title": "Study Data Tabulation Model Implementation Guide: Human Clinical Trials", "type": "Implementation Guide"}, "priorVersion": {"href": "/mdr/sdtmig/3-3/datasets/IS/variables/ISSPEC", "title": "Specimen Type", "type": "SDTM Dataset Variable"}, "rootItem": {"href": "/mdr/root/sdtmig/datasets/IS/variables/ISSPEC", "title": "Version-agnostic anchor resource for SDTMIG variable IS.ISSPEC", "type": "Root Data Element"}, "self": {"href": "/mdr/sdtmig/3-4/datasets/IS/variables/ISSPEC", "title": "Specimen Type", "type": "SDTM Dataset Variable"}}, "core": "Perm", "description": "Defines the types of specimen used for a measurement. Example: \"SERUM\".", "label": "Specimen Type", "name": "ISSPEC", "ordinal": "33", "role": "Record Qualifier", "simpleDatatype": "Char"}, {"_links": {"codelist": [{"href": "/mdr/root/ct/sdtmct/codelists/C78733", "title": "Version-agnostic anchor resource for codelist C78733", "type": "Root Value Domain"}], "modelClassVariable": {"href": "/mdr/sdtm/2-0/classes/Findings/variables/--SPCCND", "title": "Specimen Condition", "type": "SDTM Class Variable"}, "parentDataset": {"href": "/mdr/sdtmig/3-4/datasets/IS", "title": "Immunogenicity Specimen Assessments", "type": "SDTM Dataset"}, "parentProduct": {"href": "/mdr/sdtmig/3-4", "title": "Study Data Tabulation Model Implementation Guide: Human Clinical Trials", "type": "Implementation Guide"}, "rootItem": {"href": "/mdr/root/sdtmig/datasets/IS/variables/ISSPCCND", "title": "Version-agnostic anchor resource for SDTMIG variable IS.ISSPCCND", "type": "Root Data Element"}, "self": {"href": "/mdr/sdtmig/3-4/datasets/IS/variables/ISSPCCND", "title": "Specimen Condition", "type": "SDTM Dataset Variable"}}, "core": "Perm", "description": "Free or standardized text describing the condition of the specimen. Examples: \"HEMOLYZED\", \"ICTERIC\", \"LIPEMIC\".", "label": "Specimen Condition", "name": "ISSPCCND", "ordinal": "34", "role": "Record Qualifier", "simpleDatatype": "Char"}, {"_links": {"codelist": [{"href": "/mdr/root/ct/sdtmct/codelists/C66742", "title": "Version-agnostic anchor resource for codelist C66742", "type": "Root Value Domain"}], "modelClassVariable": {"href": "/mdr/sdtm/2-0/classes/Findings/variables/--SPCUFL", "title": "Specimen Usability for the Test", "type": "SDTM Class Variable"}, "parentDataset": {"href": "/mdr/sdtmig/3-4/datasets/IS", "title": "Immunogenicity Specimen Assessments", "type": "SDTM Dataset"}, "parentProduct": {"href": "/mdr/sdtmig/3-4", "title": "Study Data Tabulation Model Implementation Guide: Human Clinical Trials", "type": "Implementation Guide"}, "rootItem": {"href": "/mdr/root/sdtmig/datasets/IS/variables/ISSPCUFL", "title": "Version-agnostic anchor resource for SDTMIG variable IS.ISSPCUFL", "type": "Root Data Element"}, "self": {"href": "/mdr/sdtmig/3-4/datasets/IS/variables/ISSPCUFL", "title": "Specimen Usability for the Test", "type": "SDTM Dataset Variable"}}, "core": "Perm", "description": "Describes the usability of the specimen for the test. The value will be \"N\" if the specimen is not usable, and null if the specimen is usable.", "label": "Specimen Usability for the Test", "name": "ISSPCUFL", "ordinal": "35", "role": "Record Qualifier", "simpleDatatype": "Char"}, {"_links": {"codelist": [{"href": "/mdr/root/ct/sdtmct/codelists/C85492", "title": "Version-agnostic anchor resource for codelist C85492", "type": "Root Value Domain"}], "modelClassVariable": {"href": "/mdr/sdtm/2-0/classes/Findings/variables/--METHOD", "title": "Method of Test or Examination", "type": "SDTM Class Variable"}, "parentDataset": {"href": "/mdr/sdtmig/3-4/datasets/IS", "title": "Immunogenicity Specimen Assessments", "type": "SDTM Dataset"}, "parentProduct": {"href": "/mdr/sdtmig/3-4", "title": "Study Data Tabulation Model Implementation Guide: Human Clinical Trials", "type": "Implementation Guide"}, "priorVersion": {"href": "/mdr/sdtmig/3-3/datasets/IS/variables/ISMETHOD", "title": "Method of Test or Examination", "type": "SDTM Dataset Variable"}, "rootItem": {"href": "/mdr/root/sdtmig/datasets/IS/variables/ISMETHOD", "title": "Version-agnostic anchor resource for SDTMIG variable IS.ISMETHOD", "type": "Root Data Element"}, "self": {"href": "/mdr/sdtmig/3-4/datasets/IS/variables/ISMETHOD", "title": "Method of Test or Examination", "type": "SDTM Dataset Variable"}}, "core": "Perm", "description": "Method of the test or examination. Examples: \"ELISA\", \"ELISPOT\".", "label": "Method of Test or Examination", "name": "ISMETHOD", "ordinal": "36", "role": "Record Qualifier", "simpleDatatype": "Char"}, {"_links": {"codelist": [{"href": "/mdr/root/ct/sdtmct/codelists/C66742", "title": "Version-agnostic anchor resource for codelist C66742", "type": "Root Value Domain"}], "modelClassVariable": {"href": "/mdr/sdtm/2-0/classes/Findings/variables/--LOBXFL", "title": "Last Observation Before Exposure Flag", "type": "SDTM Class Variable"}, "parentDataset": {"href": "/mdr/sdtmig/3-4/datasets/IS", "title": "Immunogenicity Specimen Assessments", "type": "SDTM Dataset"}, "parentProduct": {"href": "/mdr/sdtmig/3-4", "title": "Study Data Tabulation Model Implementation Guide: Human Clinical Trials", "type": "Implementation Guide"}, "priorVersion": {"href": "/mdr/sdtmig/3-3/datasets/IS/variables/ISLOBXFL", "title": "Last Observation Before Exposure Flag", "type": "SDTM Dataset Variable"}, "rootItem": {"href": "/mdr/root/sdtmig/datasets/IS/variables/ISLOBXFL", "title": "Version-agnostic anchor resource for SDTMIG variable IS.ISLOBXFL", "type": "Root Data Element"}, "self": {"href": "/mdr/sdtmig/3-4/datasets/IS/variables/ISLOBXFL", "title": "Last Observation Before Exposure Flag", "type": "SDTM Dataset Variable"}}, "core": "Perm", "description": "Operationally derived indicator used to identify the last non-missing value prior to RFXSTDTC. The value should be \"Y\" or null.", "label": "Last Observation Before Exposure Flag", "name": "ISLOBXFL", "ordinal": "37", "role": "Record Qualifier", "simpleDatatype": "Char"}, {"_links": {"codelist": [{"href": "/mdr/root/ct/sdtmct/codelists/C66742", "title": "Version-agnostic anchor resource for codelist C66742", "type": "Root Value Domain"}], "modelClassVariable": {"href": "/mdr/sdtm/2-0/classes/Findings/variables/--BLFL", "title": "Baseline Flag", "type": "SDTM Class Variable"}, "parentDataset": {"href": "/mdr/sdtmig/3-4/datasets/IS", "title": "Immunogenicity Specimen Assessments", "type": "SDTM Dataset"}, "parentProduct": {"href": "/mdr/sdtmig/3-4", "title": "Study Data Tabulation Model Implementation Guide: Human Clinical Trials", "type": "Implementation Guide"}, "priorVersion": {"href": "/mdr/sdtmig/3-3/datasets/IS/variables/ISBLFL", "title": "Baseline Flag", "type": "SDTM Dataset Variable"}, "rootItem": {"href": "/mdr/root/sdtmig/datasets/IS/variables/ISBLFL", "title": "Version-agnostic anchor resource for SDTMIG variable IS.ISBLFL", "type": "Root Data Element"}, "self": {"href": "/mdr/sdtmig/3-4/datasets/IS/variables/ISBLFL", "title": "Baseline Flag", "type": "SDTM Dataset Variable"}}, "core": "Perm", "description": "Indicator used to identify a baseline value. Should be \"Y\" or null. Note that ISBLFL is retained for backward compatibility. The authoritative baseline for statistical analysis is in an ADaM dataset.", "label": "Baseline Flag", "name": "ISBLFL", "ordinal": "38", "role": "Record Qualifier", "simpleDatatype": "Char"}, {"_links": {"codelist": [{"href": "/mdr/root/ct/sdtmct/codelists/C66742", "title": "Version-agnostic anchor resource for codelist C66742", "type": "Root Value Domain"}], "modelClassVariable": {"href": "/mdr/sdtm/2-0/classes/Findings/variables/--DRVFL", "title": "Derived Flag", "type": "SDTM Class Variable"}, "parentDataset": {"href": "/mdr/sdtmig/3-4/datasets/IS", "title": "Immunogenicity Specimen Assessments", "type": "SDTM Dataset"}, "parentProduct": {"href": "/mdr/sdtmig/3-4", "title": "Study Data Tabulation Model Implementation Guide: Human Clinical Trials", "type": "Implementation Guide"}, "rootItem": {"href": "/mdr/root/sdtmig/datasets/IS/variables/ISDRVFL", "title": "Version-agnostic anchor resource for SDTMIG variable IS.ISDRVFL", "type": "Root Data Element"}, "self": {"href": "/mdr/sdtmig/3-4/datasets/IS/variables/ISDRVFL", "title": "Derived Flag", "type": "SDTM Dataset Variable"}}, "core": "Perm", "description": "Used to indicate a derived record. The value should be \"Y\" or null. Examples of records that might be derived for the submission datasets include those that represent the average of other records, do not come from the CRF, or are not as originally received or collected. If ISDRVFL=\"Y\", then ISORRES may be null, with ISSTRESC and (if numeric) ISSTRESN having the derived value.", "label": "Derived Flag", "name": "ISDRVFL", "ordinal": "39", "role": "Record Qualifier", "simpleDatatype": "Char"}, {"_links": {"modelClassVariable": {"href": "/mdr/sdtm/2-0/classes/Findings/variables/--LLOQ", "title": "Lower Limit of Quantitation", "type": "SDTM Class Variable"}, "parentDataset": {"href": "/mdr/sdtmig/3-4/datasets/IS", "title": "Immunogenicity Specimen Assessments", "type": "SDTM Dataset"}, "parentProduct": {"href": "/mdr/sdtmig/3-4", "title": "Study Data Tabulation Model Implementation Guide: Human Clinical Trials", "type": "Implementation Guide"}, "priorVersion": {"href": "/mdr/sdtmig/3-3/datasets/IS/variables/ISLLOQ", "title": "Lower Limit of Quantitation", "type": "SDTM Dataset Variable"}, "rootItem": {"href": "/mdr/root/sdtmig/datasets/IS/variables/ISLLOQ", "title": "Version-agnostic anchor resource for SDTMIG variable IS.ISLLOQ", "type": "Root Data Element"}, "self": {"href": "/mdr/sdtmig/3-4/datasets/IS/variables/ISLLOQ", "title": "Lower Limit of Quantitation", "type": "SDTM Dataset Variable"}}, "core": "Exp", "description": "Indicates the lower limit of quantitation for an assay. Units will be those used for ISSTRESU.", "label": "Lower Limit of Quantitation", "name": "ISLLOQ", "ordinal": "40", "role": "Variable Qualifier", "simpleDatatype": "Num"}, {"_links": {"modelClassVariable": {"href": "/mdr/sdtm/2-0/classes/GeneralObservations/variables/VISITNUM", "title": "Visit Number", "type": "SDTM Class Variable"}, "parentDataset": {"href": "/mdr/sdtmig/3-4/datasets/IS", "title": "Immunogenicity Specimen Assessments", "type": "SDTM Dataset"}, "parentProduct": {"href": "/mdr/sdtmig/3-4", "title": "Study Data Tabulation Model Implementation Guide: Human Clinical Trials", "type": "Implementation Guide"}, "priorVersion": {"href": "/mdr/sdtmig/3-3/datasets/IS/variables/VISITNUM", "title": "Visit Number", "type": "SDTM Dataset Variable"}, "rootItem": {"href": "/mdr/root/sdtmig/datasets/IS/variables/VISITNUM", "title": "Version-agnostic anchor resource for SDTMIG variable IS.VISITNUM", "type": "Root Data Element"}, "self": {"href": "/mdr/sdtmig/3-4/datasets/IS/variables/VISITNUM", "title": "Visit Number", "type": "SDTM Dataset Variable"}}, "core": "Exp", "description": "Clinical encounter number. Numeric version of VISIT, used for sorting.", "label": "Visit Number", "name": "VISITNUM", "ordinal": "41", "role": "Timing", "simpleDatatype": "Num"}, {"_links": {"modelClassVariable": {"href": "/mdr/sdtm/2-0/classes/GeneralObservations/variables/VISIT", "title": "Visit Name", "type": "SDTM Class Variable"}, "parentDataset": {"href": "/mdr/sdtmig/3-4/datasets/IS", "title": "Immunogenicity Specimen Assessments", "type": "SDTM Dataset"}, "parentProduct": {"href": "/mdr/sdtmig/3-4", "title": "Study Data Tabulation Model Implementation Guide: Human Clinical Trials", "type": "Implementation Guide"}, "priorVersion": {"href": "/mdr/sdtmig/3-3/datasets/IS/variables/VISIT", "title": "Visit Name", "type": "SDTM Dataset Variable"}, "rootItem": {"href": "/mdr/root/sdtmig/datasets/IS/variables/VISIT", "title": "Version-agnostic anchor resource for SDTMIG variable IS.VISIT", "type": "Root Data Element"}, "self": {"href": "/mdr/sdtmig/3-4/datasets/IS/variables/VISIT", "title": "Visit Name", "type": "SDTM Dataset Variable"}}, "core": "Perm", "description": "Protocol-defined description of a clinical encounter. May be used in addition to VISITNUM and/or VISITDY.", "label": "Visit Name", "name": "VISIT", "ordinal": "42", "role": "Timing", "simpleDatatype": "Char"}, {"_links": {"modelClassVariable": {"href": "/mdr/sdtm/2-0/classes/GeneralObservations/variables/VISITDY", "title": "Planned Study Day of Visit", "type": "SDTM Class Variable"}, "parentDataset": {"href": "/mdr/sdtmig/3-4/datasets/IS", "title": "Immunogenicity Specimen Assessments", "type": "SDTM Dataset"}, "parentProduct": {"href": "/mdr/sdtmig/3-4", "title": "Study Data Tabulation Model Implementation Guide: Human Clinical Trials", "type": "Implementation Guide"}, "priorVersion": {"href": "/mdr/sdtmig/3-3/datasets/IS/variables/VISITDY", "title": "Planned Study Day of Visit", "type": "SDTM Dataset Variable"}, "rootItem": {"href": "/mdr/root/sdtmig/datasets/IS/variables/VISITDY", "title": "Version-agnostic anchor resource for SDTMIG variable IS.VISITDY", "type": "Root Data Element"}, "self": {"href": "/mdr/sdtmig/3-4/datasets/IS/variables/VISITDY", "title": "Planned Study Day of Visit", "type": "SDTM Dataset Variable"}}, "core": "Perm", "description": "Planned study day of the visit based upon RFSTDTC in Demographics.", "label": "Planned Study Day of Visit", "name": "VISITDY", "ordinal": "43", "role": "Timing", "simpleDatatype": "Num"}, {"_links": {"modelClassVariable": {"href": "/mdr/sdtm/2-0/classes/GeneralObservations/variables/TAETORD", "title": "Planned Order of Element Within Arm", "type": "SDTM Class Variable"}, "parentDataset": {"href": "/mdr/sdtmig/3-4/datasets/IS", "title": "Immunogenicity Specimen Assessments", "type": "SDTM Dataset"}, "parentProduct": {"href": "/mdr/sdtmig/3-4", "title": "Study Data Tabulation Model Implementation Guide: Human Clinical Trials", "type": "Implementation Guide"}, "priorVersion": {"href": "/mdr/sdtmig/3-3/datasets/IS/variables/TAETORD", "title": "Planned Order of Element within Arm", "type": "SDTM Dataset Variable"}, "rootItem": {"href": "/mdr/root/sdtmig/datasets/IS/variables/TAETORD", "title": "Version-agnostic anchor resource for SDTMIG variable IS.TAETORD", "type": "Root Data Element"}, "self": {"href": "/mdr/sdtmig/3-4/datasets/IS/variables/TAETORD", "title": "Planned Order of Element within Arm", "type": "SDTM Dataset Variable"}}, "core": "Perm", "description": "Number that gives the planned order of the element within the arm.", "label": "Planned Order of Element within Arm", "name": "TAETORD", "ordinal": "44", "role": "Timing", "simpleDatatype": "Num"}, {"_links": {"codelist": [{"href": "/mdr/root/ct/sdtmct/codelists/C99079", "title": "Version-agnostic anchor resource for codelist C99079", "type": "Root Value Domain"}], "modelClassVariable": {"href": "/mdr/sdtm/2-0/classes/GeneralObservations/variables/EPOCH", "title": "Epoch", "type": "SDTM Class Variable"}, "parentDataset": {"href": "/mdr/sdtmig/3-4/datasets/IS", "title": "Immunogenicity Specimen Assessments", "type": "SDTM Dataset"}, "parentProduct": {"href": "/mdr/sdtmig/3-4", "title": "Study Data Tabulation Model Implementation Guide: Human Clinical Trials", "type": "Implementation Guide"}, "priorVersion": {"href": "/mdr/sdtmig/3-3/datasets/IS/variables/EPOCH", "title": "Epoch", "type": "SDTM Dataset Variable"}, "rootItem": {"href": "/mdr/root/sdtmig/datasets/IS/variables/EPOCH", "title": "Version-agnostic anchor resource for SDTMIG variable IS.EPOCH", "type": "Root Data Element"}, "self": {"href": "/mdr/sdtmig/3-4/datasets/IS/variables/EPOCH", "title": "Epoch", "type": "SDTM Dataset Variable"}}, "core": "Perm", "description": "Epoch associated with the start date/time of the observation, or the date/time of collection if start date/time is not collected.", "label": "Epoch", "name": "EPOCH", "ordinal": "45", "role": "Timing", "simpleDatatype": "Char"}, {"_links": {"modelClassVariable": {"href": "/mdr/sdtm/2-0/classes/GeneralObservations/variables/--DTC", "title": "Date/Time of Collection", "type": "SDTM Class Variable"}, "parentDataset": {"href": "/mdr/sdtmig/3-4/datasets/IS", "title": "Immunogenicity Specimen Assessments", "type": "SDTM Dataset"}, "parentProduct": {"href": "/mdr/sdtmig/3-4", "title": "Study Data Tabulation Model Implementation Guide: Human Clinical Trials", "type": "Implementation Guide"}, "priorVersion": {"href": "/mdr/sdtmig/3-3/datasets/IS/variables/ISDTC", "title": "Date/Time of Collection", "type": "SDTM Dataset Variable"}, "rootItem": {"href": "/mdr/root/sdtmig/datasets/IS/variables/ISDTC", "title": "Version-agnostic anchor resource for SDTMIG variable IS.ISDTC", "type": "Root Data Element"}, "self": {"href": "/mdr/sdtmig/3-4/datasets/IS/variables/ISDTC", "title": "Date/Time of Collection", "type": "SDTM Dataset Variable"}}, "core": "Exp", "describedValueDomain": "ISO 8601 datetime or interval", "description": "Collection date and time of an observation.", "label": "Date/Time of Collection", "name": "ISDTC", "ordinal": "46", "role": "Timing", "simpleDatatype": "Char"}, {"_links": {"modelClassVariable": {"href": "/mdr/sdtm/2-0/classes/GeneralObservations/variables/--ENDTC", "title": "End Date/Time of Observation", "type": "SDTM Class Variable"}, "parentDataset": {"href": "/mdr/sdtmig/3-4/datasets/IS", "title": "Immunogenicity Specimen Assessments", "type": "SDTM Dataset"}, "parentProduct": {"href": "/mdr/sdtmig/3-4", "title": "Study Data Tabulation Model Implementation Guide: Human Clinical Trials", "type": "Implementation Guide"}, "rootItem": {"href": "/mdr/root/sdtmig/datasets/IS/variables/ISENDTC", "title": "Version-agnostic anchor resource for SDTMIG variable IS.ISENDTC", "type": "Root Data Element"}, "self": {"href": "/mdr/sdtmig/3-4/datasets/IS/variables/ISENDTC", "title": "End Date/Time of Specimen Collection", "type": "SDTM Dataset Variable"}}, "core": "Perm", "describedValueDomain": "ISO 8601 datetime or interval", "description": "End date/time of the observation.", "label": "End Date/Time of Specimen Collection", "name": "ISENDTC", "ordinal": "47", "role": "Timing", "simpleDatatype": "Char"}, {"_links": {"modelClassVariable": {"href": "/mdr/sdtm/2-0/classes/GeneralObservations/variables/--DY", "title": "Study Day of Visit/Collection/Exam", "type": "SDTM Class Variable"}, "parentDataset": {"href": "/mdr/sdtmig/3-4/datasets/IS", "title": "Immunogenicity Specimen Assessments", "type": "SDTM Dataset"}, "parentProduct": {"href": "/mdr/sdtmig/3-4", "title": "Study Data Tabulation Model Implementation Guide: Human Clinical Trials", "type": "Implementation Guide"}, "priorVersion": {"href": "/mdr/sdtmig/3-3/datasets/IS/variables/ISDY", "title": "Study Day of Visit/Collection/Exam", "type": "SDTM Dataset Variable"}, "rootItem": {"href": "/mdr/root/sdtmig/datasets/IS/variables/ISDY", "title": "Version-agnostic anchor resource for SDTMIG variable IS.ISDY", "type": "Root Data Element"}, "self": {"href": "/mdr/sdtmig/3-4/datasets/IS/variables/ISDY", "title": "Study Day of Visit/Collection/Exam", "type": "SDTM Dataset Variable"}}, "core": "Perm", "description": "Actual study day of visit/collection/exam expressed in integer days relative to sponsor-defined RFSTDTC in Demographics.", "label": "Study Day of Visit/Collection/Exam", "name": "ISDY", "ordinal": "48", "role": "Timing", "simpleDatatype": "Num"}, {"_links": {"modelClassVariable": {"href": "/mdr/sdtm/2-0/classes/GeneralObservations/variables/--ENDY", "title": "Study Day of End of Observation", "type": "SDTM Class Variable"}, "parentDataset": {"href": "/mdr/sdtmig/3-4/datasets/IS", "title": "Immunogenicity Specimen Assessments", "type": "SDTM Dataset"}, "parentProduct": {"href": "/mdr/sdtmig/3-4", "title": "Study Data Tabulation Model Implementation Guide: Human Clinical Trials", "type": "Implementation Guide"}, "rootItem": {"href": "/mdr/root/sdtmig/datasets/IS/variables/ISENDY", "title": "Version-agnostic anchor resource for SDTMIG variable IS.ISENDY", "type": "Root Data Element"}, "self": {"href": "/mdr/sdtmig/3-4/datasets/IS/variables/ISENDY", "title": "Study Day of End of Specimen Collection", "type": "SDTM Dataset Variable"}}, "core": "Perm", "description": "Actual study day of end of observation expressed in integer days relative to the sponsor-defined RFSTDTC in Demographics.", "label": "Study Day of End of Specimen Collection", "name": "ISENDY", "ordinal": "49", "role": "Timing", "simpleDatatype": "Num"}, {"_links": {"modelClassVariable": {"href": "/mdr/sdtm/2-0/classes/GeneralObservations/variables/--TPT", "title": "Planned Time Point Name", "type": "SDTM Class Variable"}, "parentDataset": {"href": "/mdr/sdtmig/3-4/datasets/IS", "title": "Immunogenicity Specimen Assessments", "type": "SDTM Dataset"}, "parentProduct": {"href": "/mdr/sdtmig/3-4", "title": "Study Data Tabulation Model Implementation Guide: Human Clinical Trials", "type": "Implementation Guide"}, "rootItem": {"href": "/mdr/root/sdtmig/datasets/IS/variables/ISTPT", "title": "Version-agnostic anchor resource for SDTMIG variable IS.ISTPT", "type": "Root Data Element"}, "self": {"href": "/mdr/sdtmig/3-4/datasets/IS/variables/ISTPT", "title": "Planned Time Point Name", "type": "SDTM Dataset Variable"}}, "core": "Perm", "description": "Text description of time when specimen should be taken. This may be represented as an elapsed time relative to a fixed reference point, such as time of last dose. See ISTPTNUM and ISTPTREF. Examples: \"Start\", \"5 min post\".", "label": "Planned Time Point Name", "name": "ISTPT", "ordinal": "50", "role": "Timing", "simpleDatatype": "Char"}, {"_links": {"modelClassVariable": {"href": "/mdr/sdtm/2-0/classes/GeneralObservations/variables/--TPTNUM", "title": "Planned Time Point Number", "type": "SDTM Class Variable"}, "parentDataset": {"href": "/mdr/sdtmig/3-4/datasets/IS", "title": "Immunogenicity Specimen Assessments", "type": "SDTM Dataset"}, "parentProduct": {"href": "/mdr/sdtmig/3-4", "title": "Study Data Tabulation Model Implementation Guide: Human Clinical Trials", "type": "Implementation Guide"}, "rootItem": {"href": "/mdr/root/sdtmig/datasets/IS/variables/ISTPTNUM", "title": "Version-agnostic anchor resource for SDTMIG variable IS.ISTPTNUM", "type": "Root Data Element"}, "self": {"href": "/mdr/sdtmig/3-4/datasets/IS/variables/ISTPTNUM", "title": "Planned Time Point Number", "type": "SDTM Dataset Variable"}}, "core": "Perm", "description": "Numerical version of ISTPT to aid in sorting.", "label": "Planned Time Point Number", "name": "ISTPTNUM", "ordinal": "51", "role": "Timing", "simpleDatatype": "Num"}, {"_links": {"modelClassVariable": {"href": "/mdr/sdtm/2-0/classes/GeneralObservations/variables/--ELTM", "title": "Planned Elapsed Time from Time Point Ref", "type": "SDTM Class Variable"}, "parentDataset": {"href": "/mdr/sdtmig/3-4/datasets/IS", "title": "Immunogenicity Specimen Assessments", "type": "SDTM Dataset"}, "parentProduct": {"href": "/mdr/sdtmig/3-4", "title": "Study Data Tabulation Model Implementation Guide: Human Clinical Trials", "type": "Implementation Guide"}, "rootItem": {"href": "/mdr/root/sdtmig/datasets/IS/variables/ISELTM", "title": "Version-agnostic anchor resource for SDTMIG variable IS.ISELTM", "type": "Root Data Element"}, "self": {"href": "/mdr/sdtmig/3-4/datasets/IS/variables/ISELTM", "title": "Planned Elapsed Time from Time Point Ref", "type": "SDTM Dataset Variable"}}, "core": "Perm", "describedValueDomain": "ISO 8601 duration", "description": "Planned elapsed time (in ISO 8601) relative to a planned fixed reference (ISTPTREF). This variable is useful where there are repetitive measures. Not a clock time or a date/time variable. Represented as ISO 8601 duration. Examples: \"-PT15M\" to represent the period of 15 minutes prior to the reference point indicated by ISTPTREF, \"PT8H\" to represent the period of 8 hours after the reference point indicated by ISTPTREF.", "label": "Planned Elapsed Time from Time Point Ref", "name": "ISELTM", "ordinal": "52", "role": "Timing", "simpleDatatype": "Char"}, {"_links": {"modelClassVariable": {"href": "/mdr/sdtm/2-0/classes/GeneralObservations/variables/--TPTREF", "title": "Time Point Reference", "type": "SDTM Class Variable"}, "parentDataset": {"href": "/mdr/sdtmig/3-4/datasets/IS", "title": "Immunogenicity Specimen Assessments", "type": "SDTM Dataset"}, "parentProduct": {"href": "/mdr/sdtmig/3-4", "title": "Study Data Tabulation Model Implementation Guide: Human Clinical Trials", "type": "Implementation Guide"}, "rootItem": {"href": "/mdr/root/sdtmig/datasets/IS/variables/ISTPTREF", "title": "Version-agnostic anchor resource for SDTMIG variable IS.ISTPTREF", "type": "Root Data Element"}, "self": {"href": "/mdr/sdtmig/3-4/datasets/IS/variables/ISTPTREF", "title": "Time Point Reference", "type": "SDTM Dataset Variable"}}, "core": "Perm", "description": "Name of the fixed reference point referred to by ISELTM, ISTPTNUM, and ISTPT. Examples: \"PREVIOUS DOSE\", \"PREVIOUS MEAL\".", "label": "Time Point Reference", "name": "ISTPTREF", "ordinal": "53", "role": "Timing", "simpleDatatype": "Char"}, {"_links": {"modelClassVariable": {"href": "/mdr/sdtm/2-0/classes/GeneralObservations/variables/--RFTDTC", "title": "Date/Time of Reference Time Point", "type": "SDTM Class Variable"}, "parentDataset": {"href": "/mdr/sdtmig/3-4/datasets/IS", "title": "Immunogenicity Specimen Assessments", "type": "SDTM Dataset"}, "parentProduct": {"href": "/mdr/sdtmig/3-4", "title": "Study Data Tabulation Model Implementation Guide: Human Clinical Trials", "type": "Implementation Guide"}, "rootItem": {"href": "/mdr/root/sdtmig/datasets/IS/variables/ISRFTDTC", "title": "Version-agnostic anchor resource for SDTMIG variable IS.ISRFTDTC", "type": "Root Data Element"}, "self": {"href": "/mdr/sdtmig/3-4/datasets/IS/variables/ISRFTDTC", "title": "Date/Time of Reference Time Point", "type": "SDTM Dataset Variable"}}, "core": "Perm", "describedValueDomain": "ISO 8601 datetime or interval", "description": "Date/time of the reference time point, ISTPTREF.", "label": "Date/Time of Reference Time Point", "name": "ISRFTDTC", "ordinal": "54", "role": "Timing", "simpleDatatype": "Char"}], "description": "A findings domain for assessments of antigen induced humoral or cell-mediated immune response in the subject.", "label": "Immunogenicity Specimen Assessments", "name": "IS", "ordinal": "23"}
