{"_links": {"parentClass": {"href": "/mdr/sdtmig/3-4/classes/Interventions", "title": "Interventions", "type": "Class"}, "parentProduct": {"href": "/mdr/sdtmig/3-4", "title": "Study Data Tabulation Model Implementation Guide: Human Clinical Trials", "type": "Implementation Guide"}, "priorVersion": {"href": "/mdr/sdtmig/3-3/datasets/SU", "title": "Substance Use", "type": "SDTM Dataset"}, "self": {"href": "/mdr/sdtmig/3-4/datasets/SU", "title": "Substance Use", "type": "SDTM Dataset"}}, "datasetStructure": "One record per substance type per reported occurrence per subject", "datasetVariables": [{"_links": {"modelClassVariable": {"href": "/mdr/sdtm/2-0/classes/GeneralObservations/variables/STUDYID", "title": "Study Identifier", "type": "SDTM Class Variable"}, "parentDataset": {"href": "/mdr/sdtmig/3-4/datasets/SU", "title": "Substance Use", "type": "SDTM Dataset"}, "parentProduct": {"href": "/mdr/sdtmig/3-4", "title": "Study Data Tabulation Model Implementation Guide: Human Clinical Trials", "type": "Implementation Guide"}, "priorVersion": {"href": "/mdr/sdtmig/3-3/datasets/SU/variables/STUDYID", "title": "Study Identifier", "type": "SDTM Dataset Variable"}, "rootItem": {"href": "/mdr/root/sdtmig/datasets/SU/variables/STUDYID", "title": "Version-agnostic anchor resource for SDTMIG variable SU.STUDYID", "type": "Root Data Element"}, "self": {"href": "/mdr/sdtmig/3-4/datasets/SU/variables/STUDYID", "title": "Study Identifier", "type": "SDTM Dataset Variable"}}, "core": "Req", "description": "Unique identifier for a study.", "label": "Study Identifier", "name": "STUDYID", "ordinal": "1", "role": "Identifier", "simpleDatatype": "Char"}, {"_links": {"modelClassVariable": {"href": "/mdr/sdtm/2-0/classes/GeneralObservations/variables/DOMAIN", "title": "Domain Abbreviation", "type": "SDTM Class Variable"}, "parentDataset": {"href": "/mdr/sdtmig/3-4/datasets/SU", "title": "Substance Use", "type": "SDTM Dataset"}, "parentProduct": {"href": "/mdr/sdtmig/3-4", "title": "Study Data Tabulation Model Implementation Guide: Human Clinical Trials", "type": "Implementation Guide"}, "priorVersion": {"href": "/mdr/sdtmig/3-3/datasets/SU/variables/DOMAIN", "title": "Domain Abbreviation", "type": "SDTM Dataset Variable"}, "rootItem": {"href": "/mdr/root/sdtmig/datasets/SU/variables/DOMAIN", "title": "Version-agnostic anchor resource for SDTMIG variable SU.DOMAIN", "type": "Root Data Element"}, "self": {"href": "/mdr/sdtmig/3-4/datasets/SU/variables/DOMAIN", "title": "Domain Abbreviation", "type": "SDTM Dataset Variable"}}, "core": "Req", "description": "Two-character abbreviation for the domain.", "label": "Domain Abbreviation", "name": "DOMAIN", "ordinal": "2", "role": "Identifier", "simpleDatatype": "Char", "valueList": ["SU"]}, {"_links": {"modelClassVariable": {"href": "/mdr/sdtm/2-0/classes/GeneralObservations/variables/USUBJID", "title": "Unique Subject Identifier", "type": "SDTM Class Variable"}, "parentDataset": {"href": "/mdr/sdtmig/3-4/datasets/SU", "title": "Substance Use", "type": "SDTM Dataset"}, "parentProduct": {"href": "/mdr/sdtmig/3-4", "title": "Study Data Tabulation Model Implementation Guide: Human Clinical Trials", "type": "Implementation Guide"}, "priorVersion": {"href": "/mdr/sdtmig/3-3/datasets/SU/variables/USUBJID", "title": "Unique Subject Identifier", "type": "SDTM Dataset Variable"}, "rootItem": {"href": "/mdr/root/sdtmig/datasets/SU/variables/USUBJID", "title": "Version-agnostic anchor resource for SDTMIG variable SU.USUBJID", "type": "Root Data Element"}, "self": {"href": "/mdr/sdtmig/3-4/datasets/SU/variables/USUBJID", "title": "Unique Subject Identifier", "type": "SDTM Dataset Variable"}}, "core": "Req", "description": "Identifier used to uniquely identify a subject across all studies for all applications or submissions involving the product.", "label": "Unique Subject Identifier", "name": "USUBJID", "ordinal": "3", "role": "Identifier", "simpleDatatype": "Char"}, {"_links": {"modelClassVariable": {"href": "/mdr/sdtm/2-0/classes/GeneralObservations/variables/--SEQ", "title": "Sequence Number", "type": "SDTM Class Variable"}, "parentDataset": {"href": "/mdr/sdtmig/3-4/datasets/SU", "title": "Substance Use", "type": "SDTM Dataset"}, "parentProduct": {"href": "/mdr/sdtmig/3-4", "title": "Study Data Tabulation Model Implementation Guide: Human Clinical Trials", "type": "Implementation Guide"}, "priorVersion": {"href": "/mdr/sdtmig/3-3/datasets/SU/variables/SUSEQ", "title": "Sequence Number", "type": "SDTM Dataset Variable"}, "rootItem": {"href": "/mdr/root/sdtmig/datasets/SU/variables/SUSEQ", "title": "Version-agnostic anchor resource for SDTMIG variable SU.SUSEQ", "type": "Root Data Element"}, "self": {"href": "/mdr/sdtmig/3-4/datasets/SU/variables/SUSEQ", "title": "Sequence Number", "type": "SDTM Dataset Variable"}}, "core": "Req", "description": "Sequence number given to ensure uniqueness of subject records within a domain. May be any valid number.", "label": "Sequence Number", "name": "SUSEQ", "ordinal": "4", "role": "Identifier", "simpleDatatype": "Num"}, {"_links": {"modelClassVariable": {"href": "/mdr/sdtm/2-0/classes/GeneralObservations/variables/--GRPID", "title": "Group ID", "type": "SDTM Class Variable"}, "parentDataset": {"href": "/mdr/sdtmig/3-4/datasets/SU", "title": "Substance Use", "type": "SDTM Dataset"}, "parentProduct": {"href": "/mdr/sdtmig/3-4", "title": "Study Data Tabulation Model Implementation Guide: Human Clinical Trials", "type": "Implementation Guide"}, "priorVersion": {"href": "/mdr/sdtmig/3-3/datasets/SU/variables/SUGRPID", "title": "Group ID", "type": "SDTM Dataset Variable"}, "rootItem": {"href": "/mdr/root/sdtmig/datasets/SU/variables/SUGRPID", "title": "Version-agnostic anchor resource for SDTMIG variable SU.SUGRPID", "type": "Root Data Element"}, "self": {"href": "/mdr/sdtmig/3-4/datasets/SU/variables/SUGRPID", "title": "Group ID", "type": "SDTM Dataset Variable"}}, "core": "Perm", "description": "Used to tie together a block of related records in a single domain for a subject.", "label": "Group ID", "name": "SUGRPID", "ordinal": "5", "role": "Identifier", "simpleDatatype": "Char"}, {"_links": {"modelClassVariable": {"href": "/mdr/sdtm/2-0/classes/GeneralObservations/variables/--SPID", "title": "Sponsor-Defined Identifier", "type": "SDTM Class Variable"}, "parentDataset": {"href": "/mdr/sdtmig/3-4/datasets/SU", "title": "Substance Use", "type": "SDTM Dataset"}, "parentProduct": {"href": "/mdr/sdtmig/3-4", "title": "Study Data Tabulation Model Implementation Guide: Human Clinical Trials", "type": "Implementation Guide"}, "priorVersion": {"href": "/mdr/sdtmig/3-3/datasets/SU/variables/SUSPID", "title": "Sponsor-Defined Identifier", "type": "SDTM Dataset Variable"}, "rootItem": {"href": "/mdr/root/sdtmig/datasets/SU/variables/SUSPID", "title": "Version-agnostic anchor resource for SDTMIG variable SU.SUSPID", "type": "Root Data Element"}, "self": {"href": "/mdr/sdtmig/3-4/datasets/SU/variables/SUSPID", "title": "Sponsor-Defined Identifier", "type": "SDTM Dataset Variable"}}, "core": "Perm", "description": "Sponsor-defined reference number. May be preprinted on the CRF as an explicit line identifier or defined in the sponsor's operational database. Example: Line number on a Tobacco & Alcohol Use CRF page.", "label": "Sponsor-Defined Identifier", "name": "SUSPID", "ordinal": "6", "role": "Identifier", "simpleDatatype": "Char"}, {"_links": {"modelClassVariable": {"href": "/mdr/sdtm/2-0/classes/Interventions/variables/--TRT", "title": "Name of Treatment", "type": "SDTM Class Variable"}, "parentDataset": {"href": "/mdr/sdtmig/3-4/datasets/SU", "title": "Substance Use", "type": "SDTM Dataset"}, "parentProduct": {"href": "/mdr/sdtmig/3-4", "title": "Study Data Tabulation Model Implementation Guide: Human Clinical Trials", "type": "Implementation Guide"}, "priorVersion": {"href": "/mdr/sdtmig/3-3/datasets/SU/variables/SUTRT", "title": "Reported Name of Substance", "type": "SDTM Dataset Variable"}, "rootItem": {"href": "/mdr/root/sdtmig/datasets/SU/variables/SUTRT", "title": "Version-agnostic anchor resource for SDTMIG variable SU.SUTRT", "type": "Root Data Element"}, "self": {"href": "/mdr/sdtmig/3-4/datasets/SU/variables/SUTRT", "title": "Reported Name of Substance", "type": "SDTM Dataset Variable"}}, "core": "Req", "description": "Substance name. Examples: \"CIGARETTES\", \"COFFEE\".", "label": "Reported Name of Substance", "name": "SUTRT", "ordinal": "7", "role": "Topic", "simpleDatatype": "Char"}, {"_links": {"modelClassVariable": {"href": "/mdr/sdtm/2-0/classes/Interventions/variables/--MODIFY", "title": "Modified Treatment Name", "type": "SDTM Class Variable"}, "parentDataset": {"href": "/mdr/sdtmig/3-4/datasets/SU", "title": "Substance Use", "type": "SDTM Dataset"}, "parentProduct": {"href": "/mdr/sdtmig/3-4", "title": "Study Data Tabulation Model Implementation Guide: Human Clinical Trials", "type": "Implementation Guide"}, "priorVersion": {"href": "/mdr/sdtmig/3-3/datasets/SU/variables/SUMODIFY", "title": "Modified Substance Name", "type": "SDTM Dataset Variable"}, "rootItem": {"href": "/mdr/root/sdtmig/datasets/SU/variables/SUMODIFY", "title": "Version-agnostic anchor resource for SDTMIG variable SU.SUMODIFY", "type": "Root Data Element"}, "self": {"href": "/mdr/sdtmig/3-4/datasets/SU/variables/SUMODIFY", "title": "Modified Substance Name", "type": "SDTM Dataset Variable"}}, "core": "Perm", "description": "If SUTRT is modified, then the modified text is placed here.", "label": "Modified Substance Name", "name": "SUMODIFY", "ordinal": "8", "role": "Synonym Qualifier", "simpleDatatype": "Char"}, {"_links": {"modelClassVariable": {"href": "/mdr/sdtm/2-0/classes/Interventions/variables/--DECOD", "title": "Standardized Treatment Name", "type": "SDTM Class Variable"}, "parentDataset": {"href": "/mdr/sdtmig/3-4/datasets/SU", "title": "Substance Use", "type": "SDTM Dataset"}, "parentProduct": {"href": "/mdr/sdtmig/3-4", "title": "Study Data Tabulation Model Implementation Guide: Human Clinical Trials", "type": "Implementation Guide"}, "priorVersion": {"href": "/mdr/sdtmig/3-3/datasets/SU/variables/SUDECOD", "title": "Standardized Substance Name", "type": "SDTM Dataset Variable"}, "rootItem": {"href": "/mdr/root/sdtmig/datasets/SU/variables/SUDECOD", "title": "Version-agnostic anchor resource for SDTMIG variable SU.SUDECOD", "type": "Root Data Element"}, "self": {"href": "/mdr/sdtmig/3-4/datasets/SU/variables/SUDECOD", "title": "Standardized Substance Name", "type": "SDTM Dataset Variable"}}, "core": "Perm", "description": "Standardized or dictionary-derived text description of SUTRT or SUMODIFY if the sponsor chooses to code the substance use. The sponsor is expected to provide the dictionary name and version used to map the terms utilizing the external codelist element in the Define-XML document.", "label": "Standardized Substance Name", "name": "SUDECOD", "ordinal": "9", "role": "Synonym Qualifier", "simpleDatatype": "Char"}, {"_links": {"modelClassVariable": {"href": "/mdr/sdtm/2-0/classes/Interventions/variables/--CAT", "title": "Category", "type": "SDTM Class Variable"}, "parentDataset": {"href": "/mdr/sdtmig/3-4/datasets/SU", "title": "Substance Use", "type": "SDTM Dataset"}, "parentProduct": {"href": "/mdr/sdtmig/3-4", "title": "Study Data Tabulation Model Implementation Guide: Human Clinical Trials", "type": "Implementation Guide"}, "priorVersion": {"href": "/mdr/sdtmig/3-3/datasets/SU/variables/SUCAT", "title": "Category for Substance Use", "type": "SDTM Dataset Variable"}, "rootItem": {"href": "/mdr/root/sdtmig/datasets/SU/variables/SUCAT", "title": "Version-agnostic anchor resource for SDTMIG variable SU.SUCAT", "type": "Root Data Element"}, "self": {"href": "/mdr/sdtmig/3-4/datasets/SU/variables/SUCAT", "title": "Category for Substance Use", "type": "SDTM Dataset Variable"}}, "core": "Perm", "description": "Used to define a category of related records. Examples: \"TOBACCO\", \"ALCOHOL\", or \"CAFFEINE\".", "label": "Category for Substance Use", "name": "SUCAT", "ordinal": "10", "role": "Grouping Qualifier", "simpleDatatype": "Char"}, {"_links": {"modelClassVariable": {"href": "/mdr/sdtm/2-0/classes/Interventions/variables/--SCAT", "title": "Subcategory", "type": "SDTM Class Variable"}, "parentDataset": {"href": "/mdr/sdtmig/3-4/datasets/SU", "title": "Substance Use", "type": "SDTM Dataset"}, "parentProduct": {"href": "/mdr/sdtmig/3-4", "title": "Study Data Tabulation Model Implementation Guide: Human Clinical Trials", "type": "Implementation Guide"}, "priorVersion": {"href": "/mdr/sdtmig/3-3/datasets/SU/variables/SUSCAT", "title": "Subcategory for Substance Use", "type": "SDTM Dataset Variable"}, "rootItem": {"href": "/mdr/root/sdtmig/datasets/SU/variables/SUSCAT", "title": "Version-agnostic anchor resource for SDTMIG variable SU.SUSCAT", "type": "Root Data Element"}, "self": {"href": "/mdr/sdtmig/3-4/datasets/SU/variables/SUSCAT", "title": "Subcategory for Substance Use", "type": "SDTM Dataset Variable"}}, "core": "Perm", "description": "A further categorization of substance use. Examples: \"CIGARS\", \"CIGARETTES\", \"BEER\", \"WINE\".", "label": "Subcategory for Substance Use", "name": "SUSCAT", "ordinal": "11", "role": "Grouping Qualifier", "simpleDatatype": "Char"}, {"_links": {"codelist": [{"href": "/mdr/root/ct/sdtmct/codelists/C66742", "title": "Version-agnostic anchor resource for codelist C66742", "type": "Root Value Domain"}], "modelClassVariable": {"href": "/mdr/sdtm/2-0/classes/Interventions/variables/--PRESP", "title": "Pre-Specified", "type": "SDTM Class Variable"}, "parentDataset": {"href": "/mdr/sdtmig/3-4/datasets/SU", "title": "Substance Use", "type": "SDTM Dataset"}, "parentProduct": {"href": "/mdr/sdtmig/3-4", "title": "Study Data Tabulation Model Implementation Guide: Human Clinical Trials", "type": "Implementation Guide"}, "priorVersion": {"href": "/mdr/sdtmig/3-3/datasets/SU/variables/SUPRESP", "title": "SU Pre-Specified", "type": "SDTM Dataset Variable"}, "rootItem": {"href": "/mdr/root/sdtmig/datasets/SU/variables/SUPRESP", "title": "Version-agnostic anchor resource for SDTMIG variable SU.SUPRESP", "type": "Root Data Element"}, "self": {"href": "/mdr/sdtmig/3-4/datasets/SU/variables/SUPRESP", "title": "SU Pre-Specified", "type": "SDTM Dataset Variable"}}, "core": "Perm", "description": "Used to indicate whether (\"Y\"/null) information about the use of a specific substance was solicited on the CRF.", "label": "SU Pre-Specified", "name": "SUPRESP", "ordinal": "12", "role": "Variable Qualifier", "simpleDatatype": "Char"}, {"_links": {"codelist": [{"href": "/mdr/root/ct/sdtmct/codelists/C66742", "title": "Version-agnostic anchor resource for codelist C66742", "type": "Root Value Domain"}], "modelClassVariable": {"href": "/mdr/sdtm/2-0/classes/Interventions/variables/--OCCUR", "title": "Occurrence Indicator", "type": "SDTM Class Variable"}, "parentDataset": {"href": "/mdr/sdtmig/3-4/datasets/SU", "title": "Substance Use", "type": "SDTM Dataset"}, "parentProduct": {"href": "/mdr/sdtmig/3-4", "title": "Study Data Tabulation Model Implementation Guide: Human Clinical Trials", "type": "Implementation Guide"}, "priorVersion": {"href": "/mdr/sdtmig/3-3/datasets/SU/variables/SUOCCUR", "title": "SU Occurrence", "type": "SDTM Dataset Variable"}, "rootItem": {"href": "/mdr/root/sdtmig/datasets/SU/variables/SUOCCUR", "title": "Version-agnostic anchor resource for SDTMIG variable SU.SUOCCUR", "type": "Root Data Element"}, "self": {"href": "/mdr/sdtmig/3-4/datasets/SU/variables/SUOCCUR", "title": "SU Occurrence", "type": "SDTM Dataset Variable"}}, "core": "Perm", "description": "When the use of specific substances is solicited, SUOCCUR is used to indicate whether (\"Y\"/\"N\") a particular prespecified substance was used. Values are null for substances not specifically solicited.", "label": "SU Occurrence", "name": "SUOCCUR", "ordinal": "13", "role": "Record Qualifier", "simpleDatatype": "Char"}, {"_links": {"codelist": [{"href": "/mdr/root/ct/sdtmct/codelists/C66789", "title": "Version-agnostic anchor resource for codelist C66789", "type": "Root Value Domain"}], "modelClassVariable": {"href": "/mdr/sdtm/2-0/classes/Interventions/variables/--STAT", "title": "Completion Status", "type": "SDTM Class Variable"}, "parentDataset": {"href": "/mdr/sdtmig/3-4/datasets/SU", "title": "Substance Use", "type": "SDTM Dataset"}, "parentProduct": {"href": "/mdr/sdtmig/3-4", "title": "Study Data Tabulation Model Implementation Guide: Human Clinical Trials", "type": "Implementation Guide"}, "priorVersion": {"href": "/mdr/sdtmig/3-3/datasets/SU/variables/SUSTAT", "title": "Completion Status", "type": "SDTM Dataset Variable"}, "rootItem": {"href": "/mdr/root/sdtmig/datasets/SU/variables/SUSTAT", "title": "Version-agnostic anchor resource for SDTMIG variable SU.SUSTAT", "type": "Root Data Element"}, "self": {"href": "/mdr/sdtmig/3-4/datasets/SU/variables/SUSTAT", "title": "Completion Status", "type": "SDTM Dataset Variable"}}, "core": "Perm", "description": "When the use of prespecified substances is solicited, the completion status indicates that there was no response to the question about the prespecified substance. When there is no prespecified list on the CRF, then the completion status indicates that substance use was not assessed for the subject.", "label": "Completion Status", "name": "SUSTAT", "ordinal": "14", "role": "Record Qualifier", "simpleDatatype": "Char"}, {"_links": {"modelClassVariable": {"href": "/mdr/sdtm/2-0/classes/Interventions/variables/--REASND", "title": "Reason Not Done", "type": "SDTM Class Variable"}, "parentDataset": {"href": "/mdr/sdtmig/3-4/datasets/SU", "title": "Substance Use", "type": "SDTM Dataset"}, "parentProduct": {"href": "/mdr/sdtmig/3-4", "title": "Study Data Tabulation Model Implementation Guide: Human Clinical Trials", "type": "Implementation Guide"}, "priorVersion": {"href": "/mdr/sdtmig/3-3/datasets/SU/variables/SUREASND", "title": "Reason Substance Use Not Collected", "type": "SDTM Dataset Variable"}, "rootItem": {"href": "/mdr/root/sdtmig/datasets/SU/variables/SUREASND", "title": "Version-agnostic anchor resource for SDTMIG variable SU.SUREASND", "type": "Root Data Element"}, "self": {"href": "/mdr/sdtmig/3-4/datasets/SU/variables/SUREASND", "title": "Reason Substance Use Not Collected", "type": "SDTM Dataset Variable"}}, "core": "Perm", "description": "Describes the reason substance use was not collected. Used in conjunction with SUSTAT when value of SUSTAT is \"NOT DONE\".", "label": "Reason Substance Use Not Collected", "name": "SUREASND", "ordinal": "15", "role": "Record Qualifier", "simpleDatatype": "Char"}, {"_links": {"modelClassVariable": {"href": "/mdr/sdtm/2-0/classes/Interventions/variables/--CLAS", "title": "Class", "type": "SDTM Class Variable"}, "parentDataset": {"href": "/mdr/sdtmig/3-4/datasets/SU", "title": "Substance Use", "type": "SDTM Dataset"}, "parentProduct": {"href": "/mdr/sdtmig/3-4", "title": "Study Data Tabulation Model Implementation Guide: Human Clinical Trials", "type": "Implementation Guide"}, "priorVersion": {"href": "/mdr/sdtmig/3-3/datasets/SU/variables/SUCLAS", "title": "Substance Use Class", "type": "SDTM Dataset Variable"}, "rootItem": {"href": "/mdr/root/sdtmig/datasets/SU/variables/SUCLAS", "title": "Version-agnostic anchor resource for SDTMIG variable SU.SUCLAS", "type": "Root Data Element"}, "self": {"href": "/mdr/sdtmig/3-4/datasets/SU/variables/SUCLAS", "title": "Substance Use Class", "type": "SDTM Dataset Variable"}}, "core": "Perm", "description": "Substance use class. May be obtained from coding. When coding to a single class, populate with class value. If using a dictionary and coding to multiple classes, then follow Section 4.2.8.3, Multiple Values for a Non-result Qualifier Variable, or omit SUCLAS.", "label": "Substance Use Class", "name": "SUCLAS", "ordinal": "16", "role": "Variable Qualifier", "simpleDatatype": "Char"}, {"_links": {"modelClassVariable": {"href": "/mdr/sdtm/2-0/classes/Interventions/variables/--CLASCD", "title": "Class Code", "type": "SDTM Class Variable"}, "parentDataset": {"href": "/mdr/sdtmig/3-4/datasets/SU", "title": "Substance Use", "type": "SDTM Dataset"}, "parentProduct": {"href": "/mdr/sdtmig/3-4", "title": "Study Data Tabulation Model Implementation Guide: Human Clinical Trials", "type": "Implementation Guide"}, "priorVersion": {"href": "/mdr/sdtmig/3-3/datasets/SU/variables/SUCLASCD", "title": "Substance Use Class Code", "type": "SDTM Dataset Variable"}, "rootItem": {"href": "/mdr/root/sdtmig/datasets/SU/variables/SUCLASCD", "title": "Version-agnostic anchor resource for SDTMIG variable SU.SUCLASCD", "type": "Root Data Element"}, "self": {"href": "/mdr/sdtmig/3-4/datasets/SU/variables/SUCLASCD", "title": "Substance Use Class Code", "type": "SDTM Dataset Variable"}}, "core": "Perm", "description": "Code corresponding to SUCLAS. May be obtained from coding.", "label": "Substance Use Class Code", "name": "SUCLASCD", "ordinal": "17", "role": "Variable Qualifier", "simpleDatatype": "Char"}, {"_links": {"modelClassVariable": {"href": "/mdr/sdtm/2-0/classes/Interventions/variables/--DOSE", "title": "Dose", "type": "SDTM Class Variable"}, "parentDataset": {"href": "/mdr/sdtmig/3-4/datasets/SU", "title": "Substance Use", "type": "SDTM Dataset"}, "parentProduct": {"href": "/mdr/sdtmig/3-4", "title": "Study Data Tabulation Model Implementation Guide: Human Clinical Trials", "type": "Implementation Guide"}, "priorVersion": {"href": "/mdr/sdtmig/3-3/datasets/SU/variables/SUDOSE", "title": "Substance Use Consumption", "type": "SDTM Dataset Variable"}, "rootItem": {"href": "/mdr/root/sdtmig/datasets/SU/variables/SUDOSE", "title": "Version-agnostic anchor resource for SDTMIG variable SU.SUDOSE", "type": "Root Data Element"}, "self": {"href": "/mdr/sdtmig/3-4/datasets/SU/variables/SUDOSE", "title": "Substance Use Consumption", "type": "SDTM Dataset Variable"}}, "core": "Perm", "description": "Amount of SUTRT consumed. Not populated if SUDOSTXT is populated.", "label": "Substance Use Consumption", "name": "SUDOSE", "ordinal": "18", "role": "Record Qualifier", "simpleDatatype": "Num"}, {"_links": {"modelClassVariable": {"href": "/mdr/sdtm/2-0/classes/Interventions/variables/--DOSTXT", "title": "Dose Description", "type": "SDTM Class Variable"}, "parentDataset": {"href": "/mdr/sdtmig/3-4/datasets/SU", "title": "Substance Use", "type": "SDTM Dataset"}, "parentProduct": {"href": "/mdr/sdtmig/3-4", "title": "Study Data Tabulation Model Implementation Guide: Human Clinical Trials", "type": "Implementation Guide"}, "priorVersion": {"href": "/mdr/sdtmig/3-3/datasets/SU/variables/SUDOSTXT", "title": "Substance Use Consumption Text", "type": "SDTM Dataset Variable"}, "rootItem": {"href": "/mdr/root/sdtmig/datasets/SU/variables/SUDOSTXT", "title": "Version-agnostic anchor resource for SDTMIG variable SU.SUDOSTXT", "type": "Root Data Element"}, "self": {"href": "/mdr/sdtmig/3-4/datasets/SU/variables/SUDOSTXT", "title": "Substance Use Consumption Text", "type": "SDTM Dataset Variable"}}, "core": "Perm", "description": "Substance use consumption amounts or a range of consumption information collected in text form. Not populated if SUDOSE is populated.", "label": "Substance Use Consumption Text", "name": "SUDOSTXT", "ordinal": "19", "role": "Record Qualifier", "simpleDatatype": "Char"}, {"_links": {"codelist": [{"href": "/mdr/root/ct/sdtmct/codelists/C71620", "title": "Version-agnostic anchor resource for codelist C71620", "type": "Root Value Domain"}], "modelClassVariable": {"href": "/mdr/sdtm/2-0/classes/Interventions/variables/--DOSU", "title": "Dose Units", "type": "SDTM Class Variable"}, "parentDataset": {"href": "/mdr/sdtmig/3-4/datasets/SU", "title": "Substance Use", "type": "SDTM Dataset"}, "parentProduct": {"href": "/mdr/sdtmig/3-4", "title": "Study Data Tabulation Model Implementation Guide: Human Clinical Trials", "type": "Implementation Guide"}, "priorVersion": {"href": "/mdr/sdtmig/3-3/datasets/SU/variables/SUDOSU", "title": "Consumption Units", "type": "SDTM Dataset Variable"}, "rootItem": {"href": "/mdr/root/sdtmig/datasets/SU/variables/SUDOSU", "title": "Version-agnostic anchor resource for SDTMIG variable SU.SUDOSU", "type": "Root Data Element"}, "self": {"href": "/mdr/sdtmig/3-4/datasets/SU/variables/SUDOSU", "title": "Consumption Units", "type": "SDTM Dataset Variable"}}, "core": "Perm", "description": "Units for SUDOSE, SUDOSTOT, or SUDOSTXT. Examples: \"oz\", \"CIGARETTE\", \"PACK\", \"g\".", "label": "Consumption Units", "name": "SUDOSU", "ordinal": "20", "role": "Variable Qualifier", "simpleDatatype": "Char"}, {"_links": {"codelist": [{"href": "/mdr/root/ct/sdtmct/codelists/C66726", "title": "Version-agnostic anchor resource for codelist C66726", "type": "Root Value Domain"}], "modelClassVariable": {"href": "/mdr/sdtm/2-0/classes/Interventions/variables/--DOSFRM", "title": "Dose Form", "type": "SDTM Class Variable"}, "parentDataset": {"href": "/mdr/sdtmig/3-4/datasets/SU", "title": "Substance Use", "type": "SDTM Dataset"}, "parentProduct": {"href": "/mdr/sdtmig/3-4", "title": "Study Data Tabulation Model Implementation Guide: Human Clinical Trials", "type": "Implementation Guide"}, "priorVersion": {"href": "/mdr/sdtmig/3-3/datasets/SU/variables/SUDOSFRM", "title": "Dose Form", "type": "SDTM Dataset Variable"}, "rootItem": {"href": "/mdr/root/sdtmig/datasets/SU/variables/SUDOSFRM", "title": "Version-agnostic anchor resource for SDTMIG variable SU.SUDOSFRM", "type": "Root Data Element"}, "self": {"href": "/mdr/sdtmig/3-4/datasets/SU/variables/SUDOSFRM", "title": "Dose Form", "type": "SDTM Dataset Variable"}}, "core": "Perm", "description": "Dose form for SUTRT. Examples: \"INJECTABLE\", \"LIQUID\", \"POWDER\".", "label": "Dose Form", "name": "SUDOSFRM", "ordinal": "21", "role": "Variable Qualifier", "simpleDatatype": "Char"}, {"_links": {"codelist": [{"href": "/mdr/root/ct/sdtmct/codelists/C71113", "title": "Version-agnostic anchor resource for codelist C71113", "type": "Root Value Domain"}], "modelClassVariable": {"href": "/mdr/sdtm/2-0/classes/Interventions/variables/--DOSFRQ", "title": "Dosing Frequency per Interval", "type": "SDTM Class Variable"}, "parentDataset": {"href": "/mdr/sdtmig/3-4/datasets/SU", "title": "Substance Use", "type": "SDTM Dataset"}, "parentProduct": {"href": "/mdr/sdtmig/3-4", "title": "Study Data Tabulation Model Implementation Guide: Human Clinical Trials", "type": "Implementation Guide"}, "priorVersion": {"href": "/mdr/sdtmig/3-3/datasets/SU/variables/SUDOSFRQ", "title": "Use Frequency Per Interval", "type": "SDTM Dataset Variable"}, "rootItem": {"href": "/mdr/root/sdtmig/datasets/SU/variables/SUDOSFRQ", "title": "Version-agnostic anchor resource for SDTMIG variable SU.SUDOSFRQ", "type": "Root Data Element"}, "self": {"href": "/mdr/sdtmig/3-4/datasets/SU/variables/SUDOSFRQ", "title": "Use Frequency Per Interval", "type": "SDTM Dataset Variable"}}, "core": "Perm", "description": "Usually expressed as the number of repeated administrations of SUDOSE within a specific time period. Example: \"Q24H\" (every day).", "label": "Use Frequency Per Interval", "name": "SUDOSFRQ", "ordinal": "22", "role": "Variable Qualifier", "simpleDatatype": "Char"}, {"_links": {"modelClassVariable": {"href": "/mdr/sdtm/2-0/classes/Interventions/variables/--DOSTOT", "title": "Total Daily Dose", "type": "SDTM Class Variable"}, "parentDataset": {"href": "/mdr/sdtmig/3-4/datasets/SU", "title": "Substance Use", "type": "SDTM Dataset"}, "parentProduct": {"href": "/mdr/sdtmig/3-4", "title": "Study Data Tabulation Model Implementation Guide: Human Clinical Trials", "type": "Implementation Guide"}, "priorVersion": {"href": "/mdr/sdtmig/3-3/datasets/SU/variables/SUDOSTOT", "title": "Total Daily Consumption", "type": "SDTM Dataset Variable"}, "rootItem": {"href": "/mdr/root/sdtmig/datasets/SU/variables/SUDOSTOT", "title": "Version-agnostic anchor resource for SDTMIG variable SU.SUDOSTOT", "type": "Root Data Element"}, "self": {"href": "/mdr/sdtmig/3-4/datasets/SU/variables/SUDOSTOT", "title": "Total Daily Consumption", "type": "SDTM Dataset Variable"}}, "core": "Perm", "description": "Total daily use of SUTRT using the units in SUDOSU. Used when dosing is collected as total daily dose. If a sponsor needs to aggregate the data over a period other than daily, then the aggregated total could be recorded in a supplemental qualifier variable.", "label": "Total Daily Consumption", "name": "SUDOSTOT", "ordinal": "23", "role": "Record Qualifier", "simpleDatatype": "Num"}, {"_links": {"codelist": [{"href": "/mdr/root/ct/sdtmct/codelists/C66729", "title": "Version-agnostic anchor resource for codelist C66729", "type": "Root Value Domain"}], "modelClassVariable": {"href": "/mdr/sdtm/2-0/classes/Interventions/variables/--ROUTE", "title": "Route of Administration", "type": "SDTM Class Variable"}, "parentDataset": {"href": "/mdr/sdtmig/3-4/datasets/SU", "title": "Substance Use", "type": "SDTM Dataset"}, "parentProduct": {"href": "/mdr/sdtmig/3-4", "title": "Study Data Tabulation Model Implementation Guide: Human Clinical Trials", "type": "Implementation Guide"}, "priorVersion": {"href": "/mdr/sdtmig/3-3/datasets/SU/variables/SUROUTE", "title": "Route of Administration", "type": "SDTM Dataset Variable"}, "rootItem": {"href": "/mdr/root/sdtmig/datasets/SU/variables/SUROUTE", "title": "Version-agnostic anchor resource for SDTMIG variable SU.SUROUTE", "type": "Root Data Element"}, "self": {"href": "/mdr/sdtmig/3-4/datasets/SU/variables/SUROUTE", "title": "Route of Administration", "type": "SDTM Dataset Variable"}}, "core": "Perm", "description": "Route of administration for SUTRT. Examples: \"ORAL\", \"INTRAVENOUS\".", "label": "Route of Administration", "name": "SUROUTE", "ordinal": "24", "role": "Variable Qualifier", "simpleDatatype": "Char"}, {"_links": {"modelClassVariable": {"href": "/mdr/sdtm/2-0/classes/GeneralObservations/variables/TAETORD", "title": "Planned Order of Element Within Arm", "type": "SDTM Class Variable"}, "parentDataset": {"href": "/mdr/sdtmig/3-4/datasets/SU", "title": "Substance Use", "type": "SDTM Dataset"}, "parentProduct": {"href": "/mdr/sdtmig/3-4", "title": "Study Data Tabulation Model Implementation Guide: Human Clinical Trials", "type": "Implementation Guide"}, "priorVersion": {"href": "/mdr/sdtmig/3-3/datasets/SU/variables/TAETORD", "title": "Planned Order of Element within Arm", "type": "SDTM Dataset Variable"}, "rootItem": {"href": "/mdr/root/sdtmig/datasets/SU/variables/TAETORD", "title": "Version-agnostic anchor resource for SDTMIG variable SU.TAETORD", "type": "Root Data Element"}, "self": {"href": "/mdr/sdtmig/3-4/datasets/SU/variables/TAETORD", "title": "Planned Order of Element within Arm", "type": "SDTM Dataset Variable"}}, "core": "Perm", "description": "Number that gives the planned order of the element within the arm for the element in which the substance use started. Null for substances that started before study participation.", "label": "Planned Order of Element within Arm", "name": "TAETORD", "ordinal": "25", "role": "Timing", "simpleDatatype": "Num"}, {"_links": {"codelist": [{"href": "/mdr/root/ct/sdtmct/codelists/C99079", "title": "Version-agnostic anchor resource for codelist C99079", "type": "Root Value Domain"}], "modelClassVariable": {"href": "/mdr/sdtm/2-0/classes/GeneralObservations/variables/EPOCH", "title": "Epoch", "type": "SDTM Class Variable"}, "parentDataset": {"href": "/mdr/sdtmig/3-4/datasets/SU", "title": "Substance Use", "type": "SDTM Dataset"}, "parentProduct": {"href": "/mdr/sdtmig/3-4", "title": "Study Data Tabulation Model Implementation Guide: Human Clinical Trials", "type": "Implementation Guide"}, "priorVersion": {"href": "/mdr/sdtmig/3-3/datasets/SU/variables/EPOCH", "title": "Epoch", "type": "SDTM Dataset Variable"}, "rootItem": {"href": "/mdr/root/sdtmig/datasets/SU/variables/EPOCH", "title": "Version-agnostic anchor resource for SDTMIG variable SU.EPOCH", "type": "Root Data Element"}, "self": {"href": "/mdr/sdtmig/3-4/datasets/SU/variables/EPOCH", "title": "Epoch", "type": "SDTM Dataset Variable"}}, "core": "Perm", "description": "Epoch associated with the start date/time of the substance use. Null for substances that started before study participation.", "label": "Epoch", "name": "EPOCH", "ordinal": "26", "role": "Timing", "simpleDatatype": "Char"}, {"_links": {"modelClassVariable": {"href": "/mdr/sdtm/2-0/classes/GeneralObservations/variables/--STDTC", "title": "Start Date/Time of Observation", "type": "SDTM Class Variable"}, "parentDataset": {"href": "/mdr/sdtmig/3-4/datasets/SU", "title": "Substance Use", "type": "SDTM Dataset"}, "parentProduct": {"href": "/mdr/sdtmig/3-4", "title": "Study Data Tabulation Model Implementation Guide: Human Clinical Trials", "type": "Implementation Guide"}, "priorVersion": {"href": "/mdr/sdtmig/3-3/datasets/SU/variables/SUSTDTC", "title": "Start Date/Time of Substance Use", "type": "SDTM Dataset Variable"}, "rootItem": {"href": "/mdr/root/sdtmig/datasets/SU/variables/SUSTDTC", "title": "Version-agnostic anchor resource for SDTMIG variable SU.SUSTDTC", "type": "Root Data Element"}, "self": {"href": "/mdr/sdtmig/3-4/datasets/SU/variables/SUSTDTC", "title": "Start Date/Time of Substance Use", "type": "SDTM Dataset Variable"}}, "core": "Perm", "describedValueDomain": "ISO 8601 datetime or interval", "description": "Start date/time of the substance use represented in ISO 8601 character format.", "label": "Start Date/Time of Substance Use", "name": "SUSTDTC", "ordinal": "27", "role": "Timing", "simpleDatatype": "Char"}, {"_links": {"modelClassVariable": {"href": "/mdr/sdtm/2-0/classes/GeneralObservations/variables/--ENDTC", "title": "End Date/Time of Observation", "type": "SDTM Class Variable"}, "parentDataset": {"href": "/mdr/sdtmig/3-4/datasets/SU", "title": "Substance Use", "type": "SDTM Dataset"}, "parentProduct": {"href": "/mdr/sdtmig/3-4", "title": "Study Data Tabulation Model Implementation Guide: Human Clinical Trials", "type": "Implementation Guide"}, "priorVersion": {"href": "/mdr/sdtmig/3-3/datasets/SU/variables/SUENDTC", "title": "End Date/Time of Substance Use", "type": "SDTM Dataset Variable"}, "rootItem": {"href": "/mdr/root/sdtmig/datasets/SU/variables/SUENDTC", "title": "Version-agnostic anchor resource for SDTMIG variable SU.SUENDTC", "type": "Root Data Element"}, "self": {"href": "/mdr/sdtmig/3-4/datasets/SU/variables/SUENDTC", "title": "End Date/Time of Substance Use", "type": "SDTM Dataset Variable"}}, "core": "Perm", "describedValueDomain": "ISO 8601 datetime or interval", "description": "End date/time of the substance use represented in ISO 8601 character format.", "label": "End Date/Time of Substance Use", "name": "SUENDTC", "ordinal": "28", "role": "Timing", "simpleDatatype": "Char"}, {"_links": {"modelClassVariable": {"href": "/mdr/sdtm/2-0/classes/GeneralObservations/variables/--STDY", "title": "Study Day of Start of Observation", "type": "SDTM Class Variable"}, "parentDataset": {"href": "/mdr/sdtmig/3-4/datasets/SU", "title": "Substance Use", "type": "SDTM Dataset"}, "parentProduct": {"href": "/mdr/sdtmig/3-4", "title": "Study Data Tabulation Model Implementation Guide: Human Clinical Trials", "type": "Implementation Guide"}, "priorVersion": {"href": "/mdr/sdtmig/3-3/datasets/SU/variables/SUSTDY", "title": "Study Day of Start of Substance Use", "type": "SDTM Dataset Variable"}, "rootItem": {"href": "/mdr/root/sdtmig/datasets/SU/variables/SUSTDY", "title": "Version-agnostic anchor resource for SDTMIG variable SU.SUSTDY", "type": "Root Data Element"}, "self": {"href": "/mdr/sdtmig/3-4/datasets/SU/variables/SUSTDY", "title": "Study Day of Start of Substance Use", "type": "SDTM Dataset Variable"}}, "core": "Perm", "description": "Study day of start of substance use relative to the sponsor-defined RFSTDTC.", "label": "Study Day of Start of Substance Use", "name": "SUSTDY", "ordinal": "29", "role": "Timing", "simpleDatatype": "Num"}, {"_links": {"modelClassVariable": {"href": "/mdr/sdtm/2-0/classes/GeneralObservations/variables/--ENDY", "title": "Study Day of End of Observation", "type": "SDTM Class Variable"}, "parentDataset": {"href": "/mdr/sdtmig/3-4/datasets/SU", "title": "Substance Use", "type": "SDTM Dataset"}, "parentProduct": {"href": "/mdr/sdtmig/3-4", "title": "Study Data Tabulation Model Implementation Guide: Human Clinical Trials", "type": "Implementation Guide"}, "priorVersion": {"href": "/mdr/sdtmig/3-3/datasets/SU/variables/SUENDY", "title": "Study Day of End of Substance Use", "type": "SDTM Dataset Variable"}, "rootItem": {"href": "/mdr/root/sdtmig/datasets/SU/variables/SUENDY", "title": "Version-agnostic anchor resource for SDTMIG variable SU.SUENDY", "type": "Root Data Element"}, "self": {"href": "/mdr/sdtmig/3-4/datasets/SU/variables/SUENDY", "title": "Study Day of End of Substance Use", "type": "SDTM Dataset Variable"}}, "core": "Perm", "description": "Study day of end of substance use relative to the sponsor-defined RFSTDTC.", "label": "Study Day of End of Substance Use", "name": "SUENDY", "ordinal": "30", "role": "Timing", "simpleDatatype": "Num"}, {"_links": {"modelClassVariable": {"href": "/mdr/sdtm/2-0/classes/GeneralObservations/variables/--DUR", "title": "Collected Duration", "type": "SDTM Class Variable"}, "parentDataset": {"href": "/mdr/sdtmig/3-4/datasets/SU", "title": "Substance Use", "type": "SDTM Dataset"}, "parentProduct": {"href": "/mdr/sdtmig/3-4", "title": "Study Data Tabulation Model Implementation Guide: Human Clinical Trials", "type": "Implementation Guide"}, "priorVersion": {"href": "/mdr/sdtmig/3-3/datasets/SU/variables/SUDUR", "title": "Duration of Substance Use", "type": "SDTM Dataset Variable"}, "rootItem": {"href": "/mdr/root/sdtmig/datasets/SU/variables/SUDUR", "title": "Version-agnostic anchor resource for SDTMIG variable SU.SUDUR", "type": "Root Data Element"}, "self": {"href": "/mdr/sdtmig/3-4/datasets/SU/variables/SUDUR", "title": "Duration of Substance Use", "type": "SDTM Dataset Variable"}}, "core": "Perm", "describedValueDomain": "ISO 8601 duration", "description": "Collected duration of substance use in ISO 8601 format. Used only if collected on the CRF and not derived from start and end date/times.", "label": "Duration of Substance Use", "name": "SUDUR", "ordinal": "31", "role": "Timing", "simpleDatatype": "Char"}, {"_links": {"codelist": [{"href": "/mdr/root/ct/sdtmct/codelists/C66728", "title": "Version-agnostic anchor resource for codelist C66728", "type": "Root Value Domain"}], "modelClassVariable": {"href": "/mdr/sdtm/2-0/classes/GeneralObservations/variables/--STRF", "title": "Start Relative to Reference Period", "type": "SDTM Class Variable"}, "parentDataset": {"href": "/mdr/sdtmig/3-4/datasets/SU", "title": "Substance Use", "type": "SDTM Dataset"}, "parentProduct": {"href": "/mdr/sdtmig/3-4", "title": "Study Data Tabulation Model Implementation Guide: Human Clinical Trials", "type": "Implementation Guide"}, "priorVersion": {"href": "/mdr/sdtmig/3-3/datasets/SU/variables/SUSTRF", "title": "Start Relative to Reference Period", "type": "SDTM Dataset Variable"}, "rootItem": {"href": "/mdr/root/sdtmig/datasets/SU/variables/SUSTRF", "title": "Version-agnostic anchor resource for SDTMIG variable SU.SUSTRF", "type": "Root Data Element"}, "self": {"href": "/mdr/sdtmig/3-4/datasets/SU/variables/SUSTRF", "title": "Start Relative to Reference Period", "type": "SDTM Dataset Variable"}}, "core": "Perm", "description": "Describes the start of the substance use relative to the sponsor-defined reference period. The sponsor-defined reference period is a continuous period of time defined by a discrete starting point and a discrete ending point (represented by RFSTDTC and RFENDTC in Demographics). If information such as \"PRIOR\" was collected, this information may be translated into SUSTRF. \\n Not all values of the codelist are allowable for this variable. See Section 4.4.7, Use of Relative Timing Variables.", "label": "Start Relative to Reference Period", "name": "SUSTRF", "ordinal": "32", "role": "Timing", "simpleDatatype": "Char"}, {"_links": {"codelist": [{"href": "/mdr/root/ct/sdtmct/codelists/C66728", "title": "Version-agnostic anchor resource for codelist C66728", "type": "Root Value Domain"}], "modelClassVariable": {"href": "/mdr/sdtm/2-0/classes/GeneralObservations/variables/--ENRF", "title": "End Relative to Reference Period", "type": "SDTM Class Variable"}, "parentDataset": {"href": "/mdr/sdtmig/3-4/datasets/SU", "title": "Substance Use", "type": "SDTM Dataset"}, "parentProduct": {"href": "/mdr/sdtmig/3-4", "title": "Study Data Tabulation Model Implementation Guide: Human Clinical Trials", "type": "Implementation Guide"}, "priorVersion": {"href": "/mdr/sdtmig/3-3/datasets/SU/variables/SUENRF", "title": "End Relative to Reference Period", "type": "SDTM Dataset Variable"}, "rootItem": {"href": "/mdr/root/sdtmig/datasets/SU/variables/SUENRF", "title": "Version-agnostic anchor resource for SDTMIG variable SU.SUENRF", "type": "Root Data Element"}, "self": {"href": "/mdr/sdtmig/3-4/datasets/SU/variables/SUENRF", "title": "End Relative to Reference Period", "type": "SDTM Dataset Variable"}}, "core": "Perm", "description": "Describes the end of the substance use with relative to the sponsor-defined reference period. The sponsor-defined reference period is a continuous period of time defined by a discrete starting point and a discrete ending point (represented by RFSTDTC and RFENDTC in Demographics). If information such as \"PRIOR\", \"ONGOING\", or \"CONTINUING\" was collected, this information may be translated into SUENRF. \\n Not all values of the codelist are allowable for this variable. See Section 4.4.7, Use of Relative Timing Variables.", "label": "End Relative to Reference Period", "name": "SUENRF", "ordinal": "33", "role": "Timing", "simpleDatatype": "Char"}, {"_links": {"codelist": [{"href": "/mdr/root/ct/sdtmct/codelists/C66728", "title": "Version-agnostic anchor resource for codelist C66728", "type": "Root Value Domain"}], "modelClassVariable": {"href": "/mdr/sdtm/2-0/classes/GeneralObservations/variables/--STRTPT", "title": "Start Relative to Reference Time Point", "type": "SDTM Class Variable"}, "parentDataset": {"href": "/mdr/sdtmig/3-4/datasets/SU", "title": "Substance Use", "type": "SDTM Dataset"}, "parentProduct": {"href": "/mdr/sdtmig/3-4", "title": "Study Data Tabulation Model Implementation Guide: Human Clinical Trials", "type": "Implementation Guide"}, "priorVersion": {"href": "/mdr/sdtmig/3-3/datasets/SU/variables/SUSTRTPT", "title": "Start Relative to Reference Time Point", "type": "SDTM Dataset Variable"}, "rootItem": {"href": "/mdr/root/sdtmig/datasets/SU/variables/SUSTRTPT", "title": "Version-agnostic anchor resource for SDTMIG variable SU.SUSTRTPT", "type": "Root Data Element"}, "self": {"href": "/mdr/sdtmig/3-4/datasets/SU/variables/SUSTRTPT", "title": "Start Relative to Reference Time Point", "type": "SDTM Dataset Variable"}}, "core": "Perm", "description": "Identifies the start of the substance as being before or after the reference time point defined by variable SUSTTPT. \\n Not all values of the codelist are allowable for this variable. See Section 4.4.7 , Use of Relative Timing Variables.", "label": "Start Relative to Reference Time Point", "name": "SUSTRTPT", "ordinal": "34", "role": "Timing", "simpleDatatype": "Char"}, {"_links": {"modelClassVariable": {"href": "/mdr/sdtm/2-0/classes/GeneralObservations/variables/--STTPT", "title": "Start Reference Time Point", "type": "SDTM Class Variable"}, "parentDataset": {"href": "/mdr/sdtmig/3-4/datasets/SU", "title": "Substance Use", "type": "SDTM Dataset"}, "parentProduct": {"href": "/mdr/sdtmig/3-4", "title": "Study Data Tabulation Model Implementation Guide: Human Clinical Trials", "type": "Implementation Guide"}, "priorVersion": {"href": "/mdr/sdtmig/3-3/datasets/SU/variables/SUSTTPT", "title": "Start Reference Time Point", "type": "SDTM Dataset Variable"}, "rootItem": {"href": "/mdr/root/sdtmig/datasets/SU/variables/SUSTTPT", "title": "Version-agnostic anchor resource for SDTMIG variable SU.SUSTTPT", "type": "Root Data Element"}, "self": {"href": "/mdr/sdtmig/3-4/datasets/SU/variables/SUSTTPT", "title": "Start Reference Time Point", "type": "SDTM Dataset Variable"}}, "core": "Perm", "description": "Description or date/time in ISO 8601 character format of the reference point referred to by SUSTRTPT. Examples: \"2003-12-15\", \"VISIT 1\".", "label": "Start Reference Time Point", "name": "SUSTTPT", "ordinal": "35", "role": "Timing", "simpleDatatype": "Char"}, {"_links": {"codelist": [{"href": "/mdr/root/ct/sdtmct/codelists/C66728", "title": "Version-agnostic anchor resource for codelist C66728", "type": "Root Value Domain"}], "modelClassVariable": {"href": "/mdr/sdtm/2-0/classes/GeneralObservations/variables/--ENRTPT", "title": "End Relative to Reference Time Point", "type": "SDTM Class Variable"}, "parentDataset": {"href": "/mdr/sdtmig/3-4/datasets/SU", "title": "Substance Use", "type": "SDTM Dataset"}, "parentProduct": {"href": "/mdr/sdtmig/3-4", "title": "Study Data Tabulation Model Implementation Guide: Human Clinical Trials", "type": "Implementation Guide"}, "priorVersion": {"href": "/mdr/sdtmig/3-3/datasets/SU/variables/SUENRTPT", "title": "End Relative to Reference Time Point", "type": "SDTM Dataset Variable"}, "rootItem": {"href": "/mdr/root/sdtmig/datasets/SU/variables/SUENRTPT", "title": "Version-agnostic anchor resource for SDTMIG variable SU.SUENRTPT", "type": "Root Data Element"}, "self": {"href": "/mdr/sdtmig/3-4/datasets/SU/variables/SUENRTPT", "title": "End Relative to Reference Time Point", "type": "SDTM Dataset Variable"}}, "core": "Perm", "description": "Identifies the end of the substance as being before or after the reference time point defined by variable SUENTPT. \\n Not all values of the codelist are allowable for this variable. See Section 4.4.7 , Use of Relative Timing Variables.", "label": "End Relative to Reference Time Point", "name": "SUENRTPT", "ordinal": "36", "role": "Timing", "simpleDatatype": "Char"}, {"_links": {"modelClassVariable": {"href": "/mdr/sdtm/2-0/classes/GeneralObservations/variables/--ENTPT", "title": "End Reference Time Point", "type": "SDTM Class Variable"}, "parentDataset": {"href": "/mdr/sdtmig/3-4/datasets/SU", "title": "Substance Use", "type": "SDTM Dataset"}, "parentProduct": {"href": "/mdr/sdtmig/3-4", "title": "Study Data Tabulation Model Implementation Guide: Human Clinical Trials", "type": "Implementation Guide"}, "priorVersion": {"href": "/mdr/sdtmig/3-3/datasets/SU/variables/SUENTPT", "title": "End Reference Time Point", "type": "SDTM Dataset Variable"}, "rootItem": {"href": "/mdr/root/sdtmig/datasets/SU/variables/SUENTPT", "title": "Version-agnostic anchor resource for SDTMIG variable SU.SUENTPT", "type": "Root Data Element"}, "self": {"href": "/mdr/sdtmig/3-4/datasets/SU/variables/SUENTPT", "title": "End Reference Time Point", "type": "SDTM Dataset Variable"}}, "core": "Perm", "description": "Description or date/time in ISO 8601 character format of the reference point referred to by SUENRTPT. Examples: \"2003-12-25\", \"VISIT 2\".", "label": "End Reference Time Point", "name": "SUENTPT", "ordinal": "37", "role": "Timing", "simpleDatatype": "Char"}], "description": "An interventions domain that contains substance use information that may be used to assess the efficacy and/or safety of therapies that look to mitigate the effects of chronic substance use.", "label": "Substance Use", "name": "SU", "ordinal": "50"}
