{"_links": {"modelDataset": {"href": "/mdr/sdtm/2-0/datasets/SV", "title": "Subject Visits", "type": "SDTM Dataset"}, "parentClass": {"href": "/mdr/sdtmig/3-4/classes/SpecialPurpose", "title": "Special-Purpose", "type": "Class"}, "parentProduct": {"href": "/mdr/sdtmig/3-4", "title": "Study Data Tabulation Model Implementation Guide: Human Clinical Trials", "type": "Implementation Guide"}, "priorVersion": {"href": "/mdr/sdtmig/3-3/datasets/SV", "title": "Subject Visits", "type": "SDTM Dataset"}, "self": {"href": "/mdr/sdtmig/3-4/datasets/SV", "title": "Subject Visits", "type": "SDTM Dataset"}}, "datasetStructure": "One record per actual or planned visit per subject", "datasetVariables": [{"_links": {"modelDatasetVariable": {"href": "/mdr/sdtm/2-0/datasets/SV/variables/STUDYID", "title": "Study Identifier", "type": "SDTM Dataset Variable"}, "parentDataset": {"href": "/mdr/sdtmig/3-4/datasets/SV", "title": "Subject Visits", "type": "SDTM Dataset"}, "parentProduct": {"href": "/mdr/sdtmig/3-4", "title": "Study Data Tabulation Model Implementation Guide: Human Clinical Trials", "type": "Implementation Guide"}, "priorVersion": {"href": "/mdr/sdtmig/3-3/datasets/SV/variables/STUDYID", "title": "Study Identifier", "type": "SDTM Dataset Variable"}, "rootItem": {"href": "/mdr/root/sdtmig/datasets/SV/variables/STUDYID", "title": "Version-agnostic anchor resource for SDTMIG variable SV.STUDYID", "type": "Root Data Element"}, "self": {"href": "/mdr/sdtmig/3-4/datasets/SV/variables/STUDYID", "title": "Study Identifier", "type": "SDTM Dataset Variable"}}, "core": "Req", "description": "Unique identifier for a study.", "label": "Study Identifier", "name": "STUDYID", "ordinal": "1", "role": "Identifier", "simpleDatatype": "Char"}, {"_links": {"modelDatasetVariable": {"href": "/mdr/sdtm/2-0/datasets/SV/variables/DOMAIN", "title": "Domain Abbreviation", "type": "SDTM Dataset Variable"}, "parentDataset": {"href": "/mdr/sdtmig/3-4/datasets/SV", "title": "Subject Visits", "type": "SDTM Dataset"}, "parentProduct": {"href": "/mdr/sdtmig/3-4", "title": "Study Data Tabulation Model Implementation Guide: Human Clinical Trials", "type": "Implementation Guide"}, "priorVersion": {"href": "/mdr/sdtmig/3-3/datasets/SV/variables/DOMAIN", "title": "Domain Abbreviation", "type": "SDTM Dataset Variable"}, "rootItem": {"href": "/mdr/root/sdtmig/datasets/SV/variables/DOMAIN", "title": "Version-agnostic anchor resource for SDTMIG variable SV.DOMAIN", "type": "Root Data Element"}, "self": {"href": "/mdr/sdtmig/3-4/datasets/SV/variables/DOMAIN", "title": "Domain Abbreviation", "type": "SDTM Dataset Variable"}}, "core": "Req", "description": "Two-character abbreviation for the domain most relevant to the observation. The domain abbreviation is also used as a prefix for variables to ensure uniqueness when datasets are merged.", "label": "Domain Abbreviation", "name": "DOMAIN", "ordinal": "2", "role": "Identifier", "simpleDatatype": "Char", "valueList": ["SV"]}, {"_links": {"modelDatasetVariable": {"href": "/mdr/sdtm/2-0/datasets/SV/variables/USUBJID", "title": "Unique Subject Identifier", "type": "SDTM Dataset Variable"}, "parentDataset": {"href": "/mdr/sdtmig/3-4/datasets/SV", "title": "Subject Visits", "type": "SDTM Dataset"}, "parentProduct": {"href": "/mdr/sdtmig/3-4", "title": "Study Data Tabulation Model Implementation Guide: Human Clinical Trials", "type": "Implementation Guide"}, "priorVersion": {"href": "/mdr/sdtmig/3-3/datasets/SV/variables/USUBJID", "title": "Unique Subject Identifier", "type": "SDTM Dataset Variable"}, "rootItem": {"href": "/mdr/root/sdtmig/datasets/SV/variables/USUBJID", "title": "Version-agnostic anchor resource for SDTMIG variable SV.USUBJID", "type": "Root Data Element"}, "self": {"href": "/mdr/sdtmig/3-4/datasets/SV/variables/USUBJID", "title": "Unique Subject Identifier", "type": "SDTM Dataset Variable"}}, "core": "Req", "description": "Identifier used to uniquely identify a subject across all studies for all applications or submissions involving the product.", "label": "Unique Subject Identifier", "name": "USUBJID", "ordinal": "3", "role": "Identifier", "simpleDatatype": "Char"}, {"_links": {"modelDatasetVariable": {"href": "/mdr/sdtm/2-0/datasets/SV/variables/VISITNUM", "title": "Visit Number", "type": "SDTM Dataset Variable"}, "parentDataset": {"href": "/mdr/sdtmig/3-4/datasets/SV", "title": "Subject Visits", "type": "SDTM Dataset"}, "parentProduct": {"href": "/mdr/sdtmig/3-4", "title": "Study Data Tabulation Model Implementation Guide: Human Clinical Trials", "type": "Implementation Guide"}, "priorVersion": {"href": "/mdr/sdtmig/3-3/datasets/SV/variables/VISITNUM", "title": "Visit Number", "type": "SDTM Dataset Variable"}, "rootItem": {"href": "/mdr/root/sdtmig/datasets/SV/variables/VISITNUM", "title": "Version-agnostic anchor resource for SDTMIG variable SV.VISITNUM", "type": "Root Data Element"}, "self": {"href": "/mdr/sdtmig/3-4/datasets/SV/variables/VISITNUM", "title": "Visit Number", "type": "SDTM Dataset Variable"}}, "core": "Req", "description": "Clinical encounter number. Numeric version of VISIT, used for sorting.", "label": "Visit Number", "name": "VISITNUM", "ordinal": "4", "role": "Topic", "simpleDatatype": "Num"}, {"_links": {"modelDatasetVariable": {"href": "/mdr/sdtm/2-0/datasets/SV/variables/VISIT", "title": "Visit Name", "type": "SDTM Dataset Variable"}, "parentDataset": {"href": "/mdr/sdtmig/3-4/datasets/SV", "title": "Subject Visits", "type": "SDTM Dataset"}, "parentProduct": {"href": "/mdr/sdtmig/3-4", "title": "Study Data Tabulation Model Implementation Guide: Human Clinical Trials", "type": "Implementation Guide"}, "priorVersion": {"href": "/mdr/sdtmig/3-3/datasets/SV/variables/VISIT", "title": "Visit Name", "type": "SDTM Dataset Variable"}, "rootItem": {"href": "/mdr/root/sdtmig/datasets/SV/variables/VISIT", "title": "Version-agnostic anchor resource for SDTMIG variable SV.VISIT", "type": "Root Data Element"}, "self": {"href": "/mdr/sdtmig/3-4/datasets/SV/variables/VISIT", "title": "Visit Name", "type": "SDTM Dataset Variable"}}, "core": "Perm", "description": "Protocol-defined description of a clinical encounter.", "label": "Visit Name", "name": "VISIT", "ordinal": "5", "role": "Synonym Qualifier", "simpleDatatype": "Char"}, {"_links": {"codelist": [{"href": "/mdr/root/ct/sdtmct/codelists/C66742", "title": "Version-agnostic anchor resource for codelist C66742", "type": "Root Value Domain"}], "modelDatasetVariable": {"href": "/mdr/sdtm/2-0/datasets/SV/variables/SVPRESP", "title": "Pre-Specified", "type": "SDTM Dataset Variable"}, "parentDataset": {"href": "/mdr/sdtmig/3-4/datasets/SV", "title": "Subject Visits", "type": "SDTM Dataset"}, "parentProduct": {"href": "/mdr/sdtmig/3-4", "title": "Study Data Tabulation Model Implementation Guide: Human Clinical Trials", "type": "Implementation Guide"}, "rootItem": {"href": "/mdr/root/sdtmig/datasets/SV/variables/SVPRESP", "title": "Version-agnostic anchor resource for SDTMIG variable SV.SVPRESP", "type": "Root Data Element"}, "self": {"href": "/mdr/sdtmig/3-4/datasets/SV/variables/SVPRESP", "title": "Pre-specified", "type": "SDTM Dataset Variable"}}, "core": "Exp", "description": "Used to indicate whether the visit was planned (i.e., visits specified in the TV domain). Value is \"Y\" for planned visits, null for unplanned visits.", "label": "Pre-specified", "name": "SVPRESP", "ordinal": "6", "role": "Variable Qualifier", "simpleDatatype": "Char"}, {"_links": {"codelist": [{"href": "/mdr/root/ct/sdtmct/codelists/C66742", "title": "Version-agnostic anchor resource for codelist C66742", "type": "Root Value Domain"}], "modelDatasetVariable": {"href": "/mdr/sdtm/2-0/datasets/SV/variables/SVOCCUR", "title": "Occurrence", "type": "SDTM Dataset Variable"}, "parentDataset": {"href": "/mdr/sdtmig/3-4/datasets/SV", "title": "Subject Visits", "type": "SDTM Dataset"}, "parentProduct": {"href": "/mdr/sdtmig/3-4", "title": "Study Data Tabulation Model Implementation Guide: Human Clinical Trials", "type": "Implementation Guide"}, "rootItem": {"href": "/mdr/root/sdtmig/datasets/SV/variables/SVOCCUR", "title": "Version-agnostic anchor resource for SDTMIG variable SV.SVOCCUR", "type": "Root Data Element"}, "self": {"href": "/mdr/sdtmig/3-4/datasets/SV/variables/SVOCCUR", "title": "Occurrence", "type": "SDTM Dataset Variable"}}, "core": "Exp", "description": "Used to record whether a planned visit occurred. The value is null for unplanned visits.", "label": "Occurrence", "name": "SVOCCUR", "ordinal": "7", "role": "Record Qualifier", "simpleDatatype": "Char"}, {"_links": {"modelDatasetVariable": {"href": "/mdr/sdtm/2-0/datasets/SV/variables/SVREASOC", "title": "Reason for Occur Value", "type": "SDTM Dataset Variable"}, "parentDataset": {"href": "/mdr/sdtmig/3-4/datasets/SV", "title": "Subject Visits", "type": "SDTM Dataset"}, "parentProduct": {"href": "/mdr/sdtmig/3-4", "title": "Study Data Tabulation Model Implementation Guide: Human Clinical Trials", "type": "Implementation Guide"}, "rootItem": {"href": "/mdr/root/sdtmig/datasets/SV/variables/SVREASOC", "title": "Version-agnostic anchor resource for SDTMIG variable SV.SVREASOC", "type": "Root Data Element"}, "self": {"href": "/mdr/sdtmig/3-4/datasets/SV/variables/SVREASOC", "title": "Reason for Occur Value", "type": "SDTM Dataset Variable"}}, "core": "Perm", "description": "The reason for the value in SVOCCUR. If SVOCCUR=\"N\", SVREASOC is the reason the visit did not occur.", "label": "Reason for Occur Value", "name": "SVREASOC", "ordinal": "8", "role": "Record Qualifier", "simpleDatatype": "Char"}, {"_links": {"codelist": [{"href": "/mdr/root/ct/sdtmct/codelists/C171445", "title": "Version-agnostic anchor resource for codelist C171445", "type": "Root Value Domain"}], "modelDatasetVariable": {"href": "/mdr/sdtm/2-0/datasets/SV/variables/SVCNTMOD", "title": "Contact Mode", "type": "SDTM Dataset Variable"}, "parentDataset": {"href": "/mdr/sdtmig/3-4/datasets/SV", "title": "Subject Visits", "type": "SDTM Dataset"}, "parentProduct": {"href": "/mdr/sdtmig/3-4", "title": "Study Data Tabulation Model Implementation Guide: Human Clinical Trials", "type": "Implementation Guide"}, "rootItem": {"href": "/mdr/root/sdtmig/datasets/SV/variables/SVCNTMOD", "title": "Version-agnostic anchor resource for SDTMIG variable SV.SVCNTMOD", "type": "Root Data Element"}, "self": {"href": "/mdr/sdtmig/3-4/datasets/SV/variables/SVCNTMOD", "title": "Contact Mode", "type": "SDTM Dataset Variable"}}, "core": "Perm", "description": "The way in which the visit was conducted. Examples: \"IN PERSON\", \"TELEPHONE CALL\", \"IVRS\".", "label": "Contact Mode", "name": "SVCNTMOD", "ordinal": "9", "role": "Record Qualifier", "simpleDatatype": "Char"}, {"_links": {"codelist": [{"href": "/mdr/root/ct/sdtmct/codelists/C66742", "title": "Version-agnostic anchor resource for codelist C66742", "type": "Root Value Domain"}], "modelDatasetVariable": {"href": "/mdr/sdtm/2-0/datasets/SV/variables/SVEPCHGI", "title": "Epi/Pandemic Related Change Indicator", "type": "SDTM Dataset Variable"}, "parentDataset": {"href": "/mdr/sdtmig/3-4/datasets/SV", "title": "Subject Visits", "type": "SDTM Dataset"}, "parentProduct": {"href": "/mdr/sdtmig/3-4", "title": "Study Data Tabulation Model Implementation Guide: Human Clinical Trials", "type": "Implementation Guide"}, "rootItem": {"href": "/mdr/root/sdtmig/datasets/SV/variables/SVEPCHGI", "title": "Version-agnostic anchor resource for SDTMIG variable SV.SVEPCHGI", "type": "Root Data Element"}, "self": {"href": "/mdr/sdtmig/3-4/datasets/SV/variables/SVEPCHGI", "title": "Epi/Pandemic Related Change Indicator", "type": "SDTM Dataset Variable"}}, "core": "Perm", "description": "Indicates whether the visit was changed due to an epidemic or pandemic.", "label": "Epi/Pandemic Related Change Indicator", "name": "SVEPCHGI", "ordinal": "10", "role": "Record Qualifier", "simpleDatatype": "Char"}, {"_links": {"modelDatasetVariable": {"href": "/mdr/sdtm/2-0/datasets/SV/variables/VISITDY", "title": "Planned Study Day of Visit", "type": "SDTM Dataset Variable"}, "parentDataset": {"href": "/mdr/sdtmig/3-4/datasets/SV", "title": "Subject Visits", "type": "SDTM Dataset"}, "parentProduct": {"href": "/mdr/sdtmig/3-4", "title": "Study Data Tabulation Model Implementation Guide: Human Clinical Trials", "type": "Implementation Guide"}, "priorVersion": {"href": "/mdr/sdtmig/3-3/datasets/SV/variables/VISITDY", "title": "Planned Study Day of Visit", "type": "SDTM Dataset Variable"}, "rootItem": {"href": "/mdr/root/sdtmig/datasets/SV/variables/VISITDY", "title": "Version-agnostic anchor resource for SDTMIG variable SV.VISITDY", "type": "Root Data Element"}, "self": {"href": "/mdr/sdtmig/3-4/datasets/SV/variables/VISITDY", "title": "Planned Study Day of Visit", "type": "SDTM Dataset Variable"}}, "core": "Perm", "description": "Planned study day of VISIT. Should be an integer.", "label": "Planned Study Day of Visit", "name": "VISITDY", "ordinal": "11", "role": "Timing", "simpleDatatype": "Num"}, {"_links": {"modelDatasetVariable": {"href": "/mdr/sdtm/2-0/datasets/SV/variables/SVSTDTC", "title": "Start Date/Time of Visit", "type": "SDTM Dataset Variable"}, "parentDataset": {"href": "/mdr/sdtmig/3-4/datasets/SV", "title": "Subject Visits", "type": "SDTM Dataset"}, "parentProduct": {"href": "/mdr/sdtmig/3-4", "title": "Study Data Tabulation Model Implementation Guide: Human Clinical Trials", "type": "Implementation Guide"}, "priorVersion": {"href": "/mdr/sdtmig/3-3/datasets/SV/variables/SVSTDTC", "title": "Start Date/Time of Visit", "type": "SDTM Dataset Variable"}, "rootItem": {"href": "/mdr/root/sdtmig/datasets/SV/variables/SVSTDTC", "title": "Version-agnostic anchor resource for SDTMIG variable SV.SVSTDTC", "type": "Root Data Element"}, "self": {"href": "/mdr/sdtmig/3-4/datasets/SV/variables/SVSTDTC", "title": "Start Date/Time of Observation", "type": "SDTM Dataset Variable"}}, "core": "Exp", "describedValueDomain": "ISO 8601 datetime or interval", "description": "Start date/time of an observation represented in IS0 8601 character format.", "label": "Start Date/Time of Observation", "name": "SVSTDTC", "ordinal": "12", "role": "Timing", "simpleDatatype": "Char"}, {"_links": {"modelDatasetVariable": {"href": "/mdr/sdtm/2-0/datasets/SV/variables/SVENDTC", "title": "End Date/Time of Visit", "type": "SDTM Dataset Variable"}, "parentDataset": {"href": "/mdr/sdtmig/3-4/datasets/SV", "title": "Subject Visits", "type": "SDTM Dataset"}, "parentProduct": {"href": "/mdr/sdtmig/3-4", "title": "Study Data Tabulation Model Implementation Guide: Human Clinical Trials", "type": "Implementation Guide"}, "priorVersion": {"href": "/mdr/sdtmig/3-3/datasets/SV/variables/SVENDTC", "title": "End Date/Time of Visit", "type": "SDTM Dataset Variable"}, "rootItem": {"href": "/mdr/root/sdtmig/datasets/SV/variables/SVENDTC", "title": "Version-agnostic anchor resource for SDTMIG variable SV.SVENDTC", "type": "Root Data Element"}, "self": {"href": "/mdr/sdtmig/3-4/datasets/SV/variables/SVENDTC", "title": "End Date/Time of Observation", "type": "SDTM Dataset Variable"}}, "core": "Exp", "describedValueDomain": "ISO 8601 datetime or interval", "description": "End date/time of the observation represented in IS0 8601 character format.", "label": "End Date/Time of Observation", "name": "SVENDTC", "ordinal": "13", "role": "Timing", "simpleDatatype": "Char"}, {"_links": {"modelDatasetVariable": {"href": "/mdr/sdtm/2-0/datasets/SV/variables/SVSTDY", "title": "Study Day of Start of Visit", "type": "SDTM Dataset Variable"}, "parentDataset": {"href": "/mdr/sdtmig/3-4/datasets/SV", "title": "Subject Visits", "type": "SDTM Dataset"}, "parentProduct": {"href": "/mdr/sdtmig/3-4", "title": "Study Data Tabulation Model Implementation Guide: Human Clinical Trials", "type": "Implementation Guide"}, "priorVersion": {"href": "/mdr/sdtmig/3-3/datasets/SV/variables/SVSTDY", "title": "Study Day of Start of Visit", "type": "SDTM Dataset Variable"}, "rootItem": {"href": "/mdr/root/sdtmig/datasets/SV/variables/SVSTDY", "title": "Version-agnostic anchor resource for SDTMIG variable SV.SVSTDY", "type": "Root Data Element"}, "self": {"href": "/mdr/sdtmig/3-4/datasets/SV/variables/SVSTDY", "title": "Study Day of Start of Observation", "type": "SDTM Dataset Variable"}}, "core": "Perm", "description": "Actual study day of start of observation expressed in integer days relative to the sponsor-defined RFSTDTC in Demographics.", "label": "Study Day of Start of Observation", "name": "SVSTDY", "ordinal": "14", "role": "Timing", "simpleDatatype": "Num"}, {"_links": {"modelDatasetVariable": {"href": "/mdr/sdtm/2-0/datasets/SV/variables/SVENDY", "title": "Study Day of End of Visit", "type": "SDTM Dataset Variable"}, "parentDataset": {"href": "/mdr/sdtmig/3-4/datasets/SV", "title": "Subject Visits", "type": "SDTM Dataset"}, "parentProduct": {"href": "/mdr/sdtmig/3-4", "title": "Study Data Tabulation Model Implementation Guide: Human Clinical Trials", "type": "Implementation Guide"}, "priorVersion": {"href": "/mdr/sdtmig/3-3/datasets/SV/variables/SVENDY", "title": "Study Day of End of Visit", "type": "SDTM Dataset Variable"}, "rootItem": {"href": "/mdr/root/sdtmig/datasets/SV/variables/SVENDY", "title": "Version-agnostic anchor resource for SDTMIG variable SV.SVENDY", "type": "Root Data Element"}, "self": {"href": "/mdr/sdtmig/3-4/datasets/SV/variables/SVENDY", "title": "Study Day of End of Observation", "type": "SDTM Dataset Variable"}}, "core": "Perm", "description": "Actual study day of end of observation expressed in integer days relative to the sponsor-defined RFSTDTC in Demographics.", "label": "Study Day of End of Observation", "name": "SVENDY", "ordinal": "15", "role": "Timing", "simpleDatatype": "Num"}, {"_links": {"modelDatasetVariable": {"href": "/mdr/sdtm/2-0/datasets/SV/variables/SVUPDES", "title": "Description of Unplanned Visit", "type": "SDTM Dataset Variable"}, "parentDataset": {"href": "/mdr/sdtmig/3-4/datasets/SV", "title": "Subject Visits", "type": "SDTM Dataset"}, "parentProduct": {"href": "/mdr/sdtmig/3-4", "title": "Study Data Tabulation Model Implementation Guide: Human Clinical Trials", "type": "Implementation Guide"}, "priorVersion": {"href": "/mdr/sdtmig/3-3/datasets/SV/variables/SVUPDES", "title": "Description of Unplanned Visit", "type": "SDTM Dataset Variable"}, "rootItem": {"href": "/mdr/root/sdtmig/datasets/SV/variables/SVUPDES", "title": "Version-agnostic anchor resource for SDTMIG variable SV.SVUPDES", "type": "Root Data Element"}, "self": {"href": "/mdr/sdtmig/3-4/datasets/SV/variables/SVUPDES", "title": "Description of Unplanned Visit", "type": "SDTM Dataset Variable"}}, "core": "Perm", "description": "Description of what happened to the subject during an unplanned visit. Only populated for unplanned visits.", "label": "Description of Unplanned Visit", "name": "SVUPDES", "ordinal": "16", "role": "Record Qualifier", "simpleDatatype": "Char"}], "description": "A special purpose domain that contains information for each subject's actual and planned visits.", "label": "Subject Visits", "name": "SV", "ordinal": "52"}
