{"_links": {"parentClass": {"href": "/mdr/sdtmig/3-4/classes/Findings", "title": "Findings", "type": "Class"}, "parentProduct": {"href": "/mdr/sdtmig/3-4", "title": "Study Data Tabulation Model Implementation Guide: Human Clinical Trials", "type": "Implementation Guide"}, "priorVersion": {"href": "/mdr/sdtmig/3-3/datasets/TU", "title": "Tumor/Lesion Identification", "type": "SDTM Dataset"}, "self": {"href": "/mdr/sdtmig/3-4/datasets/TU", "title": "Tumor/Lesion Identification", "type": "SDTM Dataset"}}, "datasetStructure": "One record per identified tumor per subject per assessor", "datasetVariables": [{"_links": {"modelClassVariable": {"href": "/mdr/sdtm/2-0/classes/GeneralObservations/variables/STUDYID", "title": "Study Identifier", "type": "SDTM Class Variable"}, "parentDataset": {"href": "/mdr/sdtmig/3-4/datasets/TU", "title": "Tumor/Lesion Identification", "type": "SDTM Dataset"}, "parentProduct": {"href": "/mdr/sdtmig/3-4", "title": "Study Data Tabulation Model Implementation Guide: Human Clinical Trials", "type": "Implementation Guide"}, "priorVersion": {"href": "/mdr/sdtmig/3-3/datasets/TU/variables/STUDYID", "title": "Study Identifier", "type": "SDTM Dataset Variable"}, "rootItem": {"href": "/mdr/root/sdtmig/datasets/TU/variables/STUDYID", "title": "Version-agnostic anchor resource for SDTMIG variable TU.STUDYID", "type": "Root Data Element"}, "self": {"href": "/mdr/sdtmig/3-4/datasets/TU/variables/STUDYID", "title": "Study Identifier", "type": "SDTM Dataset Variable"}}, "core": "Req", "description": "Unique identifier for a study.", "label": "Study Identifier", "name": "STUDYID", "ordinal": "1", "role": "Identifier", "simpleDatatype": "Char"}, {"_links": {"modelClassVariable": {"href": "/mdr/sdtm/2-0/classes/GeneralObservations/variables/DOMAIN", "title": "Domain Abbreviation", "type": "SDTM Class Variable"}, "parentDataset": {"href": "/mdr/sdtmig/3-4/datasets/TU", "title": "Tumor/Lesion Identification", "type": "SDTM Dataset"}, "parentProduct": {"href": "/mdr/sdtmig/3-4", "title": "Study Data Tabulation Model Implementation Guide: Human Clinical Trials", "type": "Implementation Guide"}, "priorVersion": {"href": "/mdr/sdtmig/3-3/datasets/TU/variables/DOMAIN", "title": "Domain Abbreviation", "type": "SDTM Dataset Variable"}, "rootItem": {"href": "/mdr/root/sdtmig/datasets/TU/variables/DOMAIN", "title": "Version-agnostic anchor resource for SDTMIG variable TU.DOMAIN", "type": "Root Data Element"}, "self": {"href": "/mdr/sdtmig/3-4/datasets/TU/variables/DOMAIN", "title": "Domain Abbreviation", "type": "SDTM Dataset Variable"}}, "core": "Req", "description": "Two-character abbreviation for the domain.", "label": "Domain Abbreviation", "name": "DOMAIN", "ordinal": "2", "role": "Identifier", "simpleDatatype": "Char", "valueList": ["TU"]}, {"_links": {"modelClassVariable": {"href": "/mdr/sdtm/2-0/classes/GeneralObservations/variables/USUBJID", "title": "Unique Subject Identifier", "type": "SDTM Class Variable"}, "parentDataset": {"href": "/mdr/sdtmig/3-4/datasets/TU", "title": "Tumor/Lesion Identification", "type": "SDTM Dataset"}, "parentProduct": {"href": "/mdr/sdtmig/3-4", "title": "Study Data Tabulation Model Implementation Guide: Human Clinical Trials", "type": "Implementation Guide"}, "priorVersion": {"href": "/mdr/sdtmig/3-3/datasets/TU/variables/USUBJID", "title": "Unique Subject Identifier", "type": "SDTM Dataset Variable"}, "rootItem": {"href": "/mdr/root/sdtmig/datasets/TU/variables/USUBJID", "title": "Version-agnostic anchor resource for SDTMIG variable TU.USUBJID", "type": "Root Data Element"}, "self": {"href": "/mdr/sdtmig/3-4/datasets/TU/variables/USUBJID", "title": "Unique Subject Identifier", "type": "SDTM Dataset Variable"}}, "core": "Req", "description": "Identifier used to uniquely identify a subject across all studies for all applications or submissions involving the product.", "label": "Unique Subject Identifier", "name": "USUBJID", "ordinal": "3", "role": "Identifier", "simpleDatatype": "Char"}, {"_links": {"modelClassVariable": {"href": "/mdr/sdtm/2-0/classes/GeneralObservations/variables/--SEQ", "title": "Sequence Number", "type": "SDTM Class Variable"}, "parentDataset": {"href": "/mdr/sdtmig/3-4/datasets/TU", "title": "Tumor/Lesion Identification", "type": "SDTM Dataset"}, "parentProduct": {"href": "/mdr/sdtmig/3-4", "title": "Study Data Tabulation Model Implementation Guide: Human Clinical Trials", "type": "Implementation Guide"}, "priorVersion": {"href": "/mdr/sdtmig/3-3/datasets/TU/variables/TUSEQ", "title": "Sequence Number", "type": "SDTM Dataset Variable"}, "rootItem": {"href": "/mdr/root/sdtmig/datasets/TU/variables/TUSEQ", "title": "Version-agnostic anchor resource for SDTMIG variable TU.TUSEQ", "type": "Root Data Element"}, "self": {"href": "/mdr/sdtmig/3-4/datasets/TU/variables/TUSEQ", "title": "Sequence Number", "type": "SDTM Dataset Variable"}}, "core": "Req", "description": "Sequence number given to ensure uniqueness within a dataset for a subject. May be any valid number.", "label": "Sequence Number", "name": "TUSEQ", "ordinal": "4", "role": "Identifier", "simpleDatatype": "Num"}, {"_links": {"modelClassVariable": {"href": "/mdr/sdtm/2-0/classes/GeneralObservations/variables/--GRPID", "title": "Group ID", "type": "SDTM Class Variable"}, "parentDataset": {"href": "/mdr/sdtmig/3-4/datasets/TU", "title": "Tumor/Lesion Identification", "type": "SDTM Dataset"}, "parentProduct": {"href": "/mdr/sdtmig/3-4", "title": "Study Data Tabulation Model Implementation Guide: Human Clinical Trials", "type": "Implementation Guide"}, "priorVersion": {"href": "/mdr/sdtmig/3-3/datasets/TU/variables/TUGRPID", "title": "Group ID", "type": "SDTM Dataset Variable"}, "rootItem": {"href": "/mdr/root/sdtmig/datasets/TU/variables/TUGRPID", "title": "Version-agnostic anchor resource for SDTMIG variable TU.TUGRPID", "type": "Root Data Element"}, "self": {"href": "/mdr/sdtmig/3-4/datasets/TU/variables/TUGRPID", "title": "Group ID", "type": "SDTM Dataset Variable"}}, "core": "Perm", "description": "Used to link together a block of related records within a subject in a domain. Can be used to group split or merged tumors/lesions which have been identified.", "label": "Group ID", "name": "TUGRPID", "ordinal": "5", "role": "Identifier", "simpleDatatype": "Char"}, {"_links": {"modelClassVariable": {"href": "/mdr/sdtm/2-0/classes/GeneralObservations/variables/--REFID", "title": "Reference ID", "type": "SDTM Class Variable"}, "parentDataset": {"href": "/mdr/sdtmig/3-4/datasets/TU", "title": "Tumor/Lesion Identification", "type": "SDTM Dataset"}, "parentProduct": {"href": "/mdr/sdtmig/3-4", "title": "Study Data Tabulation Model Implementation Guide: Human Clinical Trials", "type": "Implementation Guide"}, "priorVersion": {"href": "/mdr/sdtmig/3-3/datasets/TU/variables/TUREFID", "title": "Reference ID", "type": "SDTM Dataset Variable"}, "rootItem": {"href": "/mdr/root/sdtmig/datasets/TU/variables/TUREFID", "title": "Version-agnostic anchor resource for SDTMIG variable TU.TUREFID", "type": "Root Data Element"}, "self": {"href": "/mdr/sdtmig/3-4/datasets/TU/variables/TUREFID", "title": "Reference ID", "type": "SDTM Dataset Variable"}}, "core": "Perm", "description": "Internal or external identifier (e.g., medical image ID number).", "label": "Reference ID", "name": "TUREFID", "ordinal": "6", "role": "Identifier", "simpleDatatype": "Char"}, {"_links": {"modelClassVariable": {"href": "/mdr/sdtm/2-0/classes/GeneralObservations/variables/--SPID", "title": "Sponsor-Defined Identifier", "type": "SDTM Class Variable"}, "parentDataset": {"href": "/mdr/sdtmig/3-4/datasets/TU", "title": "Tumor/Lesion Identification", "type": "SDTM Dataset"}, "parentProduct": {"href": "/mdr/sdtmig/3-4", "title": "Study Data Tabulation Model Implementation Guide: Human Clinical Trials", "type": "Implementation Guide"}, "priorVersion": {"href": "/mdr/sdtmig/3-3/datasets/TU/variables/TUSPID", "title": "Sponsor-Defined Identifier", "type": "SDTM Dataset Variable"}, "rootItem": {"href": "/mdr/root/sdtmig/datasets/TU/variables/TUSPID", "title": "Version-agnostic anchor resource for SDTMIG variable TU.TUSPID", "type": "Root Data Element"}, "self": {"href": "/mdr/sdtmig/3-4/datasets/TU/variables/TUSPID", "title": "Sponsor-Defined Identifier", "type": "SDTM Dataset Variable"}}, "core": "Perm", "description": "Sponsor-defined identifier.", "label": "Sponsor-Defined Identifier", "name": "TUSPID", "ordinal": "7", "role": "Identifier", "simpleDatatype": "Char"}, {"_links": {"modelClassVariable": {"href": "/mdr/sdtm/2-0/classes/GeneralObservations/variables/--LNKID", "title": "Link ID", "type": "SDTM Class Variable"}, "parentDataset": {"href": "/mdr/sdtmig/3-4/datasets/TU", "title": "Tumor/Lesion Identification", "type": "SDTM Dataset"}, "parentProduct": {"href": "/mdr/sdtmig/3-4", "title": "Study Data Tabulation Model Implementation Guide: Human Clinical Trials", "type": "Implementation Guide"}, "priorVersion": {"href": "/mdr/sdtmig/3-3/datasets/TU/variables/TULNKID", "title": "Link ID", "type": "SDTM Dataset Variable"}, "rootItem": {"href": "/mdr/root/sdtmig/datasets/TU/variables/TULNKID", "title": "Version-agnostic anchor resource for SDTMIG variable TU.TULNKID", "type": "Root Data Element"}, "self": {"href": "/mdr/sdtmig/3-4/datasets/TU/variables/TULNKID", "title": "Link ID", "type": "SDTM Dataset Variable"}}, "core": "Exp", "description": "Identifier used to link identified tumor/lesion/location of interest to the assessment results (in TR domain) over the course of the study.", "label": "Link ID", "name": "TULNKID", "ordinal": "8", "role": "Identifier", "simpleDatatype": "Char"}, {"_links": {"modelClassVariable": {"href": "/mdr/sdtm/2-0/classes/GeneralObservations/variables/--LNKGRP", "title": "Link Group ID", "type": "SDTM Class Variable"}, "parentDataset": {"href": "/mdr/sdtmig/3-4/datasets/TU", "title": "Tumor/Lesion Identification", "type": "SDTM Dataset"}, "parentProduct": {"href": "/mdr/sdtmig/3-4", "title": "Study Data Tabulation Model Implementation Guide: Human Clinical Trials", "type": "Implementation Guide"}, "priorVersion": {"href": "/mdr/sdtmig/3-3/datasets/TU/variables/TULNKGRP", "title": "Link Group ID", "type": "SDTM Dataset Variable"}, "rootItem": {"href": "/mdr/root/sdtmig/datasets/TU/variables/TULNKGRP", "title": "Version-agnostic anchor resource for SDTMIG variable TU.TULNKGRP", "type": "Root Data Element"}, "self": {"href": "/mdr/sdtmig/3-4/datasets/TU/variables/TULNKGRP", "title": "Link Group ID", "type": "SDTM Dataset Variable"}}, "core": "Perm", "description": "Identifier used to link related records across domains. This will usually be a many-to-one relationship.", "label": "Link Group ID", "name": "TULNKGRP", "ordinal": "9", "role": "Identifier", "simpleDatatype": "Char"}, {"_links": {"codelist": [{"href": "/mdr/root/ct/sdtmct/codelists/C96784", "title": "Version-agnostic anchor resource for codelist C96784", "type": "Root Value Domain"}], "modelClassVariable": {"href": "/mdr/sdtm/2-0/classes/Findings/variables/--TESTCD", "title": "Short Name of Measurement, Test, or Exam", "type": "SDTM Class Variable"}, "parentDataset": {"href": "/mdr/sdtmig/3-4/datasets/TU", "title": "Tumor/Lesion Identification", "type": "SDTM Dataset"}, "parentProduct": {"href": "/mdr/sdtmig/3-4", "title": "Study Data Tabulation Model Implementation Guide: Human Clinical Trials", "type": "Implementation Guide"}, "priorVersion": {"href": "/mdr/sdtmig/3-3/datasets/TU/variables/TUTESTCD", "title": "Tumor/Lesion ID Short Name", "type": "SDTM Dataset Variable"}, "rootItem": {"href": "/mdr/root/sdtmig/datasets/TU/variables/TUTESTCD", "title": "Version-agnostic anchor resource for SDTMIG variable TU.TUTESTCD", "type": "Root Data Element"}, "self": {"href": "/mdr/sdtmig/3-4/datasets/TU/variables/TUTESTCD", "title": "Tumor/Lesion ID Short Name", "type": "SDTM Dataset Variable"}}, "core": "Req", "description": "Short name of the TEST in TUTEST. TUTESTCD cannot be longer than 8 characters nor can start with a number. TUTESTCD cannot contain characters other than letters, numbers, or underscores. Example: \"TUMIDENT\". See assumption 3.", "label": "Tumor/Lesion ID Short Name", "name": "TUTESTCD", "ordinal": "10", "role": "Topic", "simpleDatatype": "Char"}, {"_links": {"codelist": [{"href": "/mdr/root/ct/sdtmct/codelists/C96783", "title": "Version-agnostic anchor resource for codelist C96783", "type": "Root Value Domain"}], "modelClassVariable": {"href": "/mdr/sdtm/2-0/classes/Findings/variables/--TEST", "title": "Name of Measurement, Test, or Exam", "type": "SDTM Class Variable"}, "parentDataset": {"href": "/mdr/sdtmig/3-4/datasets/TU", "title": "Tumor/Lesion Identification", "type": "SDTM Dataset"}, "parentProduct": {"href": "/mdr/sdtmig/3-4", "title": "Study Data Tabulation Model Implementation Guide: Human Clinical Trials", "type": "Implementation Guide"}, "priorVersion": {"href": "/mdr/sdtmig/3-3/datasets/TU/variables/TUTEST", "title": "Tumor/Lesion ID Test Name", "type": "SDTM Dataset Variable"}, "rootItem": {"href": "/mdr/root/sdtmig/datasets/TU/variables/TUTEST", "title": "Version-agnostic anchor resource for SDTMIG variable TU.TUTEST", "type": "Root Data Element"}, "self": {"href": "/mdr/sdtmig/3-4/datasets/TU/variables/TUTEST", "title": "Tumor/Lesion ID Test Name", "type": "SDTM Dataset Variable"}}, "core": "Req", "description": "Verbatim name of the test for the tumor/lesion identification. The value in TUTEST cannot be longer than 40 characters. Example: \"Tumor identification\". See assumption 3.", "label": "Tumor/Lesion ID Test Name", "name": "TUTEST", "ordinal": "11", "role": "Synonym Qualifier", "simpleDatatype": "Char"}, {"_links": {"modelClassVariable": {"href": "/mdr/sdtm/2-0/classes/Findings/variables/--ORRES", "title": "Result or Finding in Original Units", "type": "SDTM Class Variable"}, "parentDataset": {"href": "/mdr/sdtmig/3-4/datasets/TU", "title": "Tumor/Lesion Identification", "type": "SDTM Dataset"}, "parentProduct": {"href": "/mdr/sdtmig/3-4", "title": "Study Data Tabulation Model Implementation Guide: Human Clinical Trials", "type": "Implementation Guide"}, "priorVersion": {"href": "/mdr/sdtmig/3-3/datasets/TU/variables/TUORRES", "title": "Tumor/Lesion ID Result", "type": "SDTM Dataset Variable"}, "rootItem": {"href": "/mdr/root/sdtmig/datasets/TU/variables/TUORRES", "title": "Version-agnostic anchor resource for SDTMIG variable TU.TUORRES", "type": "Root Data Element"}, "self": {"href": "/mdr/sdtmig/3-4/datasets/TU/variables/TUORRES", "title": "Tumor/Lesion ID Result", "type": "SDTM Dataset Variable"}}, "core": "Exp", "description": "Result of the tumor/lesion identification. The result of tumor/lesion identification is a classification of the identified tumor/lesion. Example: When TUTESTCD = \"TUMIDENT\", values of TUORRES might be \"TARGET\", \"NON-TARGET\", \"NEW\", or \"BENIGN ABNORMALITY\".", "label": "Tumor/Lesion ID Result", "name": "TUORRES", "ordinal": "12", "role": "Result Qualifier", "simpleDatatype": "Char"}, {"_links": {"codelist": [{"href": "/mdr/root/ct/sdtmct/codelists/C123650", "title": "Version-agnostic anchor resource for codelist C123650", "type": "Root Value Domain"}], "modelClassVariable": {"href": "/mdr/sdtm/2-0/classes/Findings/variables/--STRESC", "title": "Result or Finding in Standard Format", "type": "SDTM Class Variable"}, "parentDataset": {"href": "/mdr/sdtmig/3-4/datasets/TU", "title": "Tumor/Lesion Identification", "type": "SDTM Dataset"}, "parentProduct": {"href": "/mdr/sdtmig/3-4", "title": "Study Data Tabulation Model Implementation Guide: Human Clinical Trials", "type": "Implementation Guide"}, "priorVersion": {"href": "/mdr/sdtmig/3-3/datasets/TU/variables/TUSTRESC", "title": "Tumor/Lesion ID Result Std. Format", "type": "SDTM Dataset Variable"}, "rootItem": {"href": "/mdr/root/sdtmig/datasets/TU/variables/TUSTRESC", "title": "Version-agnostic anchor resource for SDTMIG variable TU.TUSTRESC", "type": "Root Data Element"}, "self": {"href": "/mdr/sdtmig/3-4/datasets/TU/variables/TUSTRESC", "title": "Tumor/Lesion ID Result Std. Format", "type": "SDTM Dataset Variable"}}, "core": "Exp", "description": "Contains the result value for all findings copied or derived from TUORRES in a standard format.", "label": "Tumor/Lesion ID Result Std. Format", "name": "TUSTRESC", "ordinal": "13", "role": "Result Qualifier", "simpleDatatype": "Char"}, {"_links": {"modelClassVariable": {"href": "/mdr/sdtm/2-0/classes/Findings/variables/--NAM", "title": "Laboratory/Vendor Name", "type": "SDTM Class Variable"}, "parentDataset": {"href": "/mdr/sdtmig/3-4/datasets/TU", "title": "Tumor/Lesion Identification", "type": "SDTM Dataset"}, "parentProduct": {"href": "/mdr/sdtmig/3-4", "title": "Study Data Tabulation Model Implementation Guide: Human Clinical Trials", "type": "Implementation Guide"}, "priorVersion": {"href": "/mdr/sdtmig/3-3/datasets/TU/variables/TUNAM", "title": "Laboratory/Vendor Name", "type": "SDTM Dataset Variable"}, "rootItem": {"href": "/mdr/root/sdtmig/datasets/TU/variables/TUNAM", "title": "Version-agnostic anchor resource for SDTMIG variable TU.TUNAM", "type": "Root Data Element"}, "self": {"href": "/mdr/sdtmig/3-4/datasets/TU/variables/TUNAM", "title": "Laboratory/Vendor Name", "type": "SDTM Dataset Variable"}}, "core": "Perm", "description": "The name or identifier of the vendor that performed the tumor/lesion Identification. This column can be left null when the investigator provides the complete set of data in the domain.", "label": "Laboratory/Vendor Name", "name": "TUNAM", "ordinal": "14", "role": "Record Qualifier", "simpleDatatype": "Char"}, {"_links": {"codelist": [{"href": "/mdr/root/ct/sdtmct/codelists/C74456", "title": "Version-agnostic anchor resource for codelist C74456", "type": "Root Value Domain"}], "modelClassVariable": {"href": "/mdr/sdtm/2-0/classes/Findings/variables/--LOC", "title": "Location Used for the Measurement", "type": "SDTM Class Variable"}, "parentDataset": {"href": "/mdr/sdtmig/3-4/datasets/TU", "title": "Tumor/Lesion Identification", "type": "SDTM Dataset"}, "parentProduct": {"href": "/mdr/sdtmig/3-4", "title": "Study Data Tabulation Model Implementation Guide: Human Clinical Trials", "type": "Implementation Guide"}, "priorVersion": {"href": "/mdr/sdtmig/3-3/datasets/TU/variables/TULOC", "title": "Location of the Tumor/Lesion", "type": "SDTM Dataset Variable"}, "rootItem": {"href": "/mdr/root/sdtmig/datasets/TU/variables/TULOC", "title": "Version-agnostic anchor resource for SDTMIG variable TU.TULOC", "type": "Root Data Element"}, "self": {"href": "/mdr/sdtmig/3-4/datasets/TU/variables/TULOC", "title": "Location of the Tumor/Lesion", "type": "SDTM Dataset Variable"}}, "core": "Exp", "description": "Used to specify the anatomical location of the identified tumor/lesion (e.g., \"LIVER\"). \\n Note: When anatomical location is broken down and collected as distinct pieces of data that when combined provide the overall location information (e.g., laterality/directionality/distribution), then additional anatomical location qualifiers should be used. See assumption 3.", "label": "Location of the Tumor/Lesion", "name": "TULOC", "ordinal": "15", "role": "Record Qualifier", "simpleDatatype": "Char"}, {"_links": {"codelist": [{"href": "/mdr/root/ct/sdtmct/codelists/C99073", "title": "Version-agnostic anchor resource for codelist C99073", "type": "Root Value Domain"}], "modelClassVariable": {"href": "/mdr/sdtm/2-0/classes/Findings/variables/--LAT", "title": "Laterality", "type": "SDTM Class Variable"}, "parentDataset": {"href": "/mdr/sdtmig/3-4/datasets/TU", "title": "Tumor/Lesion Identification", "type": "SDTM Dataset"}, "parentProduct": {"href": "/mdr/sdtmig/3-4", "title": "Study Data Tabulation Model Implementation Guide: Human Clinical Trials", "type": "Implementation Guide"}, "priorVersion": {"href": "/mdr/sdtmig/3-3/datasets/TU/variables/TULAT", "title": "Laterality", "type": "SDTM Dataset Variable"}, "rootItem": {"href": "/mdr/root/sdtmig/datasets/TU/variables/TULAT", "title": "Version-agnostic anchor resource for SDTMIG variable TU.TULAT", "type": "Root Data Element"}, "self": {"href": "/mdr/sdtmig/3-4/datasets/TU/variables/TULAT", "title": "Laterality", "type": "SDTM Dataset Variable"}}, "core": "Perm", "description": "Qualifier for anatomical location or specimen further detailing laterality (e.g., \"LEFT\", \"RIGHT\", \"BILATERAL\").", "label": "Laterality", "name": "TULAT", "ordinal": "16", "role": "Variable Qualifier", "simpleDatatype": "Char"}, {"_links": {"codelist": [{"href": "/mdr/root/ct/sdtmct/codelists/C99074", "title": "Version-agnostic anchor resource for codelist C99074", "type": "Root Value Domain"}], "modelClassVariable": {"href": "/mdr/sdtm/2-0/classes/Findings/variables/--DIR", "title": "Directionality", "type": "SDTM Class Variable"}, "parentDataset": {"href": "/mdr/sdtmig/3-4/datasets/TU", "title": "Tumor/Lesion Identification", "type": "SDTM Dataset"}, "parentProduct": {"href": "/mdr/sdtmig/3-4", "title": "Study Data Tabulation Model Implementation Guide: Human Clinical Trials", "type": "Implementation Guide"}, "priorVersion": {"href": "/mdr/sdtmig/3-3/datasets/TU/variables/TUDIR", "title": "Directionality", "type": "SDTM Dataset Variable"}, "rootItem": {"href": "/mdr/root/sdtmig/datasets/TU/variables/TUDIR", "title": "Version-agnostic anchor resource for SDTMIG variable TU.TUDIR", "type": "Root Data Element"}, "self": {"href": "/mdr/sdtmig/3-4/datasets/TU/variables/TUDIR", "title": "Directionality", "type": "SDTM Dataset Variable"}}, "core": "Perm", "description": "Qualifier for anatomical location or specimen further detailing directionality (e.g., \"UPPER\", \"INTERIOR\").", "label": "Directionality", "name": "TUDIR", "ordinal": "17", "role": "Variable Qualifier", "simpleDatatype": "Char"}, {"_links": {"codelist": [{"href": "/mdr/root/ct/sdtmct/codelists/C99075", "title": "Version-agnostic anchor resource for codelist C99075", "type": "Root Value Domain"}], "modelClassVariable": {"href": "/mdr/sdtm/2-0/classes/Findings/variables/--PORTOT", "title": "Portion or Totality", "type": "SDTM Class Variable"}, "parentDataset": {"href": "/mdr/sdtmig/3-4/datasets/TU", "title": "Tumor/Lesion Identification", "type": "SDTM Dataset"}, "parentProduct": {"href": "/mdr/sdtmig/3-4", "title": "Study Data Tabulation Model Implementation Guide: Human Clinical Trials", "type": "Implementation Guide"}, "priorVersion": {"href": "/mdr/sdtmig/3-3/datasets/TU/variables/TUPORTOT", "title": "Portion or Totality", "type": "SDTM Dataset Variable"}, "rootItem": {"href": "/mdr/root/sdtmig/datasets/TU/variables/TUPORTOT", "title": "Version-agnostic anchor resource for SDTMIG variable TU.TUPORTOT", "type": "Root Data Element"}, "self": {"href": "/mdr/sdtmig/3-4/datasets/TU/variables/TUPORTOT", "title": "Portion or Totality", "type": "SDTM Dataset Variable"}}, "core": "Perm", "description": "Qualifier for anatomical location or specimen further detailing the distribution, which means arrangement of, or apportioning of. Examples: \"ENTIRE\", \"SINGLE\", \"SEGMENT\", \"MULTIPLE\".", "label": "Portion or Totality", "name": "TUPORTOT", "ordinal": "18", "role": "Variable Qualifier", "simpleDatatype": "Char"}, {"_links": {"codelist": [{"href": "/mdr/root/ct/sdtmct/codelists/C85492", "title": "Version-agnostic anchor resource for codelist C85492", "type": "Root Value Domain"}], "modelClassVariable": {"href": "/mdr/sdtm/2-0/classes/Findings/variables/--METHOD", "title": "Method of Test or Examination", "type": "SDTM Class Variable"}, "parentDataset": {"href": "/mdr/sdtmig/3-4/datasets/TU", "title": "Tumor/Lesion Identification", "type": "SDTM Dataset"}, "parentProduct": {"href": "/mdr/sdtmig/3-4", "title": "Study Data Tabulation Model Implementation Guide: Human Clinical Trials", "type": "Implementation Guide"}, "priorVersion": {"href": "/mdr/sdtmig/3-3/datasets/TU/variables/TUMETHOD", "title": "Method of Identification", "type": "SDTM Dataset Variable"}, "rootItem": {"href": "/mdr/root/sdtmig/datasets/TU/variables/TUMETHOD", "title": "Version-agnostic anchor resource for SDTMIG variable TU.TUMETHOD", "type": "Root Data Element"}, "self": {"href": "/mdr/sdtmig/3-4/datasets/TU/variables/TUMETHOD", "title": "Method of Identification", "type": "SDTM Dataset Variable"}}, "core": "Exp", "description": "Method used to identify the tumor/lesion. Examples: \"MRI\", \"CT SCAN\".", "label": "Method of Identification", "name": "TUMETHOD", "ordinal": "19", "role": "Record Qualifier", "simpleDatatype": "Char"}, {"_links": {"codelist": [{"href": "/mdr/root/ct/sdtmct/codelists/C66742", "title": "Version-agnostic anchor resource for codelist C66742", "type": "Root Value Domain"}], "modelClassVariable": {"href": "/mdr/sdtm/2-0/classes/Findings/variables/--LOBXFL", "title": "Last Observation Before Exposure Flag", "type": "SDTM Class Variable"}, "parentDataset": {"href": "/mdr/sdtmig/3-4/datasets/TU", "title": "Tumor/Lesion Identification", "type": "SDTM Dataset"}, "parentProduct": {"href": "/mdr/sdtmig/3-4", "title": "Study Data Tabulation Model Implementation Guide: Human Clinical Trials", "type": "Implementation Guide"}, "priorVersion": {"href": "/mdr/sdtmig/3-3/datasets/TU/variables/TULOBXFL", "title": "Last Observation Before Exposure Flag", "type": "SDTM Dataset Variable"}, "rootItem": {"href": "/mdr/root/sdtmig/datasets/TU/variables/TULOBXFL", "title": "Version-agnostic anchor resource for SDTMIG variable TU.TULOBXFL", "type": "Root Data Element"}, "self": {"href": "/mdr/sdtmig/3-4/datasets/TU/variables/TULOBXFL", "title": "Last Observation Before Exposure Flag", "type": "SDTM Dataset Variable"}}, "core": "Exp", "description": "Operationally derived indicator used to identify the last non-missing value prior to RFXSTDTC. Should be \"Y\" or null.", "label": "Last Observation Before Exposure Flag", "name": "TULOBXFL", "ordinal": "20", "role": "Record Qualifier", "simpleDatatype": "Char"}, {"_links": {"codelist": [{"href": "/mdr/root/ct/sdtmct/codelists/C66742", "title": "Version-agnostic anchor resource for codelist C66742", "type": "Root Value Domain"}], "modelClassVariable": {"href": "/mdr/sdtm/2-0/classes/Findings/variables/--BLFL", "title": "Baseline Flag", "type": "SDTM Class Variable"}, "parentDataset": {"href": "/mdr/sdtmig/3-4/datasets/TU", "title": "Tumor/Lesion Identification", "type": "SDTM Dataset"}, "parentProduct": {"href": "/mdr/sdtmig/3-4", "title": "Study Data Tabulation Model Implementation Guide: Human Clinical Trials", "type": "Implementation Guide"}, "priorVersion": {"href": "/mdr/sdtmig/3-3/datasets/TU/variables/TUBLFL", "title": "Baseline Flag", "type": "SDTM Dataset Variable"}, "rootItem": {"href": "/mdr/root/sdtmig/datasets/TU/variables/TUBLFL", "title": "Version-agnostic anchor resource for SDTMIG variable TU.TUBLFL", "type": "Root Data Element"}, "self": {"href": "/mdr/sdtmig/3-4/datasets/TU/variables/TUBLFL", "title": "Baseline Flag", "type": "SDTM Dataset Variable"}}, "core": "Perm", "description": "Indicator used to identify a baseline value. Should be \"Y\" or null. Note that TUBLFL is retained for backward compatibility. The authoritative baseline flag for statistical analysis is in an ADaM dataset.", "label": "Baseline Flag", "name": "TUBLFL", "ordinal": "21", "role": "Record Qualifier", "simpleDatatype": "Char"}, {"_links": {"codelist": [{"href": "/mdr/root/ct/sdtmct/codelists/C78735", "title": "Version-agnostic anchor resource for codelist C78735", "type": "Root Value Domain"}], "modelClassVariable": {"href": "/mdr/sdtm/2-0/classes/Findings/variables/--EVAL", "title": "Evaluator", "type": "SDTM Class Variable"}, "parentDataset": {"href": "/mdr/sdtmig/3-4/datasets/TU", "title": "Tumor/Lesion Identification", "type": "SDTM Dataset"}, "parentProduct": {"href": "/mdr/sdtmig/3-4", "title": "Study Data Tabulation Model Implementation Guide: Human Clinical Trials", "type": "Implementation Guide"}, "priorVersion": {"href": "/mdr/sdtmig/3-3/datasets/TU/variables/TUEVAL", "title": "Evaluator", "type": "SDTM Dataset Variable"}, "rootItem": {"href": "/mdr/root/sdtmig/datasets/TU/variables/TUEVAL", "title": "Version-agnostic anchor resource for SDTMIG variable TU.TUEVAL", "type": "Root Data Element"}, "self": {"href": "/mdr/sdtmig/3-4/datasets/TU/variables/TUEVAL", "title": "Evaluator", "type": "SDTM Dataset Variable"}}, "core": "Exp", "description": "Role of the person who provided the evaluation. Examples: \"ADJUDICATION COMMITTEE\", \"INDEPENDENT ASSESSOR\". \\n This column can be left null when the investigator provides the complete set of data in the domain. However, the column should contain no null values when data from 1 or more independent assessors is included. For example, the rows attributed to the investigator should contain a value of \"INVESTIGATOR\".", "label": "Evaluator", "name": "TUEVAL", "ordinal": "22", "role": "Record Qualifier", "simpleDatatype": "Char"}, {"_links": {"codelist": [{"href": "/mdr/root/ct/sdtmct/codelists/C96777", "title": "Version-agnostic anchor resource for codelist C96777", "type": "Root Value Domain"}], "modelClassVariable": {"href": "/mdr/sdtm/2-0/classes/Findings/variables/--EVALID", "title": "Evaluator Identifier", "type": "SDTM Class Variable"}, "parentDataset": {"href": "/mdr/sdtmig/3-4/datasets/TU", "title": "Tumor/Lesion Identification", "type": "SDTM Dataset"}, "parentProduct": {"href": "/mdr/sdtmig/3-4", "title": "Study Data Tabulation Model Implementation Guide: Human Clinical Trials", "type": "Implementation Guide"}, "priorVersion": {"href": "/mdr/sdtmig/3-3/datasets/TU/variables/TUEVALID", "title": "Evaluator Identifier", "type": "SDTM Dataset Variable"}, "rootItem": {"href": "/mdr/root/sdtmig/datasets/TU/variables/TUEVALID", "title": "Version-agnostic anchor resource for SDTMIG variable TU.TUEVALID", "type": "Root Data Element"}, "self": {"href": "/mdr/sdtmig/3-4/datasets/TU/variables/TUEVALID", "title": "Evaluator Identifier", "type": "SDTM Dataset Variable"}}, "core": "Perm", "description": "Used to distinguish multiple evaluators with the same role recorded in --EVAL. Examples: \"RADIOLOGIST1\", \"RADIOLOGIST2\". See assumption 9.", "label": "Evaluator Identifier", "name": "TUEVALID", "ordinal": "23", "role": "Variable Qualifier", "simpleDatatype": "Char"}, {"_links": {"codelist": [{"href": "/mdr/root/ct/sdtmct/codelists/C66742", "title": "Version-agnostic anchor resource for codelist C66742", "type": "Root Value Domain"}], "modelClassVariable": {"href": "/mdr/sdtm/2-0/classes/Findings/variables/--ACPTFL", "title": "Accepted Record Flag", "type": "SDTM Class Variable"}, "parentDataset": {"href": "/mdr/sdtmig/3-4/datasets/TU", "title": "Tumor/Lesion Identification", "type": "SDTM Dataset"}, "parentProduct": {"href": "/mdr/sdtmig/3-4", "title": "Study Data Tabulation Model Implementation Guide: Human Clinical Trials", "type": "Implementation Guide"}, "priorVersion": {"href": "/mdr/sdtmig/3-3/datasets/TU/variables/TUACPTFL", "title": "Accepted Record Flag", "type": "SDTM Dataset Variable"}, "rootItem": {"href": "/mdr/root/sdtmig/datasets/TU/variables/TUACPTFL", "title": "Version-agnostic anchor resource for SDTMIG variable TU.TUACPTFL", "type": "Root Data Element"}, "self": {"href": "/mdr/sdtmig/3-4/datasets/TU/variables/TUACPTFL", "title": "Accepted Record Flag", "type": "SDTM Dataset Variable"}}, "core": "Perm", "description": "In cases where more than 1 independent assessor (e.g., \"RADIOLOGIST 1\", \"RADIOLOGIST 2\", \"ADJUDICATION COMMITTEE\") provide independent assessments at the same time point, this flag identifies the record that is considered to be the accepted assessment.", "label": "Accepted Record Flag", "name": "TUACPTFL", "ordinal": "24", "role": "Record Qualifier", "simpleDatatype": "Char"}, {"_links": {"modelClassVariable": {"href": "/mdr/sdtm/2-0/classes/GeneralObservations/variables/VISITNUM", "title": "Visit Number", "type": "SDTM Class Variable"}, "parentDataset": {"href": "/mdr/sdtmig/3-4/datasets/TU", "title": "Tumor/Lesion Identification", "type": "SDTM Dataset"}, "parentProduct": {"href": "/mdr/sdtmig/3-4", "title": "Study Data Tabulation Model Implementation Guide: Human Clinical Trials", "type": "Implementation Guide"}, "priorVersion": {"href": "/mdr/sdtmig/3-3/datasets/TU/variables/VISITNUM", "title": "Visit Number", "type": "SDTM Dataset Variable"}, "rootItem": {"href": "/mdr/root/sdtmig/datasets/TU/variables/VISITNUM", "title": "Version-agnostic anchor resource for SDTMIG variable TU.VISITNUM", "type": "Root Data Element"}, "self": {"href": "/mdr/sdtmig/3-4/datasets/TU/variables/VISITNUM", "title": "Visit Number", "type": "SDTM Dataset Variable"}}, "core": "Exp", "description": "Clinical encounter number. Numeric version of VISIT, used for sorting.", "label": "Visit Number", "name": "VISITNUM", "ordinal": "25", "role": "Timing", "simpleDatatype": "Num"}, {"_links": {"modelClassVariable": {"href": "/mdr/sdtm/2-0/classes/GeneralObservations/variables/VISIT", "title": "Visit Name", "type": "SDTM Class Variable"}, "parentDataset": {"href": "/mdr/sdtmig/3-4/datasets/TU", "title": "Tumor/Lesion Identification", "type": "SDTM Dataset"}, "parentProduct": {"href": "/mdr/sdtmig/3-4", "title": "Study Data Tabulation Model Implementation Guide: Human Clinical Trials", "type": "Implementation Guide"}, "priorVersion": {"href": "/mdr/sdtmig/3-3/datasets/TU/variables/VISIT", "title": "Visit Name", "type": "SDTM Dataset Variable"}, "rootItem": {"href": "/mdr/root/sdtmig/datasets/TU/variables/VISIT", "title": "Version-agnostic anchor resource for SDTMIG variable TU.VISIT", "type": "Root Data Element"}, "self": {"href": "/mdr/sdtmig/3-4/datasets/TU/variables/VISIT", "title": "Visit Name", "type": "SDTM Dataset Variable"}}, "core": "Perm", "description": "Protocol-defined description of a clinical encounter.", "label": "Visit Name", "name": "VISIT", "ordinal": "26", "role": "Timing", "simpleDatatype": "Char"}, {"_links": {"modelClassVariable": {"href": "/mdr/sdtm/2-0/classes/GeneralObservations/variables/VISITDY", "title": "Planned Study Day of Visit", "type": "SDTM Class Variable"}, "parentDataset": {"href": "/mdr/sdtmig/3-4/datasets/TU", "title": "Tumor/Lesion Identification", "type": "SDTM Dataset"}, "parentProduct": {"href": "/mdr/sdtmig/3-4", "title": "Study Data Tabulation Model Implementation Guide: Human Clinical Trials", "type": "Implementation Guide"}, "priorVersion": {"href": "/mdr/sdtmig/3-3/datasets/TU/variables/VISITDY", "title": "Planned Study Day of Visit", "type": "SDTM Dataset Variable"}, "rootItem": {"href": "/mdr/root/sdtmig/datasets/TU/variables/VISITDY", "title": "Version-agnostic anchor resource for SDTMIG variable TU.VISITDY", "type": "Root Data Element"}, "self": {"href": "/mdr/sdtmig/3-4/datasets/TU/variables/VISITDY", "title": "Planned Study Day of Visit", "type": "SDTM Dataset Variable"}}, "core": "Perm", "description": "Planned study day of the visit based upon RFSTDTC in Demographics. Should be an integer.", "label": "Planned Study Day of Visit", "name": "VISITDY", "ordinal": "27", "role": "Timing", "simpleDatatype": "Num"}, {"_links": {"modelClassVariable": {"href": "/mdr/sdtm/2-0/classes/GeneralObservations/variables/TAETORD", "title": "Planned Order of Element Within Arm", "type": "SDTM Class Variable"}, "parentDataset": {"href": "/mdr/sdtmig/3-4/datasets/TU", "title": "Tumor/Lesion Identification", "type": "SDTM Dataset"}, "parentProduct": {"href": "/mdr/sdtmig/3-4", "title": "Study Data Tabulation Model Implementation Guide: Human Clinical Trials", "type": "Implementation Guide"}, "priorVersion": {"href": "/mdr/sdtmig/3-3/datasets/TU/variables/TAETORD", "title": "Planned Order of Element within Arm", "type": "SDTM Dataset Variable"}, "rootItem": {"href": "/mdr/root/sdtmig/datasets/TU/variables/TAETORD", "title": "Version-agnostic anchor resource for SDTMIG variable TU.TAETORD", "type": "Root Data Element"}, "self": {"href": "/mdr/sdtmig/3-4/datasets/TU/variables/TAETORD", "title": "Planned Order of Element within Arm", "type": "SDTM Dataset Variable"}}, "core": "Perm", "description": "Number that gives the planned order of the element within the arm for the element in which the assessment was made.", "label": "Planned Order of Element within Arm", "name": "TAETORD", "ordinal": "28", "role": "Timing", "simpleDatatype": "Num"}, {"_links": {"codelist": [{"href": "/mdr/root/ct/sdtmct/codelists/C99079", "title": "Version-agnostic anchor resource for codelist C99079", "type": "Root Value Domain"}], "modelClassVariable": {"href": "/mdr/sdtm/2-0/classes/GeneralObservations/variables/EPOCH", "title": "Epoch", "type": "SDTM Class Variable"}, "parentDataset": {"href": "/mdr/sdtmig/3-4/datasets/TU", "title": "Tumor/Lesion Identification", "type": "SDTM Dataset"}, "parentProduct": {"href": "/mdr/sdtmig/3-4", "title": "Study Data Tabulation Model Implementation Guide: Human Clinical Trials", "type": "Implementation Guide"}, "priorVersion": {"href": "/mdr/sdtmig/3-3/datasets/TU/variables/EPOCH", "title": "Epoch", "type": "SDTM Dataset Variable"}, "rootItem": {"href": "/mdr/root/sdtmig/datasets/TU/variables/EPOCH", "title": "Version-agnostic anchor resource for SDTMIG variable TU.EPOCH", "type": "Root Data Element"}, "self": {"href": "/mdr/sdtmig/3-4/datasets/TU/variables/EPOCH", "title": "Epoch", "type": "SDTM Dataset Variable"}}, "core": "Perm", "description": "Epoch associated with the date/time at which the assessment was made.", "label": "Epoch", "name": "EPOCH", "ordinal": "29", "role": "Timing", "simpleDatatype": "Char"}, {"_links": {"modelClassVariable": {"href": "/mdr/sdtm/2-0/classes/GeneralObservations/variables/--DTC", "title": "Date/Time of Collection", "type": "SDTM Class Variable"}, "parentDataset": {"href": "/mdr/sdtmig/3-4/datasets/TU", "title": "Tumor/Lesion Identification", "type": "SDTM Dataset"}, "parentProduct": {"href": "/mdr/sdtmig/3-4", "title": "Study Data Tabulation Model Implementation Guide: Human Clinical Trials", "type": "Implementation Guide"}, "priorVersion": {"href": "/mdr/sdtmig/3-3/datasets/TU/variables/TUDTC", "title": "Date/Time of Tumor/Lesion Identification", "type": "SDTM Dataset Variable"}, "rootItem": {"href": "/mdr/root/sdtmig/datasets/TU/variables/TUDTC", "title": "Version-agnostic anchor resource for SDTMIG variable TU.TUDTC", "type": "Root Data Element"}, "self": {"href": "/mdr/sdtmig/3-4/datasets/TU/variables/TUDTC", "title": "Date/Time of Tumor/Lesion Identification", "type": "SDTM Dataset Variable"}}, "core": "Exp", "describedValueDomain": "ISO 8601 datetime or interval", "description": "TUDTC variable represents the date of the scan/image/physical exam. TUDTC does not represent the date that the image was read to identify tumors. TUDTC also does not represent the VISIT date.", "label": "Date/Time of Tumor/Lesion Identification", "name": "TUDTC", "ordinal": "30", "role": "Timing", "simpleDatatype": "Char"}, {"_links": {"modelClassVariable": {"href": "/mdr/sdtm/2-0/classes/GeneralObservations/variables/--DY", "title": "Study Day of Visit/Collection/Exam", "type": "SDTM Class Variable"}, "parentDataset": {"href": "/mdr/sdtmig/3-4/datasets/TU", "title": "Tumor/Lesion Identification", "type": "SDTM Dataset"}, "parentProduct": {"href": "/mdr/sdtmig/3-4", "title": "Study Data Tabulation Model Implementation Guide: Human Clinical Trials", "type": "Implementation Guide"}, "priorVersion": {"href": "/mdr/sdtmig/3-3/datasets/TU/variables/TUDY", "title": "Study Day of Tumor/Lesion Identification", "type": "SDTM Dataset Variable"}, "rootItem": {"href": "/mdr/root/sdtmig/datasets/TU/variables/TUDY", "title": "Version-agnostic anchor resource for SDTMIG variable TU.TUDY", "type": "Root Data Element"}, "self": {"href": "/mdr/sdtmig/3-4/datasets/TU/variables/TUDY", "title": "Study Day of Tumor/Lesion Identification", "type": "SDTM Dataset Variable"}}, "core": "Perm", "description": "Study day of the scan/image/physical exam, measured as integer days. Algorithm for calculations must be relative to the sponsor-defined RFSTDTC variable in Demographics.", "label": "Study Day of Tumor/Lesion Identification", "name": "TUDY", "ordinal": "31", "role": "Timing", "simpleDatatype": "Num"}], "description": "A findings domain that represents data that uniquely identifies tumors, lesions, or locations of interest under study.", "label": "Tumor/Lesion Identification", "name": "TU", "ordinal": "60"}
