{"_links": {"parentClass": {"href": "/mdr/sdtmig/3-4/classes/Findings", "title": "Findings", "type": "Class"}, "parentProduct": {"href": "/mdr/sdtmig/3-4", "title": "Study Data Tabulation Model Implementation Guide: Human Clinical Trials", "type": "Implementation Guide"}, "priorVersion": {"href": "/mdr/sdtmig/3-3/datasets/UR", "title": "Urinary System Findings", "type": "SDTM Dataset"}, "self": {"href": "/mdr/sdtmig/3-4/datasets/UR", "title": "Urinary System Findings", "type": "SDTM Dataset"}}, "datasetStructure": "One record per finding per location per per visit per subject", "datasetVariables": [{"_links": {"modelClassVariable": {"href": "/mdr/sdtm/2-0/classes/GeneralObservations/variables/STUDYID", "title": "Study Identifier", "type": "SDTM Class Variable"}, "parentDataset": {"href": "/mdr/sdtmig/3-4/datasets/UR", "title": "Urinary System Findings", "type": "SDTM Dataset"}, "parentProduct": {"href": "/mdr/sdtmig/3-4", "title": "Study Data Tabulation Model Implementation Guide: Human Clinical Trials", "type": "Implementation Guide"}, "priorVersion": {"href": "/mdr/sdtmig/3-3/datasets/UR/variables/STUDYID", "title": "Study Identifier", "type": "SDTM Dataset Variable"}, "rootItem": {"href": "/mdr/root/sdtmig/datasets/UR/variables/STUDYID", "title": "Version-agnostic anchor resource for SDTMIG variable UR.STUDYID", "type": "Root Data Element"}, "self": {"href": "/mdr/sdtmig/3-4/datasets/UR/variables/STUDYID", "title": "Study Identifier", "type": "SDTM Dataset Variable"}}, "core": "Req", "description": "Unique identifier for a study.", "label": "Study Identifier", "name": "STUDYID", "ordinal": "1", "role": "Identifier", "simpleDatatype": "Char"}, {"_links": {"modelClassVariable": {"href": "/mdr/sdtm/2-0/classes/GeneralObservations/variables/DOMAIN", "title": "Domain Abbreviation", "type": "SDTM Class Variable"}, "parentDataset": {"href": "/mdr/sdtmig/3-4/datasets/UR", "title": "Urinary System Findings", "type": "SDTM Dataset"}, "parentProduct": {"href": "/mdr/sdtmig/3-4", "title": "Study Data Tabulation Model Implementation Guide: Human Clinical Trials", "type": "Implementation Guide"}, "priorVersion": {"href": "/mdr/sdtmig/3-3/datasets/UR/variables/DOMAIN", "title": "Domain Abbreviation", "type": "SDTM Dataset Variable"}, "rootItem": {"href": "/mdr/root/sdtmig/datasets/UR/variables/DOMAIN", "title": "Version-agnostic anchor resource for SDTMIG variable UR.DOMAIN", "type": "Root Data Element"}, "self": {"href": "/mdr/sdtmig/3-4/datasets/UR/variables/DOMAIN", "title": "Domain Abbreviation", "type": "SDTM Dataset Variable"}}, "core": "Req", "description": "Two-character abbreviation for the domain.", "label": "Domain Abbreviation", "name": "DOMAIN", "ordinal": "2", "role": "Identifier", "simpleDatatype": "Char", "valueList": ["UR"]}, {"_links": {"modelClassVariable": {"href": "/mdr/sdtm/2-0/classes/GeneralObservations/variables/USUBJID", "title": "Unique Subject Identifier", "type": "SDTM Class Variable"}, "parentDataset": {"href": "/mdr/sdtmig/3-4/datasets/UR", "title": "Urinary System Findings", "type": "SDTM Dataset"}, "parentProduct": {"href": "/mdr/sdtmig/3-4", "title": "Study Data Tabulation Model Implementation Guide: Human Clinical Trials", "type": "Implementation Guide"}, "priorVersion": {"href": "/mdr/sdtmig/3-3/datasets/UR/variables/USUBJID", "title": "Unique Subject Identifier", "type": "SDTM Dataset Variable"}, "rootItem": {"href": "/mdr/root/sdtmig/datasets/UR/variables/USUBJID", "title": "Version-agnostic anchor resource for SDTMIG variable UR.USUBJID", "type": "Root Data Element"}, "self": {"href": "/mdr/sdtmig/3-4/datasets/UR/variables/USUBJID", "title": "Unique Subject Identifier", "type": "SDTM Dataset Variable"}}, "core": "Req", "description": "Identifier used to uniquely identify a subject across all studies for all applications or submissions involving the product.", "label": "Unique Subject Identifier", "name": "USUBJID", "ordinal": "3", "role": "Identifier", "simpleDatatype": "Char"}, {"_links": {"modelClassVariable": {"href": "/mdr/sdtm/2-0/classes/GeneralObservations/variables/--SEQ", "title": "Sequence Number", "type": "SDTM Class Variable"}, "parentDataset": {"href": "/mdr/sdtmig/3-4/datasets/UR", "title": "Urinary System Findings", "type": "SDTM Dataset"}, "parentProduct": {"href": "/mdr/sdtmig/3-4", "title": "Study Data Tabulation Model Implementation Guide: Human Clinical Trials", "type": "Implementation Guide"}, "priorVersion": {"href": "/mdr/sdtmig/3-3/datasets/UR/variables/URSEQ", "title": "Sequence Number", "type": "SDTM Dataset Variable"}, "rootItem": {"href": "/mdr/root/sdtmig/datasets/UR/variables/URSEQ", "title": "Version-agnostic anchor resource for SDTMIG variable UR.URSEQ", "type": "Root Data Element"}, "self": {"href": "/mdr/sdtmig/3-4/datasets/UR/variables/URSEQ", "title": "Sequence Number", "type": "SDTM Dataset Variable"}}, "core": "Req", "description": "Sequence number to ensure uniqueness of records within a dataset for a subject. May be any valid number (including decimals) and does not have to start at 1.", "label": "Sequence Number", "name": "URSEQ", "ordinal": "4", "role": "Identifier", "simpleDatatype": "Num"}, {"_links": {"modelClassVariable": {"href": "/mdr/sdtm/2-0/classes/GeneralObservations/variables/--GRPID", "title": "Group ID", "type": "SDTM Class Variable"}, "parentDataset": {"href": "/mdr/sdtmig/3-4/datasets/UR", "title": "Urinary System Findings", "type": "SDTM Dataset"}, "parentProduct": {"href": "/mdr/sdtmig/3-4", "title": "Study Data Tabulation Model Implementation Guide: Human Clinical Trials", "type": "Implementation Guide"}, "priorVersion": {"href": "/mdr/sdtmig/3-3/datasets/UR/variables/URGRPID", "title": "Group ID", "type": "SDTM Dataset Variable"}, "rootItem": {"href": "/mdr/root/sdtmig/datasets/UR/variables/URGRPID", "title": "Version-agnostic anchor resource for SDTMIG variable UR.URGRPID", "type": "Root Data Element"}, "self": {"href": "/mdr/sdtmig/3-4/datasets/UR/variables/URGRPID", "title": "Group ID", "type": "SDTM Dataset Variable"}}, "core": "Perm", "description": "Optional group identifier, used to link together a block of related records within a subject in a domain.", "label": "Group ID", "name": "URGRPID", "ordinal": "5", "role": "Identifier", "simpleDatatype": "Char"}, {"_links": {"modelClassVariable": {"href": "/mdr/sdtm/2-0/classes/GeneralObservations/variables/--REFID", "title": "Reference ID", "type": "SDTM Class Variable"}, "parentDataset": {"href": "/mdr/sdtmig/3-4/datasets/UR", "title": "Urinary System Findings", "type": "SDTM Dataset"}, "parentProduct": {"href": "/mdr/sdtmig/3-4", "title": "Study Data Tabulation Model Implementation Guide: Human Clinical Trials", "type": "Implementation Guide"}, "priorVersion": {"href": "/mdr/sdtmig/3-3/datasets/UR/variables/URREFID", "title": "Reference ID", "type": "SDTM Dataset Variable"}, "rootItem": {"href": "/mdr/root/sdtmig/datasets/UR/variables/URREFID", "title": "Version-agnostic anchor resource for SDTMIG variable UR.URREFID", "type": "Root Data Element"}, "self": {"href": "/mdr/sdtmig/3-4/datasets/UR/variables/URREFID", "title": "Reference ID", "type": "SDTM Dataset Variable"}}, "core": "Perm", "description": "Optional internal or external identifier (e.g., lab specimen ID, universally unique identifier (UUID) for a medical image).", "label": "Reference ID", "name": "URREFID", "ordinal": "6", "role": "Identifier", "simpleDatatype": "Char"}, {"_links": {"modelClassVariable": {"href": "/mdr/sdtm/2-0/classes/GeneralObservations/variables/--SPID", "title": "Sponsor-Defined Identifier", "type": "SDTM Class Variable"}, "parentDataset": {"href": "/mdr/sdtmig/3-4/datasets/UR", "title": "Urinary System Findings", "type": "SDTM Dataset"}, "parentProduct": {"href": "/mdr/sdtmig/3-4", "title": "Study Data Tabulation Model Implementation Guide: Human Clinical Trials", "type": "Implementation Guide"}, "priorVersion": {"href": "/mdr/sdtmig/3-3/datasets/UR/variables/URSPID", "title": "Sponsor-Defined Identifier", "type": "SDTM Dataset Variable"}, "rootItem": {"href": "/mdr/root/sdtmig/datasets/UR/variables/URSPID", "title": "Version-agnostic anchor resource for SDTMIG variable UR.URSPID", "type": "Root Data Element"}, "self": {"href": "/mdr/sdtmig/3-4/datasets/UR/variables/URSPID", "title": "Sponsor-Defined Identifier", "type": "SDTM Dataset Variable"}}, "core": "Perm", "description": "Sponsor-defined identifier. Example: Preprinted line identifier.", "label": "Sponsor-Defined Identifier", "name": "URSPID", "ordinal": "7", "role": "Identifier", "simpleDatatype": "Char"}, {"_links": {"modelClassVariable": {"href": "/mdr/sdtm/2-0/classes/GeneralObservations/variables/--LNKID", "title": "Link ID", "type": "SDTM Class Variable"}, "parentDataset": {"href": "/mdr/sdtmig/3-4/datasets/UR", "title": "Urinary System Findings", "type": "SDTM Dataset"}, "parentProduct": {"href": "/mdr/sdtmig/3-4", "title": "Study Data Tabulation Model Implementation Guide: Human Clinical Trials", "type": "Implementation Guide"}, "priorVersion": {"href": "/mdr/sdtmig/3-3/datasets/UR/variables/URLNKID", "title": "Link ID", "type": "SDTM Dataset Variable"}, "rootItem": {"href": "/mdr/root/sdtmig/datasets/UR/variables/URLNKID", "title": "Version-agnostic anchor resource for SDTMIG variable UR.URLNKID", "type": "Root Data Element"}, "self": {"href": "/mdr/sdtmig/3-4/datasets/UR/variables/URLNKID", "title": "Link ID", "type": "SDTM Dataset Variable"}}, "core": "Perm", "description": "Identifier used to link related records across domains. This may be a one-to-one or a one-to-many relationship.", "label": "Link ID", "name": "URLNKID", "ordinal": "8", "role": "Identifier", "simpleDatatype": "Char"}, {"_links": {"modelClassVariable": {"href": "/mdr/sdtm/2-0/classes/GeneralObservations/variables/--LNKGRP", "title": "Link Group ID", "type": "SDTM Class Variable"}, "parentDataset": {"href": "/mdr/sdtmig/3-4/datasets/UR", "title": "Urinary System Findings", "type": "SDTM Dataset"}, "parentProduct": {"href": "/mdr/sdtmig/3-4", "title": "Study Data Tabulation Model Implementation Guide: Human Clinical Trials", "type": "Implementation Guide"}, "priorVersion": {"href": "/mdr/sdtmig/3-3/datasets/UR/variables/URLNKGRP", "title": "Link Group ID", "type": "SDTM Dataset Variable"}, "rootItem": {"href": "/mdr/root/sdtmig/datasets/UR/variables/URLNKGRP", "title": "Version-agnostic anchor resource for SDTMIG variable UR.URLNKGRP", "type": "Root Data Element"}, "self": {"href": "/mdr/sdtmig/3-4/datasets/UR/variables/URLNKGRP", "title": "Link Group ID", "type": "SDTM Dataset Variable"}}, "core": "Perm", "description": "Identifier used to link related records across domains. This will usually be a many-to-one relationship.", "label": "Link Group ID", "name": "URLNKGRP", "ordinal": "9", "role": "Identifier", "simpleDatatype": "Char"}, {"_links": {"codelist": [{"href": "/mdr/root/ct/sdtmct/codelists/C129942", "title": "Version-agnostic anchor resource for codelist C129942", "type": "Root Value Domain"}], "modelClassVariable": {"href": "/mdr/sdtm/2-0/classes/Findings/variables/--TESTCD", "title": "Short Name of Measurement, Test, or Exam", "type": "SDTM Class Variable"}, "parentDataset": {"href": "/mdr/sdtmig/3-4/datasets/UR", "title": "Urinary System Findings", "type": "SDTM Dataset"}, "parentProduct": {"href": "/mdr/sdtmig/3-4", "title": "Study Data Tabulation Model Implementation Guide: Human Clinical Trials", "type": "Implementation Guide"}, "priorVersion": {"href": "/mdr/sdtmig/3-3/datasets/UR/variables/URTESTCD", "title": "Short Name of Urinary Test", "type": "SDTM Dataset Variable"}, "rootItem": {"href": "/mdr/root/sdtmig/datasets/UR/variables/URTESTCD", "title": "Version-agnostic anchor resource for SDTMIG variable UR.URTESTCD", "type": "Root Data Element"}, "self": {"href": "/mdr/sdtmig/3-4/datasets/UR/variables/URTESTCD", "title": "Short Name of Urinary Test", "type": "SDTM Dataset Variable"}}, "core": "Req", "description": "Short character value for URTEST used as a column name when converting a dataset from a vertical format to a horizontal format. It can be used as a column name when converting a dataset from a vertical to a horizontal format. The value in URTESTCD cannot be longer than 8 characters, nor can it start with a number (e.g., \"1TEST\" is not valid). URTESTCD cannot contain characters other than letters, numbers, or underscores. Examples: \"COUNT\", \"LENGTH\", \"RBLDFLW\".", "label": "Short Name of Urinary Test", "name": "URTESTCD", "ordinal": "10", "role": "Topic", "simpleDatatype": "Char"}, {"_links": {"codelist": [{"href": "/mdr/root/ct/sdtmct/codelists/C129941", "title": "Version-agnostic anchor resource for codelist C129941", "type": "Root Value Domain"}], "modelClassVariable": {"href": "/mdr/sdtm/2-0/classes/Findings/variables/--TEST", "title": "Name of Measurement, Test, or Exam", "type": "SDTM Class Variable"}, "parentDataset": {"href": "/mdr/sdtmig/3-4/datasets/UR", "title": "Urinary System Findings", "type": "SDTM Dataset"}, "parentProduct": {"href": "/mdr/sdtmig/3-4", "title": "Study Data Tabulation Model Implementation Guide: Human Clinical Trials", "type": "Implementation Guide"}, "priorVersion": {"href": "/mdr/sdtmig/3-3/datasets/UR/variables/URTEST", "title": "Name of Urinary Test", "type": "SDTM Dataset Variable"}, "rootItem": {"href": "/mdr/root/sdtmig/datasets/UR/variables/URTEST", "title": "Version-agnostic anchor resource for SDTMIG variable UR.URTEST", "type": "Root Data Element"}, "self": {"href": "/mdr/sdtmig/3-4/datasets/UR/variables/URTEST", "title": "Name of Urinary Test", "type": "SDTM Dataset Variable"}}, "core": "Req", "description": "Long name For URTESTCD. Examples: \"Count\", \"Length\", \"Renal Blood Flow\".", "label": "Name of Urinary Test", "name": "URTEST", "ordinal": "11", "role": "Synonym Qualifier", "simpleDatatype": "Char"}, {"_links": {"modelClassVariable": {"href": "/mdr/sdtm/2-0/classes/Findings/variables/--TSTDTL", "title": "Measurement, Test, or Examination Detail", "type": "SDTM Class Variable"}, "parentDataset": {"href": "/mdr/sdtmig/3-4/datasets/UR", "title": "Urinary System Findings", "type": "SDTM Dataset"}, "parentProduct": {"href": "/mdr/sdtmig/3-4", "title": "Study Data Tabulation Model Implementation Guide: Human Clinical Trials", "type": "Implementation Guide"}, "priorVersion": {"href": "/mdr/sdtmig/3-3/datasets/UR/variables/URTSTDTL", "title": "Urinary Test Detail", "type": "SDTM Dataset Variable"}, "rootItem": {"href": "/mdr/root/sdtmig/datasets/UR/variables/URTSTDTL", "title": "Version-agnostic anchor resource for SDTMIG variable UR.URTSTDTL", "type": "Root Data Element"}, "self": {"href": "/mdr/sdtmig/3-4/datasets/UR/variables/URTSTDTL", "title": "Urinary Test Detail", "type": "SDTM Dataset Variable"}}, "core": "Perm", "description": "Further description of URTESTCD and URTEST.", "label": "Urinary Test Detail", "name": "URTSTDTL", "ordinal": "12", "role": "Variable Qualifier", "simpleDatatype": "Char"}, {"_links": {"modelClassVariable": {"href": "/mdr/sdtm/2-0/classes/Findings/variables/--CAT", "title": "Category", "type": "SDTM Class Variable"}, "parentDataset": {"href": "/mdr/sdtmig/3-4/datasets/UR", "title": "Urinary System Findings", "type": "SDTM Dataset"}, "parentProduct": {"href": "/mdr/sdtmig/3-4", "title": "Study Data Tabulation Model Implementation Guide: Human Clinical Trials", "type": "Implementation Guide"}, "priorVersion": {"href": "/mdr/sdtmig/3-3/datasets/UR/variables/URCAT", "title": "Category for Urinary Test", "type": "SDTM Dataset Variable"}, "rootItem": {"href": "/mdr/root/sdtmig/datasets/UR/variables/URCAT", "title": "Version-agnostic anchor resource for SDTMIG variable UR.URCAT", "type": "Root Data Element"}, "self": {"href": "/mdr/sdtmig/3-4/datasets/UR/variables/URCAT", "title": "Category for Urinary Test", "type": "SDTM Dataset Variable"}}, "core": "Perm", "description": "Used to define a category of topic-variable values.", "label": "Category for Urinary Test", "name": "URCAT", "ordinal": "13", "role": "Grouping Qualifier", "simpleDatatype": "Char"}, {"_links": {"modelClassVariable": {"href": "/mdr/sdtm/2-0/classes/Findings/variables/--SCAT", "title": "Subcategory", "type": "SDTM Class Variable"}, "parentDataset": {"href": "/mdr/sdtmig/3-4/datasets/UR", "title": "Urinary System Findings", "type": "SDTM Dataset"}, "parentProduct": {"href": "/mdr/sdtmig/3-4", "title": "Study Data Tabulation Model Implementation Guide: Human Clinical Trials", "type": "Implementation Guide"}, "priorVersion": {"href": "/mdr/sdtmig/3-3/datasets/UR/variables/URSCAT", "title": "Subcategory for Urinary Test", "type": "SDTM Dataset Variable"}, "rootItem": {"href": "/mdr/root/sdtmig/datasets/UR/variables/URSCAT", "title": "Version-agnostic anchor resource for SDTMIG variable UR.URSCAT", "type": "Root Data Element"}, "self": {"href": "/mdr/sdtmig/3-4/datasets/UR/variables/URSCAT", "title": "Subcategory for Urinary Test", "type": "SDTM Dataset Variable"}}, "core": "Perm", "description": "Used to define a further categorization of URCAT values.", "label": "Subcategory for Urinary Test", "name": "URSCAT", "ordinal": "14", "role": "Grouping Qualifier", "simpleDatatype": "Char"}, {"_links": {"modelClassVariable": {"href": "/mdr/sdtm/2-0/classes/Findings/variables/--ORRES", "title": "Result or Finding in Original Units", "type": "SDTM Class Variable"}, "parentDataset": {"href": "/mdr/sdtmig/3-4/datasets/UR", "title": "Urinary System Findings", "type": "SDTM Dataset"}, "parentProduct": {"href": "/mdr/sdtmig/3-4", "title": "Study Data Tabulation Model Implementation Guide: Human Clinical Trials", "type": "Implementation Guide"}, "priorVersion": {"href": "/mdr/sdtmig/3-3/datasets/UR/variables/URORRES", "title": "Result or Finding in Original Units", "type": "SDTM Dataset Variable"}, "rootItem": {"href": "/mdr/root/sdtmig/datasets/UR/variables/URORRES", "title": "Version-agnostic anchor resource for SDTMIG variable UR.URORRES", "type": "Root Data Element"}, "self": {"href": "/mdr/sdtmig/3-4/datasets/UR/variables/URORRES", "title": "Result or Finding in Original Units", "type": "SDTM Dataset Variable"}}, "core": "Exp", "description": "Result of the measurement or finding as originally received or collected.", "label": "Result or Finding in Original Units", "name": "URORRES", "ordinal": "15", "role": "Result Qualifier", "simpleDatatype": "Char"}, {"_links": {"codelist": [{"href": "/mdr/root/ct/sdtmct/codelists/C71620", "title": "Version-agnostic anchor resource for codelist C71620", "type": "Root Value Domain"}], "modelClassVariable": {"href": "/mdr/sdtm/2-0/classes/Findings/variables/--ORRESU", "title": "Original Units", "type": "SDTM Class Variable"}, "parentDataset": {"href": "/mdr/sdtmig/3-4/datasets/UR", "title": "Urinary System Findings", "type": "SDTM Dataset"}, "parentProduct": {"href": "/mdr/sdtmig/3-4", "title": "Study Data Tabulation Model Implementation Guide: Human Clinical Trials", "type": "Implementation Guide"}, "priorVersion": {"href": "/mdr/sdtmig/3-3/datasets/UR/variables/URORRESU", "title": "Original Units", "type": "SDTM Dataset Variable"}, "rootItem": {"href": "/mdr/root/sdtmig/datasets/UR/variables/URORRESU", "title": "Version-agnostic anchor resource for SDTMIG variable UR.URORRESU", "type": "Root Data Element"}, "self": {"href": "/mdr/sdtmig/3-4/datasets/UR/variables/URORRESU", "title": "Original Units", "type": "SDTM Dataset Variable"}}, "core": "Perm", "description": "Unit for URORRES.", "label": "Original Units", "name": "URORRESU", "ordinal": "16", "role": "Variable Qualifier", "simpleDatatype": "Char"}, {"_links": {"modelClassVariable": {"href": "/mdr/sdtm/2-0/classes/Findings/variables/--STRESC", "title": "Result or Finding in Standard Format", "type": "SDTM Class Variable"}, "parentDataset": {"href": "/mdr/sdtmig/3-4/datasets/UR", "title": "Urinary System Findings", "type": "SDTM Dataset"}, "parentProduct": {"href": "/mdr/sdtmig/3-4", "title": "Study Data Tabulation Model Implementation Guide: Human Clinical Trials", "type": "Implementation Guide"}, "priorVersion": {"href": "/mdr/sdtmig/3-3/datasets/UR/variables/URSTRESC", "title": "Character Result/Finding in Std Format", "type": "SDTM Dataset Variable"}, "rootItem": {"href": "/mdr/root/sdtmig/datasets/UR/variables/URSTRESC", "title": "Version-agnostic anchor resource for SDTMIG variable UR.URSTRESC", "type": "Root Data Element"}, "self": {"href": "/mdr/sdtmig/3-4/datasets/UR/variables/URSTRESC", "title": "Character Result/Finding in Std Format", "type": "SDTM Dataset Variable"}}, "core": "Exp", "description": "Contains the result value for all findings copied or derived from URORRES, in a standard format or in standard units. URSTRESC should store all results or findings in character format; if results are numeric, they should also be stored in numeric format in URSTRESN.", "label": "Character Result/Finding in Std Format", "name": "URSTRESC", "ordinal": "17", "role": "Result Qualifier", "simpleDatatype": "Char"}, {"_links": {"modelClassVariable": {"href": "/mdr/sdtm/2-0/classes/Findings/variables/--STRESN", "title": "Numeric Result/Finding in Standard Units", "type": "SDTM Class Variable"}, "parentDataset": {"href": "/mdr/sdtmig/3-4/datasets/UR", "title": "Urinary System Findings", "type": "SDTM Dataset"}, "parentProduct": {"href": "/mdr/sdtmig/3-4", "title": "Study Data Tabulation Model Implementation Guide: Human Clinical Trials", "type": "Implementation Guide"}, "priorVersion": {"href": "/mdr/sdtmig/3-3/datasets/UR/variables/URSTRESN", "title": "Numeric Result/Finding in Standard Units", "type": "SDTM Dataset Variable"}, "rootItem": {"href": "/mdr/root/sdtmig/datasets/UR/variables/URSTRESN", "title": "Version-agnostic anchor resource for SDTMIG variable UR.URSTRESN", "type": "Root Data Element"}, "self": {"href": "/mdr/sdtmig/3-4/datasets/UR/variables/URSTRESN", "title": "Numeric Result/Finding in Standard Units", "type": "SDTM Dataset Variable"}}, "core": "Perm", "description": "Used for continuous or numeric results or findings in standard format; copied in numeric format from URSTRESC. URSTRESN should store all numeric test results or findings.", "label": "Numeric Result/Finding in Standard Units", "name": "URSTRESN", "ordinal": "18", "role": "Result Qualifier", "simpleDatatype": "Num"}, {"_links": {"codelist": [{"href": "/mdr/root/ct/sdtmct/codelists/C71620", "title": "Version-agnostic anchor resource for codelist C71620", "type": "Root Value Domain"}], "modelClassVariable": {"href": "/mdr/sdtm/2-0/classes/Findings/variables/--STRESU", "title": "Standard Units", "type": "SDTM Class Variable"}, "parentDataset": {"href": "/mdr/sdtmig/3-4/datasets/UR", "title": "Urinary System Findings", "type": "SDTM Dataset"}, "parentProduct": {"href": "/mdr/sdtmig/3-4", "title": "Study Data Tabulation Model Implementation Guide: Human Clinical Trials", "type": "Implementation Guide"}, "priorVersion": {"href": "/mdr/sdtmig/3-3/datasets/UR/variables/URSTRESU", "title": "Standard Units", "type": "SDTM Dataset Variable"}, "rootItem": {"href": "/mdr/root/sdtmig/datasets/UR/variables/URSTRESU", "title": "Version-agnostic anchor resource for SDTMIG variable UR.URSTRESU", "type": "Root Data Element"}, "self": {"href": "/mdr/sdtmig/3-4/datasets/UR/variables/URSTRESU", "title": "Standard Units", "type": "SDTM Dataset Variable"}}, "core": "Perm", "description": "Standardized units used for URSTRESC and URSTRESN.", "label": "Standard Units", "name": "URSTRESU", "ordinal": "19", "role": "Variable Qualifier", "simpleDatatype": "Char"}, {"_links": {"modelClassVariable": {"href": "/mdr/sdtm/2-0/classes/Findings/variables/--RESCAT", "title": "Result Category", "type": "SDTM Class Variable"}, "parentDataset": {"href": "/mdr/sdtmig/3-4/datasets/UR", "title": "Urinary System Findings", "type": "SDTM Dataset"}, "parentProduct": {"href": "/mdr/sdtmig/3-4", "title": "Study Data Tabulation Model Implementation Guide: Human Clinical Trials", "type": "Implementation Guide"}, "priorVersion": {"href": "/mdr/sdtmig/3-3/datasets/UR/variables/URRESCAT", "title": "Result Category", "type": "SDTM Dataset Variable"}, "rootItem": {"href": "/mdr/root/sdtmig/datasets/UR/variables/URRESCAT", "title": "Version-agnostic anchor resource for SDTMIG variable UR.URRESCAT", "type": "Root Data Element"}, "self": {"href": "/mdr/sdtmig/3-4/datasets/UR/variables/URRESCAT", "title": "Result Category", "type": "SDTM Dataset Variable"}}, "core": "Perm", "description": "Used to categorize the result of a finding.", "label": "Result Category", "name": "URRESCAT", "ordinal": "20", "role": "Variable Qualifier", "simpleDatatype": "Char"}, {"_links": {"codelist": [{"href": "/mdr/root/ct/sdtmct/codelists/C66789", "title": "Version-agnostic anchor resource for codelist C66789", "type": "Root Value Domain"}], "modelClassVariable": {"href": "/mdr/sdtm/2-0/classes/Findings/variables/--STAT", "title": "Completion Status", "type": "SDTM Class Variable"}, "parentDataset": {"href": "/mdr/sdtmig/3-4/datasets/UR", "title": "Urinary System Findings", "type": "SDTM Dataset"}, "parentProduct": {"href": "/mdr/sdtmig/3-4", "title": "Study Data Tabulation Model Implementation Guide: Human Clinical Trials", "type": "Implementation Guide"}, "priorVersion": {"href": "/mdr/sdtmig/3-3/datasets/UR/variables/URSTAT", "title": "Completion Status", "type": "SDTM Dataset Variable"}, "rootItem": {"href": "/mdr/root/sdtmig/datasets/UR/variables/URSTAT", "title": "Version-agnostic anchor resource for SDTMIG variable UR.URSTAT", "type": "Root Data Element"}, "self": {"href": "/mdr/sdtmig/3-4/datasets/UR/variables/URSTAT", "title": "Completion Status", "type": "SDTM Dataset Variable"}}, "core": "Perm", "description": "Used to indicate that a question was not asked or a test was not done, or a test was attempted but did not generate a result. Should be null or have a value of \"NOT DONE\".", "label": "Completion Status", "name": "URSTAT", "ordinal": "21", "role": "Record Qualifier", "simpleDatatype": "Char"}, {"_links": {"modelClassVariable": {"href": "/mdr/sdtm/2-0/classes/Findings/variables/--REASND", "title": "Reason Not Done", "type": "SDTM Class Variable"}, "parentDataset": {"href": "/mdr/sdtmig/3-4/datasets/UR", "title": "Urinary System Findings", "type": "SDTM Dataset"}, "parentProduct": {"href": "/mdr/sdtmig/3-4", "title": "Study Data Tabulation Model Implementation Guide: Human Clinical Trials", "type": "Implementation Guide"}, "priorVersion": {"href": "/mdr/sdtmig/3-3/datasets/UR/variables/URREASND", "title": "Reason Not Done", "type": "SDTM Dataset Variable"}, "rootItem": {"href": "/mdr/root/sdtmig/datasets/UR/variables/URREASND", "title": "Version-agnostic anchor resource for SDTMIG variable UR.URREASND", "type": "Root Data Element"}, "self": {"href": "/mdr/sdtmig/3-4/datasets/UR/variables/URREASND", "title": "Reason Not Done", "type": "SDTM Dataset Variable"}}, "core": "Perm", "description": "Reason not done. Used in conjunction with URSTAT when value is \"NOT DONE\".", "label": "Reason Not Done", "name": "URREASND", "ordinal": "22", "role": "Record Qualifier", "simpleDatatype": "Char"}, {"_links": {"codelist": [{"href": "/mdr/root/ct/sdtmct/codelists/C74456", "title": "Version-agnostic anchor resource for codelist C74456", "type": "Root Value Domain"}], "modelClassVariable": {"href": "/mdr/sdtm/2-0/classes/Findings/variables/--LOC", "title": "Location Used for the Measurement", "type": "SDTM Class Variable"}, "parentDataset": {"href": "/mdr/sdtmig/3-4/datasets/UR", "title": "Urinary System Findings", "type": "SDTM Dataset"}, "parentProduct": {"href": "/mdr/sdtmig/3-4", "title": "Study Data Tabulation Model Implementation Guide: Human Clinical Trials", "type": "Implementation Guide"}, "priorVersion": {"href": "/mdr/sdtmig/3-3/datasets/UR/variables/URLOC", "title": "Location Used for the Measurement", "type": "SDTM Dataset Variable"}, "rootItem": {"href": "/mdr/root/sdtmig/datasets/UR/variables/URLOC", "title": "Version-agnostic anchor resource for SDTMIG variable UR.URLOC", "type": "Root Data Element"}, "self": {"href": "/mdr/sdtmig/3-4/datasets/UR/variables/URLOC", "title": "Location Used for the Measurement", "type": "SDTM Dataset Variable"}}, "core": "Perm", "description": "Anatomical location of the subject relevant to the collection of the measurement.", "label": "Location Used for the Measurement", "name": "URLOC", "ordinal": "23", "role": "Record Qualifier", "simpleDatatype": "Char"}, {"_links": {"codelist": [{"href": "/mdr/root/ct/sdtmct/codelists/C99073", "title": "Version-agnostic anchor resource for codelist C99073", "type": "Root Value Domain"}], "modelClassVariable": {"href": "/mdr/sdtm/2-0/classes/Findings/variables/--LAT", "title": "Laterality", "type": "SDTM Class Variable"}, "parentDataset": {"href": "/mdr/sdtmig/3-4/datasets/UR", "title": "Urinary System Findings", "type": "SDTM Dataset"}, "parentProduct": {"href": "/mdr/sdtmig/3-4", "title": "Study Data Tabulation Model Implementation Guide: Human Clinical Trials", "type": "Implementation Guide"}, "priorVersion": {"href": "/mdr/sdtmig/3-3/datasets/UR/variables/URLAT", "title": "Laterality", "type": "SDTM Dataset Variable"}, "rootItem": {"href": "/mdr/root/sdtmig/datasets/UR/variables/URLAT", "title": "Version-agnostic anchor resource for SDTMIG variable UR.URLAT", "type": "Root Data Element"}, "self": {"href": "/mdr/sdtmig/3-4/datasets/UR/variables/URLAT", "title": "Laterality", "type": "SDTM Dataset Variable"}}, "core": "Perm", "description": "Qualifier for anatomical location or specimen further detailing laterality. Examples: \"RIGHT\", \"LEFT\", \"BILATERAL\".", "label": "Laterality", "name": "URLAT", "ordinal": "24", "role": "Variable Qualifier", "simpleDatatype": "Char"}, {"_links": {"codelist": [{"href": "/mdr/root/ct/sdtmct/codelists/C99074", "title": "Version-agnostic anchor resource for codelist C99074", "type": "Root Value Domain"}], "modelClassVariable": {"href": "/mdr/sdtm/2-0/classes/Findings/variables/--DIR", "title": "Directionality", "type": "SDTM Class Variable"}, "parentDataset": {"href": "/mdr/sdtmig/3-4/datasets/UR", "title": "Urinary System Findings", "type": "SDTM Dataset"}, "parentProduct": {"href": "/mdr/sdtmig/3-4", "title": "Study Data Tabulation Model Implementation Guide: Human Clinical Trials", "type": "Implementation Guide"}, "priorVersion": {"href": "/mdr/sdtmig/3-3/datasets/UR/variables/URDIR", "title": "Directionality", "type": "SDTM Dataset Variable"}, "rootItem": {"href": "/mdr/root/sdtmig/datasets/UR/variables/URDIR", "title": "Version-agnostic anchor resource for SDTMIG variable UR.URDIR", "type": "Root Data Element"}, "self": {"href": "/mdr/sdtmig/3-4/datasets/UR/variables/URDIR", "title": "Directionality", "type": "SDTM Dataset Variable"}}, "core": "Perm", "description": "Qualifier for anatomical location or specimen further detailing directionality. Examples: \"ANTERIOR\", \"LOWER\", \"PROXIMAL\".", "label": "Directionality", "name": "URDIR", "ordinal": "25", "role": "Variable Qualifier", "simpleDatatype": "Char"}, {"_links": {"codelist": [{"href": "/mdr/root/ct/sdtmct/codelists/C85492", "title": "Version-agnostic anchor resource for codelist C85492", "type": "Root Value Domain"}], "modelClassVariable": {"href": "/mdr/sdtm/2-0/classes/Findings/variables/--METHOD", "title": "Method of Test or Examination", "type": "SDTM Class Variable"}, "parentDataset": {"href": "/mdr/sdtmig/3-4/datasets/UR", "title": "Urinary System Findings", "type": "SDTM Dataset"}, "parentProduct": {"href": "/mdr/sdtmig/3-4", "title": "Study Data Tabulation Model Implementation Guide: Human Clinical Trials", "type": "Implementation Guide"}, "priorVersion": {"href": "/mdr/sdtmig/3-3/datasets/UR/variables/URMETHOD", "title": "Method of Test or Examination", "type": "SDTM Dataset Variable"}, "rootItem": {"href": "/mdr/root/sdtmig/datasets/UR/variables/URMETHOD", "title": "Version-agnostic anchor resource for SDTMIG variable UR.URMETHOD", "type": "Root Data Element"}, "self": {"href": "/mdr/sdtmig/3-4/datasets/UR/variables/URMETHOD", "title": "Method of Test or Examination", "type": "SDTM Dataset Variable"}}, "core": "Perm", "description": "Method of the test or examination.", "label": "Method of Test or Examination", "name": "URMETHOD", "ordinal": "26", "role": "Record Qualifier", "simpleDatatype": "Char"}, {"_links": {"codelist": [{"href": "/mdr/root/ct/sdtmct/codelists/C66742", "title": "Version-agnostic anchor resource for codelist C66742", "type": "Root Value Domain"}], "modelClassVariable": {"href": "/mdr/sdtm/2-0/classes/Findings/variables/--LOBXFL", "title": "Last Observation Before Exposure Flag", "type": "SDTM Class Variable"}, "parentDataset": {"href": "/mdr/sdtmig/3-4/datasets/UR", "title": "Urinary System Findings", "type": "SDTM Dataset"}, "parentProduct": {"href": "/mdr/sdtmig/3-4", "title": "Study Data Tabulation Model Implementation Guide: Human Clinical Trials", "type": "Implementation Guide"}, "priorVersion": {"href": "/mdr/sdtmig/3-3/datasets/UR/variables/URLOBXFL", "title": "Last Observation Before Exposure Flag", "type": "SDTM Dataset Variable"}, "rootItem": {"href": "/mdr/root/sdtmig/datasets/UR/variables/URLOBXFL", "title": "Version-agnostic anchor resource for SDTMIG variable UR.URLOBXFL", "type": "Root Data Element"}, "self": {"href": "/mdr/sdtmig/3-4/datasets/UR/variables/URLOBXFL", "title": "Last Observation Before Exposure Flag", "type": "SDTM Dataset Variable"}}, "core": "Exp", "description": "Operationally derived indicator used to identify the last non-missing value prior to RFXSTDTC. The value should be \"Y\" or null.", "label": "Last Observation Before Exposure Flag", "name": "URLOBXFL", "ordinal": "27", "role": "Record Qualifier", "simpleDatatype": "Char"}, {"_links": {"codelist": [{"href": "/mdr/root/ct/sdtmct/codelists/C66742", "title": "Version-agnostic anchor resource for codelist C66742", "type": "Root Value Domain"}], "modelClassVariable": {"href": "/mdr/sdtm/2-0/classes/Findings/variables/--BLFL", "title": "Baseline Flag", "type": "SDTM Class Variable"}, "parentDataset": {"href": "/mdr/sdtmig/3-4/datasets/UR", "title": "Urinary System Findings", "type": "SDTM Dataset"}, "parentProduct": {"href": "/mdr/sdtmig/3-4", "title": "Study Data Tabulation Model Implementation Guide: Human Clinical Trials", "type": "Implementation Guide"}, "priorVersion": {"href": "/mdr/sdtmig/3-3/datasets/UR/variables/URBLFL", "title": "Baseline Flag", "type": "SDTM Dataset Variable"}, "rootItem": {"href": "/mdr/root/sdtmig/datasets/UR/variables/URBLFL", "title": "Version-agnostic anchor resource for SDTMIG variable UR.URBLFL", "type": "Root Data Element"}, "self": {"href": "/mdr/sdtmig/3-4/datasets/UR/variables/URBLFL", "title": "Baseline Flag", "type": "SDTM Dataset Variable"}}, "core": "Perm", "description": "A baseline defined by the sponsor The value should be \"Y\" or null. Note that URBLFL is retained for backward compatibility. The authoritative baseline flag for statistical analysis is in an ADaM dataset.", "label": "Baseline Flag", "name": "URBLFL", "ordinal": "28", "role": "Record Qualifier", "simpleDatatype": "Char"}, {"_links": {"codelist": [{"href": "/mdr/root/ct/sdtmct/codelists/C66742", "title": "Version-agnostic anchor resource for codelist C66742", "type": "Root Value Domain"}], "modelClassVariable": {"href": "/mdr/sdtm/2-0/classes/Findings/variables/--DRVFL", "title": "Derived Flag", "type": "SDTM Class Variable"}, "parentDataset": {"href": "/mdr/sdtmig/3-4/datasets/UR", "title": "Urinary System Findings", "type": "SDTM Dataset"}, "parentProduct": {"href": "/mdr/sdtmig/3-4", "title": "Study Data Tabulation Model Implementation Guide: Human Clinical Trials", "type": "Implementation Guide"}, "priorVersion": {"href": "/mdr/sdtmig/3-3/datasets/UR/variables/URDRVFL", "title": "Derived Flag", "type": "SDTM Dataset Variable"}, "rootItem": {"href": "/mdr/root/sdtmig/datasets/UR/variables/URDRVFL", "title": "Version-agnostic anchor resource for SDTMIG variable UR.URDRVFL", "type": "Root Data Element"}, "self": {"href": "/mdr/sdtmig/3-4/datasets/UR/variables/URDRVFL", "title": "Derived Flag", "type": "SDTM Dataset Variable"}}, "core": "Perm", "description": "Used to indicate a derived record (e.g., a record that represents the average of other records such as a computed baseline). Should be \"Y\" or null.", "label": "Derived Flag", "name": "URDRVFL", "ordinal": "29", "role": "Record Qualifier", "simpleDatatype": "Char"}, {"_links": {"codelist": [{"href": "/mdr/root/ct/sdtmct/codelists/C78735", "title": "Version-agnostic anchor resource for codelist C78735", "type": "Root Value Domain"}], "modelClassVariable": {"href": "/mdr/sdtm/2-0/classes/Findings/variables/--EVAL", "title": "Evaluator", "type": "SDTM Class Variable"}, "parentDataset": {"href": "/mdr/sdtmig/3-4/datasets/UR", "title": "Urinary System Findings", "type": "SDTM Dataset"}, "parentProduct": {"href": "/mdr/sdtmig/3-4", "title": "Study Data Tabulation Model Implementation Guide: Human Clinical Trials", "type": "Implementation Guide"}, "priorVersion": {"href": "/mdr/sdtmig/3-3/datasets/UR/variables/UREVAL", "title": "Evaluator", "type": "SDTM Dataset Variable"}, "rootItem": {"href": "/mdr/root/sdtmig/datasets/UR/variables/UREVAL", "title": "Version-agnostic anchor resource for SDTMIG variable UR.UREVAL", "type": "Root Data Element"}, "self": {"href": "/mdr/sdtmig/3-4/datasets/UR/variables/UREVAL", "title": "Evaluator", "type": "SDTM Dataset Variable"}}, "core": "Perm", "description": "Role of the person who provided the evaluation. Used only for results that are subjective (e.g., assigned by a person or a group). Examples: \"ADJUDICATION COMMITTEE\", \"INDEPENDENT ASSESSOR\", \"RADIOLOGIST\".", "label": "Evaluator", "name": "UREVAL", "ordinal": "30", "role": "Record Qualifier", "simpleDatatype": "Char"}, {"_links": {"codelist": [{"href": "/mdr/root/ct/sdtmct/codelists/C96777", "title": "Version-agnostic anchor resource for codelist C96777", "type": "Root Value Domain"}], "modelClassVariable": {"href": "/mdr/sdtm/2-0/classes/Findings/variables/--EVALID", "title": "Evaluator Identifier", "type": "SDTM Class Variable"}, "parentDataset": {"href": "/mdr/sdtmig/3-4/datasets/UR", "title": "Urinary System Findings", "type": "SDTM Dataset"}, "parentProduct": {"href": "/mdr/sdtmig/3-4", "title": "Study Data Tabulation Model Implementation Guide: Human Clinical Trials", "type": "Implementation Guide"}, "priorVersion": {"href": "/mdr/sdtmig/3-3/datasets/UR/variables/UREVALID", "title": "Evaluator Identifier", "type": "SDTM Dataset Variable"}, "rootItem": {"href": "/mdr/root/sdtmig/datasets/UR/variables/UREVALID", "title": "Version-agnostic anchor resource for SDTMIG variable UR.UREVALID", "type": "Root Data Element"}, "self": {"href": "/mdr/sdtmig/3-4/datasets/UR/variables/UREVALID", "title": "Evaluator Identifier", "type": "SDTM Dataset Variable"}}, "core": "Perm", "description": "Used to distinguish multiple evaluators with the same role recorded in UREVAL. Examples: \"RADIOLOGIST1\", \"RADIOLOGIST2\".", "label": "Evaluator Identifier", "name": "UREVALID", "ordinal": "31", "role": "Variable Qualifier", "simpleDatatype": "Char"}, {"_links": {"modelClassVariable": {"href": "/mdr/sdtm/2-0/classes/GeneralObservations/variables/VISITNUM", "title": "Visit Number", "type": "SDTM Class Variable"}, "parentDataset": {"href": "/mdr/sdtmig/3-4/datasets/UR", "title": "Urinary System Findings", "type": "SDTM Dataset"}, "parentProduct": {"href": "/mdr/sdtmig/3-4", "title": "Study Data Tabulation Model Implementation Guide: Human Clinical Trials", "type": "Implementation Guide"}, "priorVersion": {"href": "/mdr/sdtmig/3-3/datasets/UR/variables/VISITNUM", "title": "Visit Number", "type": "SDTM Dataset Variable"}, "rootItem": {"href": "/mdr/root/sdtmig/datasets/UR/variables/VISITNUM", "title": "Version-agnostic anchor resource for SDTMIG variable UR.VISITNUM", "type": "Root Data Element"}, "self": {"href": "/mdr/sdtmig/3-4/datasets/UR/variables/VISITNUM", "title": "Visit Number", "type": "SDTM Dataset Variable"}}, "core": "Exp", "description": "Clinical encounter number. Numeric version of VISIT, used for sorting.", "label": "Visit Number", "name": "VISITNUM", "ordinal": "32", "role": "Timing", "simpleDatatype": "Num"}, {"_links": {"modelClassVariable": {"href": "/mdr/sdtm/2-0/classes/GeneralObservations/variables/VISIT", "title": "Visit Name", "type": "SDTM Class Variable"}, "parentDataset": {"href": "/mdr/sdtmig/3-4/datasets/UR", "title": "Urinary System Findings", "type": "SDTM Dataset"}, "parentProduct": {"href": "/mdr/sdtmig/3-4", "title": "Study Data Tabulation Model Implementation Guide: Human Clinical Trials", "type": "Implementation Guide"}, "priorVersion": {"href": "/mdr/sdtmig/3-3/datasets/UR/variables/VISIT", "title": "Visit Name", "type": "SDTM Dataset Variable"}, "rootItem": {"href": "/mdr/root/sdtmig/datasets/UR/variables/VISIT", "title": "Version-agnostic anchor resource for SDTMIG variable UR.VISIT", "type": "Root Data Element"}, "self": {"href": "/mdr/sdtmig/3-4/datasets/UR/variables/VISIT", "title": "Visit Name", "type": "SDTM Dataset Variable"}}, "core": "Perm", "description": "Protocol-defined description of a clinical encounter.", "label": "Visit Name", "name": "VISIT", "ordinal": "33", "role": "Timing", "simpleDatatype": "Char"}, {"_links": {"modelClassVariable": {"href": "/mdr/sdtm/2-0/classes/GeneralObservations/variables/VISITDY", "title": "Planned Study Day of Visit", "type": "SDTM Class Variable"}, "parentDataset": {"href": "/mdr/sdtmig/3-4/datasets/UR", "title": "Urinary System Findings", "type": "SDTM Dataset"}, "parentProduct": {"href": "/mdr/sdtmig/3-4", "title": "Study Data Tabulation Model Implementation Guide: Human Clinical Trials", "type": "Implementation Guide"}, "priorVersion": {"href": "/mdr/sdtmig/3-3/datasets/UR/variables/VISITDY", "title": "Planned Study Day of Visit", "type": "SDTM Dataset Variable"}, "rootItem": {"href": "/mdr/root/sdtmig/datasets/UR/variables/VISITDY", "title": "Version-agnostic anchor resource for SDTMIG variable UR.VISITDY", "type": "Root Data Element"}, "self": {"href": "/mdr/sdtmig/3-4/datasets/UR/variables/VISITDY", "title": "Planned Study Day of Visit", "type": "SDTM Dataset Variable"}}, "core": "Perm", "description": "Planned study day of VISIT. Should be an integer.", "label": "Planned Study Day of Visit", "name": "VISITDY", "ordinal": "34", "role": "Timing", "simpleDatatype": "Num"}, {"_links": {"modelClassVariable": {"href": "/mdr/sdtm/2-0/classes/GeneralObservations/variables/TAETORD", "title": "Planned Order of Element Within Arm", "type": "SDTM Class Variable"}, "parentDataset": {"href": "/mdr/sdtmig/3-4/datasets/UR", "title": "Urinary System Findings", "type": "SDTM Dataset"}, "parentProduct": {"href": "/mdr/sdtmig/3-4", "title": "Study Data Tabulation Model Implementation Guide: Human Clinical Trials", "type": "Implementation Guide"}, "priorVersion": {"href": "/mdr/sdtmig/3-3/datasets/UR/variables/TAETORD", "title": "Planned Order of Element within Arm", "type": "SDTM Dataset Variable"}, "rootItem": {"href": "/mdr/root/sdtmig/datasets/UR/variables/TAETORD", "title": "Version-agnostic anchor resource for SDTMIG variable UR.TAETORD", "type": "Root Data Element"}, "self": {"href": "/mdr/sdtmig/3-4/datasets/UR/variables/TAETORD", "title": "Planned Order of Element within Arm", "type": "SDTM Dataset Variable"}}, "core": "Perm", "description": "Number that gives the planned order of the element within the arm for the element in which the observation was made.", "label": "Planned Order of Element within Arm", "name": "TAETORD", "ordinal": "35", "role": "Timing", "simpleDatatype": "Num"}, {"_links": {"codelist": [{"href": "/mdr/root/ct/sdtmct/codelists/C99079", "title": "Version-agnostic anchor resource for codelist C99079", "type": "Root Value Domain"}], "modelClassVariable": {"href": "/mdr/sdtm/2-0/classes/GeneralObservations/variables/EPOCH", "title": "Epoch", "type": "SDTM Class Variable"}, "parentDataset": {"href": "/mdr/sdtmig/3-4/datasets/UR", "title": "Urinary System Findings", "type": "SDTM Dataset"}, "parentProduct": {"href": "/mdr/sdtmig/3-4", "title": "Study Data Tabulation Model Implementation Guide: Human Clinical Trials", "type": "Implementation Guide"}, "priorVersion": {"href": "/mdr/sdtmig/3-3/datasets/UR/variables/EPOCH", "title": "Epoch", "type": "SDTM Dataset Variable"}, "rootItem": {"href": "/mdr/root/sdtmig/datasets/UR/variables/EPOCH", "title": "Version-agnostic anchor resource for SDTMIG variable UR.EPOCH", "type": "Root Data Element"}, "self": {"href": "/mdr/sdtmig/3-4/datasets/UR/variables/EPOCH", "title": "Epoch", "type": "SDTM Dataset Variable"}}, "core": "Perm", "description": "Epoch associated with the date/time at which the observation was made.", "label": "Epoch", "name": "EPOCH", "ordinal": "36", "role": "Timing", "simpleDatatype": "Char"}, {"_links": {"modelClassVariable": {"href": "/mdr/sdtm/2-0/classes/GeneralObservations/variables/--DTC", "title": "Date/Time of Collection", "type": "SDTM Class Variable"}, "parentDataset": {"href": "/mdr/sdtmig/3-4/datasets/UR", "title": "Urinary System Findings", "type": "SDTM Dataset"}, "parentProduct": {"href": "/mdr/sdtmig/3-4", "title": "Study Data Tabulation Model Implementation Guide: Human Clinical Trials", "type": "Implementation Guide"}, "priorVersion": {"href": "/mdr/sdtmig/3-3/datasets/UR/variables/URDTC", "title": "Date/Time of Collection", "type": "SDTM Dataset Variable"}, "rootItem": {"href": "/mdr/root/sdtmig/datasets/UR/variables/URDTC", "title": "Version-agnostic anchor resource for SDTMIG variable UR.URDTC", "type": "Root Data Element"}, "self": {"href": "/mdr/sdtmig/3-4/datasets/UR/variables/URDTC", "title": "Date/Time of Collection", "type": "SDTM Dataset Variable"}}, "core": "Exp", "describedValueDomain": "ISO 8601 datetime or interval", "description": "Collection date and time of an observation.", "label": "Date/Time of Collection", "name": "URDTC", "ordinal": "37", "role": "Timing", "simpleDatatype": "Char"}, {"_links": {"modelClassVariable": {"href": "/mdr/sdtm/2-0/classes/GeneralObservations/variables/--DY", "title": "Study Day of Visit/Collection/Exam", "type": "SDTM Class Variable"}, "parentDataset": {"href": "/mdr/sdtmig/3-4/datasets/UR", "title": "Urinary System Findings", "type": "SDTM Dataset"}, "parentProduct": {"href": "/mdr/sdtmig/3-4", "title": "Study Data Tabulation Model Implementation Guide: Human Clinical Trials", "type": "Implementation Guide"}, "priorVersion": {"href": "/mdr/sdtmig/3-3/datasets/UR/variables/URDY", "title": "Study Day of Visit/Collection/Exam", "type": "SDTM Dataset Variable"}, "rootItem": {"href": "/mdr/root/sdtmig/datasets/UR/variables/URDY", "title": "Version-agnostic anchor resource for SDTMIG variable UR.URDY", "type": "Root Data Element"}, "self": {"href": "/mdr/sdtmig/3-4/datasets/UR/variables/URDY", "title": "Study Day of Visit/Collection/Exam", "type": "SDTM Dataset Variable"}}, "core": "Perm", "description": "Actual study day of visit/collection/exam expressed in integer days relative to the sponsor-defined RFSTDTC in Demographics.", "label": "Study Day of Visit/Collection/Exam", "name": "URDY", "ordinal": "38", "role": "Timing", "simpleDatatype": "Num"}, {"_links": {"modelClassVariable": {"href": "/mdr/sdtm/2-0/classes/GeneralObservations/variables/--TPT", "title": "Planned Time Point Name", "type": "SDTM Class Variable"}, "parentDataset": {"href": "/mdr/sdtmig/3-4/datasets/UR", "title": "Urinary System Findings", "type": "SDTM Dataset"}, "parentProduct": {"href": "/mdr/sdtmig/3-4", "title": "Study Data Tabulation Model Implementation Guide: Human Clinical Trials", "type": "Implementation Guide"}, "priorVersion": {"href": "/mdr/sdtmig/3-3/datasets/UR/variables/URTPT", "title": "Planned Time Point Name", "type": "SDTM Dataset Variable"}, "rootItem": {"href": "/mdr/root/sdtmig/datasets/UR/variables/URTPT", "title": "Version-agnostic anchor resource for SDTMIG variable UR.URTPT", "type": "Root Data Element"}, "self": {"href": "/mdr/sdtmig/3-4/datasets/UR/variables/URTPT", "title": "Planned Time Point Name", "type": "SDTM Dataset Variable"}}, "core": "Perm", "description": "Text description of time when a measurement or observation should be taken as defined in the protocol. This may be represented as an elapsed time relative to a fixed reference point (e.g., time of last dose). See URTPTNUM and URTPTREF.", "label": "Planned Time Point Name", "name": "URTPT", "ordinal": "39", "role": "Timing", "simpleDatatype": "Char"}, {"_links": {"modelClassVariable": {"href": "/mdr/sdtm/2-0/classes/GeneralObservations/variables/--TPTNUM", "title": "Planned Time Point Number", "type": "SDTM Class Variable"}, "parentDataset": {"href": "/mdr/sdtmig/3-4/datasets/UR", "title": "Urinary System Findings", "type": "SDTM Dataset"}, "parentProduct": {"href": "/mdr/sdtmig/3-4", "title": "Study Data Tabulation Model Implementation Guide: Human Clinical Trials", "type": "Implementation Guide"}, "priorVersion": {"href": "/mdr/sdtmig/3-3/datasets/UR/variables/URTPTNUM", "title": "Planned Time Point Number", "type": "SDTM Dataset Variable"}, "rootItem": {"href": "/mdr/root/sdtmig/datasets/UR/variables/URTPTNUM", "title": "Version-agnostic anchor resource for SDTMIG variable UR.URTPTNUM", "type": "Root Data Element"}, "self": {"href": "/mdr/sdtmig/3-4/datasets/UR/variables/URTPTNUM", "title": "Planned Time Point Number", "type": "SDTM Dataset Variable"}}, "core": "Perm", "description": "Numeric version of planned time point used in sorting.", "label": "Planned Time Point Number", "name": "URTPTNUM", "ordinal": "40", "role": "Timing", "simpleDatatype": "Num"}, {"_links": {"modelClassVariable": {"href": "/mdr/sdtm/2-0/classes/GeneralObservations/variables/--ELTM", "title": "Planned Elapsed Time from Time Point Ref", "type": "SDTM Class Variable"}, "parentDataset": {"href": "/mdr/sdtmig/3-4/datasets/UR", "title": "Urinary System Findings", "type": "SDTM Dataset"}, "parentProduct": {"href": "/mdr/sdtmig/3-4", "title": "Study Data Tabulation Model Implementation Guide: Human Clinical Trials", "type": "Implementation Guide"}, "priorVersion": {"href": "/mdr/sdtmig/3-3/datasets/UR/variables/URELTM", "title": "Planned Elapsed Time from Time Point Ref", "type": "SDTM Dataset Variable"}, "rootItem": {"href": "/mdr/root/sdtmig/datasets/UR/variables/URELTM", "title": "Version-agnostic anchor resource for SDTMIG variable UR.URELTM", "type": "Root Data Element"}, "self": {"href": "/mdr/sdtmig/3-4/datasets/UR/variables/URELTM", "title": "Planned Elapsed Time from Time Point Ref", "type": "SDTM Dataset Variable"}}, "core": "Perm", "describedValueDomain": "ISO 8601 duration", "description": "Planned elapsed time relative to a planned fixed reference (URTPTREF; e.g., \"PREVIOUS DOSE\", \"PREVIOUS MEAL\"). This variable is useful where there are repetitive measures. Not a clock time or a date/time variable, but an interval, represented as ISO duration.", "label": "Planned Elapsed Time from Time Point Ref", "name": "URELTM", "ordinal": "41", "role": "Timing", "simpleDatatype": "Char"}, {"_links": {"modelClassVariable": {"href": "/mdr/sdtm/2-0/classes/GeneralObservations/variables/--TPTREF", "title": "Time Point Reference", "type": "SDTM Class Variable"}, "parentDataset": {"href": "/mdr/sdtmig/3-4/datasets/UR", "title": "Urinary System Findings", "type": "SDTM Dataset"}, "parentProduct": {"href": "/mdr/sdtmig/3-4", "title": "Study Data Tabulation Model Implementation Guide: Human Clinical Trials", "type": "Implementation Guide"}, "priorVersion": {"href": "/mdr/sdtmig/3-3/datasets/UR/variables/URTPTREF", "title": "Time Point Reference", "type": "SDTM Dataset Variable"}, "rootItem": {"href": "/mdr/root/sdtmig/datasets/UR/variables/URTPTREF", "title": "Version-agnostic anchor resource for SDTMIG variable UR.URTPTREF", "type": "Root Data Element"}, "self": {"href": "/mdr/sdtmig/3-4/datasets/UR/variables/URTPTREF", "title": "Time Point Reference", "type": "SDTM Dataset Variable"}}, "core": "Perm", "description": "Description of the fixed reference point referred to by URELTM, URTPTNUM, and URTPT. Examples: \"PREVIOUS DOSE\", \"PREVIOUS MEAL\".", "label": "Time Point Reference", "name": "URTPTREF", "ordinal": "42", "role": "Timing", "simpleDatatype": "Char"}, {"_links": {"modelClassVariable": {"href": "/mdr/sdtm/2-0/classes/GeneralObservations/variables/--RFTDTC", "title": "Date/Time of Reference Time Point", "type": "SDTM Class Variable"}, "parentDataset": {"href": "/mdr/sdtmig/3-4/datasets/UR", "title": "Urinary System Findings", "type": "SDTM Dataset"}, "parentProduct": {"href": "/mdr/sdtmig/3-4", "title": "Study Data Tabulation Model Implementation Guide: Human Clinical Trials", "type": "Implementation Guide"}, "priorVersion": {"href": "/mdr/sdtmig/3-3/datasets/UR/variables/URRFTDTC", "title": "Date/Time of Reference Time Point", "type": "SDTM Dataset Variable"}, "rootItem": {"href": "/mdr/root/sdtmig/datasets/UR/variables/URRFTDTC", "title": "Version-agnostic anchor resource for SDTMIG variable UR.URRFTDTC", "type": "Root Data Element"}, "self": {"href": "/mdr/sdtmig/3-4/datasets/UR/variables/URRFTDTC", "title": "Date/Time of Reference Time Point", "type": "SDTM Dataset Variable"}}, "core": "Perm", "describedValueDomain": "ISO 8601 datetime or interval", "description": "Date/time for a fixed reference time point defined by URTPTREF.", "label": "Date/Time of Reference Time Point", "name": "URRFTDTC", "ordinal": "43", "role": "Timing", "simpleDatatype": "Char"}], "description": "A findings domain that contains physiological and morphological findings related to the urinary tract, including the organs involved in the creation and excretion of urine such as the kidneys, ureters, bladder and urethra.", "label": "Urinary System Findings", "name": "UR", "ordinal": "62"}
