{"_links": {"parentClass": {"href": "/mdr/sdtmig/ap-1-0/classes/AssociatedPersons", "title": "Associated Persons", "type": "Class"}, "parentProduct": {"href": "/mdr/sdtmig/ap-1-0", "title": "Study Data Tabulation Model Implementation Guide: Associated Persons Version 1.0 (Final)", "type": "Implementation Guide"}, "self": {"href": "/mdr/sdtmig/ap-1-0/datasets/APDM", "title": "Associated Persons Demographics", "type": "SDTM Dataset"}}, "datasetStructure": "One record per associated person", "datasetVariables": [{"_links": {"parentDataset": {"href": "/mdr/sdtmig/ap-1-0/datasets/APDM", "title": "Associated Persons Demographics", "type": "SDTM Dataset"}, "parentProduct": {"href": "/mdr/sdtmig/ap-1-0", "title": "Study Data Tabulation Model Implementation Guide: Associated Persons Version 1.0 (Final)", "type": "Implementation Guide"}, "rootItem": {"href": "/mdr/root/sdtmig/datasets/APDM/variables/STUDYID", "title": "Version-agnostic anchor resource for SDTMIG variable APDM.STUDYID", "type": "Root Data Element"}, "self": {"href": "/mdr/sdtmig/ap-1-0/datasets/APDM/variables/STUDYID", "title": "Study Identifier", "type": "SDTM Dataset Variable"}}, "core": "Req", "description": "Unique identifier for a study", "label": "Study Identifier", "name": "STUDYID", "ordinal": "1", "role": "Identifier", "simpleDatatype": "Char"}, {"_links": {"parentDataset": {"href": "/mdr/sdtmig/ap-1-0/datasets/APDM", "title": "Associated Persons Demographics", "type": "SDTM Dataset"}, "parentProduct": {"href": "/mdr/sdtmig/ap-1-0", "title": "Study Data Tabulation Model Implementation Guide: Associated Persons Version 1.0 (Final)", "type": "Implementation Guide"}, "rootItem": {"href": "/mdr/root/sdtmig/datasets/APDM/variables/DOMAIN", "title": "Version-agnostic anchor resource for SDTMIG variable APDM.DOMAIN", "type": "Root Data Element"}, "self": {"href": "/mdr/sdtmig/ap-1-0/datasets/APDM/variables/DOMAIN", "title": "Domain Abbreviation", "type": "SDTM Dataset Variable"}}, "core": "Req", "description": "Four-character abbreviation for the domain.", "label": "Domain Abbreviation", "name": "DOMAIN", "ordinal": "2", "role": "Identifier", "simpleDatatype": "Char", "valueList": ["APDM"]}, {"_links": {"parentDataset": {"href": "/mdr/sdtmig/ap-1-0/datasets/APDM", "title": "Associated Persons Demographics", "type": "SDTM Dataset"}, "parentProduct": {"href": "/mdr/sdtmig/ap-1-0", "title": "Study Data Tabulation Model Implementation Guide: Associated Persons Version 1.0 (Final)", "type": "Implementation Guide"}, "rootItem": {"href": "/mdr/root/sdtmig/datasets/APDM/variables/APID", "title": "Version-agnostic anchor resource for SDTMIG variable APDM.APID", "type": "Root Data Element"}, "self": {"href": "/mdr/sdtmig/ap-1-0/datasets/APDM/variables/APID", "title": "Associated Persons Identifier", "type": "SDTM Dataset Variable"}}, "core": "Req", "description": "Identifier for a single associated person, a group of associated persons, or a pool of associated persons. If APID identifies a pool, POOLDEF records must exist for each associated person.", "label": "Associated Persons Identifier", "name": "APID", "ordinal": "3", "role": "Topic", "simpleDatatype": "Char"}, {"_links": {"parentDataset": {"href": "/mdr/sdtmig/ap-1-0/datasets/APDM", "title": "Associated Persons Demographics", "type": "SDTM Dataset"}, "parentProduct": {"href": "/mdr/sdtmig/ap-1-0", "title": "Study Data Tabulation Model Implementation Guide: Associated Persons Version 1.0 (Final)", "type": "Implementation Guide"}, "rootItem": {"href": "/mdr/root/sdtmig/datasets/APDM/variables/RSUBJID", "title": "Version-agnostic anchor resource for SDTMIG variable APDM.RSUBJID", "type": "Root Data Element"}, "self": {"href": "/mdr/sdtmig/ap-1-0/datasets/APDM/variables/RSUBJID", "title": "Related Subject", "type": "SDTM Dataset Variable"}}, "core": "Exp", "description": "Identifier for a related subject or pool of subjects. RSUBJID may be populated with the USUBJID of the related subject or the POOLID of the related pool.  RSUBJID will be null for data about associated persons who are related to the study but not to any study subjects.", "label": "Related Subject", "name": "RSUBJID", "ordinal": "4", "role": "Record Qualifier", "simpleDatatype": "Char"}, {"_links": {"parentDataset": {"href": "/mdr/sdtmig/ap-1-0/datasets/APDM", "title": "Associated Persons Demographics", "type": "SDTM Dataset"}, "parentProduct": {"href": "/mdr/sdtmig/ap-1-0", "title": "Study Data Tabulation Model Implementation Guide: Associated Persons Version 1.0 (Final)", "type": "Implementation Guide"}, "rootItem": {"href": "/mdr/root/sdtmig/datasets/APDM/variables/RDEVID", "title": "Version-agnostic anchor resource for SDTMIG variable APDM.RDEVID", "type": "Root Data Element"}, "self": {"href": "/mdr/sdtmig/ap-1-0/datasets/APDM/variables/RDEVID", "title": "Related Device", "type": "SDTM Dataset Variable"}}, "core": "Perm", "description": "Identifier for a related device. RDEVID will be populated with the SPDEVID of the related device", "label": "Related Device", "name": "RDEVID", "ordinal": "5", "role": "Record Qualifier", "simpleDatatype": "Char"}, {"_links": {"parentDataset": {"href": "/mdr/sdtmig/ap-1-0/datasets/APDM", "title": "Associated Persons Demographics", "type": "SDTM Dataset"}, "parentProduct": {"href": "/mdr/sdtmig/ap-1-0", "title": "Study Data Tabulation Model Implementation Guide: Associated Persons Version 1.0 (Final)", "type": "Implementation Guide"}, "rootItem": {"href": "/mdr/root/sdtmig/datasets/APDM/variables/SREL", "title": "Version-agnostic anchor resource for SDTMIG variable APDM.SREL", "type": "Root Data Element"}, "self": {"href": "/mdr/sdtmig/ap-1-0/datasets/APDM/variables/SREL", "title": "Subject, Device or Study Relationship", "type": "SDTM Dataset Variable"}}, "core": "Req", "description": "If RSUBJID is populated, describes the relationship of the associated person(s) identified in APID to the subject or pool identified in RSUBJID. If RDEVID is populated, describes the relationship of the associated person(s) identified in APID to the device identified in RDEVID.  If RSUBJID and RDEVID are null, SREL describes the relationship of the associated person(s) identified in APID to the study identified in STUDYID.", "label": "Subject, Device or Study Relationship", "name": "SREL", "ordinal": "6", "role": "Record Qualifier", "simpleDatatype": "Char"}, {"_links": {"parentDataset": {"href": "/mdr/sdtmig/ap-1-0/datasets/APDM", "title": "Associated Persons Demographics", "type": "SDTM Dataset"}, "parentProduct": {"href": "/mdr/sdtmig/ap-1-0", "title": "Study Data Tabulation Model Implementation Guide: Associated Persons Version 1.0 (Final)", "type": "Implementation Guide"}, "rootItem": {"href": "/mdr/root/sdtmig/datasets/APDM/variables/DTHDTC", "title": "Version-agnostic anchor resource for SDTMIG variable APDM.DTHDTC", "type": "Root Data Element"}, "self": {"href": "/mdr/sdtmig/ap-1-0/datasets/APDM/variables/DTHDTC", "title": "Date/Time of Death", "type": "SDTM Dataset Variable"}}, "core": "Perm", "describedValueDomain": "ISO 8601", "description": "Date/time of death for any associated person who died, in ISO 8601 format. Should represent the date/time that is captured in the trial database.", "label": "Date/Time of Death", "name": "DTHDTC", "ordinal": "7", "role": "Record Qualifier", "simpleDatatype": "Char"}, {"_links": {"codelist": [{"href": "/mdr/root/ct/sdtmct/codelists/C66742", "title": "Version-agnostic anchor resource for codelist C66742", "type": "Root Value Domain"}], "parentDataset": {"href": "/mdr/sdtmig/ap-1-0/datasets/APDM", "title": "Associated Persons Demographics", "type": "SDTM Dataset"}, "parentProduct": {"href": "/mdr/sdtmig/ap-1-0", "title": "Study Data Tabulation Model Implementation Guide: Associated Persons Version 1.0 (Final)", "type": "Implementation Guide"}, "rootItem": {"href": "/mdr/root/sdtmig/datasets/APDM/variables/DTHFL", "title": "Version-agnostic anchor resource for SDTMIG variable APDM.DTHFL", "type": "Root Data Element"}, "self": {"href": "/mdr/sdtmig/ap-1-0/datasets/APDM/variables/DTHFL", "title": "Associated Persons Death Flag", "type": "SDTM Dataset Variable"}}, "core": "Perm", "description": "Indicates the associated person died. Should be Y or null. Should be populated if collected, even when the death date is unknown.", "label": "Associated Persons Death Flag", "name": "DTHFL", "ordinal": "8", "role": "Record Qualifier", "simpleDatatype": "Char"}, {"_links": {"parentDataset": {"href": "/mdr/sdtmig/ap-1-0/datasets/APDM", "title": "Associated Persons Demographics", "type": "SDTM Dataset"}, "parentProduct": {"href": "/mdr/sdtmig/ap-1-0", "title": "Study Data Tabulation Model Implementation Guide: Associated Persons Version 1.0 (Final)", "type": "Implementation Guide"}, "rootItem": {"href": "/mdr/root/sdtmig/datasets/APDM/variables/INVNAM", "title": "Version-agnostic anchor resource for SDTMIG variable APDM.INVNAM", "type": "Root Data Element"}, "self": {"href": "/mdr/sdtmig/ap-1-0/datasets/APDM/variables/INVNAM", "title": "Investigator Name", "type": "SDTM Dataset Variable"}}, "core": "Perm", "description": "Name of the Investigator for the site.", "label": "Investigator Name", "name": "INVNAM", "ordinal": "9", "role": "Variable Qualifier", "simpleDatatype": "Char"}, {"_links": {"parentDataset": {"href": "/mdr/sdtmig/ap-1-0/datasets/APDM", "title": "Associated Persons Demographics", "type": "SDTM Dataset"}, "parentProduct": {"href": "/mdr/sdtmig/ap-1-0", "title": "Study Data Tabulation Model Implementation Guide: Associated Persons Version 1.0 (Final)", "type": "Implementation Guide"}, "rootItem": {"href": "/mdr/root/sdtmig/datasets/APDM/variables/BRTHDTC", "title": "Version-agnostic anchor resource for SDTMIG variable APDM.BRTHDTC", "type": "Root Data Element"}, "self": {"href": "/mdr/sdtmig/ap-1-0/datasets/APDM/variables/BRTHDTC", "title": "Date/Time of Birth", "type": "SDTM Dataset Variable"}}, "core": "Perm", "describedValueDomain": "ISO 8601", "description": "Date/time of birth of the associated person.", "label": "Date/Time of Birth", "name": "BRTHDTC", "ordinal": "10", "role": "Record Qualifier", "simpleDatatype": "Char"}, {"_links": {"parentDataset": {"href": "/mdr/sdtmig/ap-1-0/datasets/APDM", "title": "Associated Persons Demographics", "type": "SDTM Dataset"}, "parentProduct": {"href": "/mdr/sdtmig/ap-1-0", "title": "Study Data Tabulation Model Implementation Guide: Associated Persons Version 1.0 (Final)", "type": "Implementation Guide"}, "rootItem": {"href": "/mdr/root/sdtmig/datasets/APDM/variables/AGE", "title": "Version-agnostic anchor resource for SDTMIG variable APDM.AGE", "type": "Root Data Element"}, "self": {"href": "/mdr/sdtmig/ap-1-0/datasets/APDM/variables/AGE", "title": "Age", "type": "SDTM Dataset Variable"}}, "core": "Perm", "description": "Age of associated person expressed in AGEU.", "label": "Age", "name": "AGE", "ordinal": "11", "role": "Record Qualifier", "simpleDatatype": "Num"}, {"_links": {"codelist": [{"href": "/mdr/root/ct/sdtmct/codelists/C66781", "title": "Version-agnostic anchor resource for codelist C66781", "type": "Root Value Domain"}], "parentDataset": {"href": "/mdr/sdtmig/ap-1-0/datasets/APDM", "title": "Associated Persons Demographics", "type": "SDTM Dataset"}, "parentProduct": {"href": "/mdr/sdtmig/ap-1-0", "title": "Study Data Tabulation Model Implementation Guide: Associated Persons Version 1.0 (Final)", "type": "Implementation Guide"}, "rootItem": {"href": "/mdr/root/sdtmig/datasets/APDM/variables/AGEU", "title": "Version-agnostic anchor resource for SDTMIG variable APDM.AGEU", "type": "Root Data Element"}, "self": {"href": "/mdr/sdtmig/ap-1-0/datasets/APDM/variables/AGEU", "title": "Age Units", "type": "SDTM Dataset Variable"}}, "core": "Perm", "description": "Units associated with AGE.", "label": "Age Units", "name": "AGEU", "ordinal": "12", "role": "Variable Qualifier", "simpleDatatype": "Char"}, {"_links": {"codelist": [{"href": "/mdr/root/ct/sdtmct/codelists/C66731", "title": "Version-agnostic anchor resource for codelist C66731", "type": "Root Value Domain"}], "parentDataset": {"href": "/mdr/sdtmig/ap-1-0/datasets/APDM", "title": "Associated Persons Demographics", "type": "SDTM Dataset"}, "parentProduct": {"href": "/mdr/sdtmig/ap-1-0", "title": "Study Data Tabulation Model Implementation Guide: Associated Persons Version 1.0 (Final)", "type": "Implementation Guide"}, "rootItem": {"href": "/mdr/root/sdtmig/datasets/APDM/variables/SEX", "title": "Version-agnostic anchor resource for SDTMIG variable APDM.SEX", "type": "Root Data Element"}, "self": {"href": "/mdr/sdtmig/ap-1-0/datasets/APDM/variables/SEX", "title": "Sex", "type": "SDTM Dataset Variable"}}, "core": "Perm", "description": "Sex of the associated person.", "label": "Sex", "name": "SEX", "ordinal": "13", "role": "Record Qualifier", "simpleDatatype": "Char"}, {"_links": {"codelist": [{"href": "/mdr/root/ct/sdtmct/codelists/C74457", "title": "Version-agnostic anchor resource for codelist C74457", "type": "Root Value Domain"}], "parentDataset": {"href": "/mdr/sdtmig/ap-1-0/datasets/APDM", "title": "Associated Persons Demographics", "type": "SDTM Dataset"}, "parentProduct": {"href": "/mdr/sdtmig/ap-1-0", "title": "Study Data Tabulation Model Implementation Guide: Associated Persons Version 1.0 (Final)", "type": "Implementation Guide"}, "rootItem": {"href": "/mdr/root/sdtmig/datasets/APDM/variables/RACE", "title": "Version-agnostic anchor resource for SDTMIG variable APDM.RACE", "type": "Root Data Element"}, "self": {"href": "/mdr/sdtmig/ap-1-0/datasets/APDM/variables/RACE", "title": "Race", "type": "SDTM Dataset Variable"}}, "core": "Perm", "description": "Race of the associated person.", "label": "Race", "name": "RACE", "ordinal": "14", "role": "Record Qualifier", "simpleDatatype": "Char"}, {"_links": {"codelist": [{"href": "/mdr/root/ct/sdtmct/codelists/C66790", "title": "Version-agnostic anchor resource for codelist C66790", "type": "Root Value Domain"}], "parentDataset": {"href": "/mdr/sdtmig/ap-1-0/datasets/APDM", "title": "Associated Persons Demographics", "type": "SDTM Dataset"}, "parentProduct": {"href": "/mdr/sdtmig/ap-1-0", "title": "Study Data Tabulation Model Implementation Guide: Associated Persons Version 1.0 (Final)", "type": "Implementation Guide"}, "rootItem": {"href": "/mdr/root/sdtmig/datasets/APDM/variables/ETHNIC", "title": "Version-agnostic anchor resource for SDTMIG variable APDM.ETHNIC", "type": "Root Data Element"}, "self": {"href": "/mdr/sdtmig/ap-1-0/datasets/APDM/variables/ETHNIC", "title": "Ethnicity", "type": "SDTM Dataset Variable"}}, "core": "Perm", "description": "The ethnicity of the associated person.", "label": "Ethnicity", "name": "ETHNIC", "ordinal": "15", "role": "Record Qualifier", "simpleDatatype": "Char"}, {"_links": {"parentDataset": {"href": "/mdr/sdtmig/ap-1-0/datasets/APDM", "title": "Associated Persons Demographics", "type": "SDTM Dataset"}, "parentProduct": {"href": "/mdr/sdtmig/ap-1-0", "title": "Study Data Tabulation Model Implementation Guide: Associated Persons Version 1.0 (Final)", "type": "Implementation Guide"}, "rootItem": {"href": "/mdr/root/sdtmig/datasets/APDM/variables/COUNTRY", "title": "Version-agnostic anchor resource for SDTMIG variable APDM.COUNTRY", "type": "Root Data Element"}, "self": {"href": "/mdr/sdtmig/ap-1-0/datasets/APDM/variables/COUNTRY", "title": "Country", "type": "SDTM Dataset Variable"}}, "core": "Perm", "describedValueDomain": "ISO 3166-1 Alpha-3", "description": "Country of the investigational site in which the study was conducted.", "label": "Country", "name": "COUNTRY", "ordinal": "16", "role": "Record Qualifier", "simpleDatatype": "Char"}, {"_links": {"parentDataset": {"href": "/mdr/sdtmig/ap-1-0/datasets/APDM", "title": "Associated Persons Demographics", "type": "SDTM Dataset"}, "parentProduct": {"href": "/mdr/sdtmig/ap-1-0", "title": "Study Data Tabulation Model Implementation Guide: Associated Persons Version 1.0 (Final)", "type": "Implementation Guide"}, "rootItem": {"href": "/mdr/root/sdtmig/datasets/APDM/variables/DMDTC", "title": "Version-agnostic anchor resource for SDTMIG variable APDM.DMDTC", "type": "Root Data Element"}, "self": {"href": "/mdr/sdtmig/ap-1-0/datasets/APDM/variables/DMDTC", "title": "Date/Time of Collection", "type": "SDTM Dataset Variable"}}, "core": "Perm", "describedValueDomain": "ISO 8601", "description": "Date/time of demographic data collection.", "label": "Date/Time of Collection", "name": "DMDTC", "ordinal": "17", "role": "Timing", "simpleDatatype": "Char"}], "description": "The demographics domain for those persons associated with the study itself, a particular study subject, or a device used in the study. (Source: CDISC Controlled Terminology, DOMAIN, C132354, 2018-06-29)", "label": "Associated Persons Demographics", "name": "APDM", "ordinal": "1"}
