{"_links": {"modelDataset": {"href": "/mdr/sdtm/1-6/datasets/SE", "title": "Subject Element", "type": "SDTM Dataset"}, "parentClass": {"href": "/mdr/sendig/dart-1-1/classes/SpecialPurpose", "title": "Special-Purpose Datasets", "type": "Class"}, "parentProduct": {"href": "/mdr/sendig/dart-1-1", "title": "Standard for Exchange of Nonclinical Data Implementation Guide: Developmental and Reproductive Toxicology Version 1.1", "type": "Implementation Guide"}, "self": {"href": "/mdr/sendig/dart-1-1/datasets/SE", "title": "Subject Elements", "type": "SDTM Dataset"}}, "datasetStructure": "One record per element experienced per subject", "datasetVariables": [{"_links": {"modelDatasetVariable": {"href": "/mdr/sdtm/1-6/datasets/SE/variables/STUDYID", "title": "Study Identifier", "type": "SDTM Dataset Variable"}, "parentDataset": {"href": "/mdr/sendig/dart-1-1/datasets/SE", "title": "Subject Elements", "type": "SDTM Dataset"}, "parentProduct": {"href": "/mdr/sendig/dart-1-1", "title": "Standard for Exchange of Nonclinical Data Implementation Guide: Developmental and Reproductive Toxicology Version 1.1", "type": "Implementation Guide"}, "rootItem": {"href": "/mdr/root/sendig/datasets/SE/variables/STUDYID", "title": "Version-agnostic anchor resource for SENDIG variable SE.STUDYID", "type": "Root Data Element"}, "self": {"href": "/mdr/sendig/dart-1-1/datasets/SE/variables/STUDYID", "title": "Study Identifier", "type": "SDTM Dataset Variable"}}, "core": "Req", "description": "Unique identifier for a study.", "label": "Study Identifier", "name": "STUDYID", "ordinal": "1", "role": "Identifier", "simpleDatatype": "Char"}, {"_links": {"modelDatasetVariable": {"href": "/mdr/sdtm/1-6/datasets/SE/variables/DOMAIN", "title": "Domain Abbreviation", "type": "SDTM Dataset Variable"}, "parentDataset": {"href": "/mdr/sendig/dart-1-1/datasets/SE", "title": "Subject Elements", "type": "SDTM Dataset"}, "parentProduct": {"href": "/mdr/sendig/dart-1-1", "title": "Standard for Exchange of Nonclinical Data Implementation Guide: Developmental and Reproductive Toxicology Version 1.1", "type": "Implementation Guide"}, "rootItem": {"href": "/mdr/root/sendig/datasets/SE/variables/DOMAIN", "title": "Version-agnostic anchor resource for SENDIG variable SE.DOMAIN", "type": "Root Data Element"}, "self": {"href": "/mdr/sendig/dart-1-1/datasets/SE/variables/DOMAIN", "title": "Domain Abbreviation", "type": "SDTM Dataset Variable"}}, "core": "Req", "description": "Two-character abbreviation for the domain.", "label": "Domain Abbreviation", "name": "DOMAIN", "ordinal": "2", "role": "Identifier", "simpleDatatype": "Char", "valueList": ["SE"]}, {"_links": {"modelDatasetVariable": {"href": "/mdr/sdtm/1-6/datasets/SE/variables/USUBJID", "title": "Unique Subject Identifier", "type": "SDTM Dataset Variable"}, "parentDataset": {"href": "/mdr/sendig/dart-1-1/datasets/SE", "title": "Subject Elements", "type": "SDTM Dataset"}, "parentProduct": {"href": "/mdr/sendig/dart-1-1", "title": "Standard for Exchange of Nonclinical Data Implementation Guide: Developmental and Reproductive Toxicology Version 1.1", "type": "Implementation Guide"}, "rootItem": {"href": "/mdr/root/sendig/datasets/SE/variables/USUBJID", "title": "Version-agnostic anchor resource for SENDIG variable SE.USUBJID", "type": "Root Data Element"}, "self": {"href": "/mdr/sendig/dart-1-1/datasets/SE/variables/USUBJID", "title": "Unique Subject Identifier", "type": "SDTM Dataset Variable"}}, "core": "Req", "description": "Identifier used to uniquely identify a subject across all studies for all applications or submissions involving the product.", "label": "Unique Subject Identifier", "name": "USUBJID", "ordinal": "3", "role": "Identifier", "simpleDatatype": "Char"}, {"_links": {"modelDatasetVariable": {"href": "/mdr/sdtm/1-6/datasets/SE/variables/SESEQ", "title": "Sequence Number", "type": "SDTM Dataset Variable"}, "parentDataset": {"href": "/mdr/sendig/dart-1-1/datasets/SE", "title": "Subject Elements", "type": "SDTM Dataset"}, "parentProduct": {"href": "/mdr/sendig/dart-1-1", "title": "Standard for Exchange of Nonclinical Data Implementation Guide: Developmental and Reproductive Toxicology Version 1.1", "type": "Implementation Guide"}, "rootItem": {"href": "/mdr/root/sendig/datasets/SE/variables/SESEQ", "title": "Version-agnostic anchor resource for SENDIG variable SE.SESEQ", "type": "Root Data Element"}, "self": {"href": "/mdr/sendig/dart-1-1/datasets/SE/variables/SESEQ", "title": "Sequence Number", "type": "SDTM Dataset Variable"}}, "core": "Req", "description": "Sequence number given to ensure uniqueness of subject records within a USUBJID within a domain. May be any valid number.", "label": "Sequence Number", "name": "SESEQ", "ordinal": "4", "role": "Identifier", "simpleDatatype": "Num"}, {"_links": {"modelDatasetVariable": {"href": "/mdr/sdtm/1-6/datasets/SE/variables/ETCD", "title": "Element Code", "type": "SDTM Dataset Variable"}, "parentDataset": {"href": "/mdr/sendig/dart-1-1/datasets/SE", "title": "Subject Elements", "type": "SDTM Dataset"}, "parentProduct": {"href": "/mdr/sendig/dart-1-1", "title": "Standard for Exchange of Nonclinical Data Implementation Guide: Developmental and Reproductive Toxicology Version 1.1", "type": "Implementation Guide"}, "rootItem": {"href": "/mdr/root/sendig/datasets/SE/variables/ETCD", "title": "Version-agnostic anchor resource for SENDIG variable SE.ETCD", "type": "Root Data Element"}, "self": {"href": "/mdr/sendig/dart-1-1/datasets/SE/variables/ETCD", "title": "Element Code", "type": "SDTM Dataset Variable"}}, "core": "Req", "description": "ETCD (the companion to ELEMENT) is limited to 8 characters and does not have special character restrictions.", "label": "Element Code", "name": "ETCD", "ordinal": "5", "role": "Topic", "simpleDatatype": "Char"}, {"_links": {"modelDatasetVariable": {"href": "/mdr/sdtm/1-6/datasets/SE/variables/ELEMENT", "title": "Description of Element", "type": "SDTM Dataset Variable"}, "parentDataset": {"href": "/mdr/sendig/dart-1-1/datasets/SE", "title": "Subject Elements", "type": "SDTM Dataset"}, "parentProduct": {"href": "/mdr/sendig/dart-1-1", "title": "Standard for Exchange of Nonclinical Data Implementation Guide: Developmental and Reproductive Toxicology Version 1.1", "type": "Implementation Guide"}, "rootItem": {"href": "/mdr/root/sendig/datasets/SE/variables/ELEMENT", "title": "Version-agnostic anchor resource for SENDIG variable SE.ELEMENT", "type": "Root Data Element"}, "self": {"href": "/mdr/sendig/dart-1-1/datasets/SE/variables/ELEMENT", "title": "Description of Element", "type": "SDTM Dataset Variable"}}, "core": "Perm", "description": "The name of the Element..", "label": "Description of Element", "name": "ELEMENT", "ordinal": "6", "role": "Synonym Qualifier", "simpleDatatype": "Char"}, {"_links": {"modelDatasetVariable": {"href": "/mdr/sdtm/1-6/datasets/SE/variables/SESTDTC", "title": "Start Date/Time of Element", "type": "SDTM Dataset Variable"}, "parentDataset": {"href": "/mdr/sendig/dart-1-1/datasets/SE", "title": "Subject Elements", "type": "SDTM Dataset"}, "parentProduct": {"href": "/mdr/sendig/dart-1-1", "title": "Standard for Exchange of Nonclinical Data Implementation Guide: Developmental and Reproductive Toxicology Version 1.1", "type": "Implementation Guide"}, "rootItem": {"href": "/mdr/root/sendig/datasets/SE/variables/SESTDTC", "title": "Version-agnostic anchor resource for SENDIG variable SE.SESTDTC", "type": "Root Data Element"}, "self": {"href": "/mdr/sendig/dart-1-1/datasets/SE/variables/SESTDTC", "title": "Start Date/Time of Element", "type": "SDTM Dataset Variable"}}, "core": "Req", "describedValueDomain": "ISO 8601", "description": "Start date/time for an Element for each subject, in ISO 8601 format.", "label": "Start Date/Time of Element", "name": "SESTDTC", "ordinal": "7", "role": "Timing", "simpleDatatype": "Char"}, {"_links": {"modelDatasetVariable": {"href": "/mdr/sdtm/1-6/datasets/SE/variables/SEENDTC", "title": "End Date/Time of Element", "type": "SDTM Dataset Variable"}, "parentDataset": {"href": "/mdr/sendig/dart-1-1/datasets/SE", "title": "Subject Elements", "type": "SDTM Dataset"}, "parentProduct": {"href": "/mdr/sendig/dart-1-1", "title": "Standard for Exchange of Nonclinical Data Implementation Guide: Developmental and Reproductive Toxicology Version 1.1", "type": "Implementation Guide"}, "rootItem": {"href": "/mdr/root/sendig/datasets/SE/variables/SEENDTC", "title": "Version-agnostic anchor resource for SENDIG variable SE.SEENDTC", "type": "Root Data Element"}, "self": {"href": "/mdr/sendig/dart-1-1/datasets/SE/variables/SEENDTC", "title": "End Date/Time of Element", "type": "SDTM Dataset Variable"}}, "core": "Exp", "describedValueDomain": "ISO 8601", "description": "End date/time for an Element for each subject, in ISO 8601 format.", "label": "End Date/Time of Element", "name": "SEENDTC", "ordinal": "8", "role": "Timing", "simpleDatatype": "Char"}, {"_links": {"modelDatasetVariable": {"href": "/mdr/sdtm/1-6/datasets/SE/variables/SEUPDES", "title": "Description of Unplanned Element", "type": "SDTM Dataset Variable"}, "parentDataset": {"href": "/mdr/sendig/dart-1-1/datasets/SE", "title": "Subject Elements", "type": "SDTM Dataset"}, "parentProduct": {"href": "/mdr/sendig/dart-1-1", "title": "Standard for Exchange of Nonclinical Data Implementation Guide: Developmental and Reproductive Toxicology Version 1.1", "type": "Implementation Guide"}, "rootItem": {"href": "/mdr/root/sendig/datasets/SE/variables/SEUPDES", "title": "Version-agnostic anchor resource for SENDIG variable SE.SEUPDES", "type": "Root Data Element"}, "self": {"href": "/mdr/sendig/dart-1-1/datasets/SE/variables/SEUPDES", "title": "Description of Unplanned Element", "type": "SDTM Dataset Variable"}}, "core": "Perm", "description": "Description of what happened to the subject during an unplanned Element. Used only if ETCD has the value of UNPLAN.", "label": "Description of Unplanned Element", "name": "SEUPDES", "ordinal": "9", "role": "Synonym Qualifier", "simpleDatatype": "Char"}], "description": "A special-purpose domain that contains the actual order of elements followed by the subject, together with the start date/time and end date/time for each element. (Source: CDISC Controlled Terminology, SDOMAIN, C49616, 2018-06-29)", "label": "Subject Elements", "name": "SE", "ordinal": "103"}
