{"_links": {"priorVersion": {"href": "/mdr/ct/packages/adamct-2016-03-25", "title": "ADaM Controlled Terminology Package 25 Effective 2016-03-25", "type": "Terminology"}, "self": {"href": "/mdr/ct/packages/adamct-2016-09-30", "title": "ADaM Controlled Terminology Package 27 Effective 2016-09-30", "type": "Terminology"}}, "codelists": [{"conceptId": "C117745", "definition": "Purpose of a specific analysis result described in ADaM analysis results metadata.", "extensible": "true", "name": "Analysis Purpose", "preferredTerm": "CDISC ADaM Analysis Purpose Terminology", "submissionValue": "ANLPURP", "synonyms": ["Analysis Purpose"], "terms": [{"conceptId": "C98724", "definition": "Exploratory measures that will be used to evaluate the intervention(s) or, for observational studies, that are exploratory of the study.", "preferredTerm": "Exploratory Outcome Measure", "submissionValue": "EXPLORATORY OUTCOME MEASURE", "synonyms": ["Exploratory Outcome Measure"]}, {"conceptId": "C98772", "definition": "The primary measurement(s) or observation(s) used to measure the effect of experimental variables in a study, or for observational studies, to describe patterns of diseases or traits or associations with exposures, risk factors or treatment. These are the outcome measures used to assess the primary objective(s).", "preferredTerm": "Primary Outcome Measure", "submissionValue": "PRIMARY OUTCOME MEASURE", "synonyms": ["Primary Outcome Measure"]}, {"conceptId": "C98781", "definition": "Other key measures that will be used to evaluate the intervention(s) or, for observational studies, that are a focus of the study. These are the outcome measures used to assess the secondary objective(s).", "preferredTerm": "Secondary Outcome Measure", "submissionValue": "SECONDARY OUTCOME MEASURE", "synonyms": ["Secondary Outcome Measure"]}]}, {"conceptId": "C117744", "definition": "Reason for reporting a specific analysis result described in ADaM analysis results metadata.", "extensible": "true", "name": "Analysis Reason", "preferredTerm": "CDISC ADaM Analysis Reason Terminology", "submissionValue": "ANLREAS", "synonyms": ["Analysis Reason"], "terms": [{"conceptId": "C117750", "definition": "The analysis was triggered by findings in the data.", "preferredTerm": "Data Driven Analysis", "submissionValue": "DATA DRIVEN"}, {"conceptId": "C117751", "definition": "The analysis has been requested by a regulatory agency.", "preferredTerm": "Analysis Requested by Regulatory Agency", "submissionValue": "REQUESTED BY REGULATORY AGENCY"}, {"conceptId": "C117752", "definition": "The analysis is specified in a protocol.", "preferredTerm": "Analysis Specified in Protocol", "submissionValue": "SPECIFIED IN PROTOCOL"}, {"conceptId": "C117753", "definition": "The analysis is specified in a statistical analysis plan.", "preferredTerm": "Analysis Specified in Statistical Analysis Plan", "submissionValue": "SPECIFIED IN SAP"}]}, {"conceptId": "C81223", "definition": "Date Imputation Flag: Indicates the level of imputation reflected in a date value.", "extensible": "false", "name": "Date Imputation Flag", "preferredTerm": "CDISC ADaM Date Imputation Flag Terminology", "submissionValue": "DATEFL", "synonyms": ["Date Imputation Flag"], "terms": [{"conceptId": "C81212", "definition": "Day Imputed: Day is imputed.", "preferredTerm": "Day Imputed", "submissionValue": "D"}, {"conceptId": "C81211", "definition": "Month Imputed: Month and day are imputed.", "preferredTerm": "Month Day Imputed", "submissionValue": "M"}, {"conceptId": "C81210", "definition": "Year Imputed: Entire date (year, month and day) is imputed.", "preferredTerm": "Year Month Day Imputed", "submissionValue": "Y"}]}, {"conceptId": "C81224", "definition": "Derivation Type: Analysis value derivation method.", "extensible": "true", "name": "Derivation Type", "preferredTerm": "CDISC ADaM Derivation Type Terminology", "submissionValue": "DTYPE", "synonyms": ["Derivation Type"], "terms": [{"conceptId": "C81209", "definition": "Average: A data derivation technique which calculates a subject's average value over a defined set of records.", "preferredTerm": "Average of Value Derivation Technique", "submissionValue": "AVERAGE"}, {"conceptId": "C92225", "definition": "Best Case: A data imputation technique which populates missing values with the best possible outcome.", "preferredTerm": "Best Case Imputation Technique", "submissionValue": "BC"}, {"conceptId": "C81201", "definition": "Baseline Observation Carried Forward: A data imputation technique which populates missing values with the subject's nonmissing baseline observation.", "preferredTerm": "Baseline Observation Carried Forward Imputation Technique", "submissionValue": "BLOCF"}, {"conceptId": "C92226", "definition": "Best Observation Carried Forward: A data imputation technique which populates missing values with the subject's best-case nonmissing value.", "preferredTerm": "Best Observation Carried Forward Imputation Technique", "submissionValue": "BOCF"}, {"conceptId": "C82866", "definition": "Endpoint: A data derivation technique which calculates a subject's analysis end point value.", "preferredTerm": "Endpoint Value Derivation Technique", "submissionValue": "ENDPOINT"}, {"conceptId": "C81208", "definition": "Interpolation: A method of imputation involving a missing value that is between known values and is estimated by a function of those known values.", "preferredTerm": "Interpolation Imputation Technique", "submissionValue": "INTERP"}, {"conceptId": "C81198", "definition": "Last Observation Carried Forward: A data imputation technique which populates missing values with the subject's previous nonmissing value.", "preferredTerm": "Last Observation Carried Forward Imputation Technique", "submissionValue": "LOCF"}, {"conceptId": "C82868", "definition": "Maximum: A data derivation technique which calculates a subject's maximum value over a defined set of records.", "preferredTerm": "Maximum Value Derivation Technique", "submissionValue": "MAXIMUM"}, {"conceptId": "C82867", "definition": "Minimum: A data derivation technique which calculates a subject's minimum value over a defined set of records.", "preferredTerm": "Minimum Value Derivation Technique", "submissionValue": "MINIMUM"}, {"conceptId": "C53331", "definition": "Maximum Likelihood: A data imputation technique which populates missing values with estimates that maximize the probability of observing what has in fact been observed.", "preferredTerm": "Maximum Likelihood Estimation", "submissionValue": "ML"}, {"conceptId": "C81204", "definition": "Mean of Other Group: A data imputation technique which populates missing values with the mean value from a comparator or reference group.", "preferredTerm": "Mean of Other Group Imputation Technique", "submissionValue": "MOTH"}, {"conceptId": "C81207", "definition": "Mean Observed Value in a Group: A data imputation technique which populates missing values with the mean value observed in a group of subjects.", "preferredTerm": "Mean Observed Value in a Group Imputation Technique", "submissionValue": "MOV"}, {"conceptId": "C81205", "definition": "Penultimate Observation Carried Forward: A data imputation technique which populates missing values with the subject's next-to-last nonmissing value.", "preferredTerm": "Penultimate Observation Carried Forward Imputation Technique", "submissionValue": "POCF"}, {"conceptId": "C81200", "definition": "Screening Observation Carried Forward: A data imputation technique which populates missing values with the subject's nonmissing screening observation.", "preferredTerm": "Screening Observation Carried Forward Imputation Technique", "submissionValue": "SOCF"}, {"conceptId": "C125936", "definition": "Time Matched: A data derivation indicator that only those measurements for which the times and/or timepoints are the same will be used in the derivation.", "preferredTerm": "Time Matched Derivation Indicator", "submissionValue": "TIME MATCHED"}, {"conceptId": "C81203", "definition": "Worst Case: A data imputation technique which populates missing values with the worst possible outcome.", "preferredTerm": "Worst Case Imputation Technique", "submissionValue": "WC"}, {"conceptId": "C81199", "definition": "Worst Observed Value Carried Forward: A data imputation technique which populates missing values with the subject's worst-case nonmissing observation.", "preferredTerm": "Worst Observation Carried Forward Imputation Technique", "submissionValue": "WOCF"}, {"conceptId": "C81206", "definition": "Worst Observed Value in a Group: A data imputation technique which populates missing values with the worst value observed in a group of subjects.", "preferredTerm": "Worst Observed Value in a Group Imputation Technique", "submissionValue": "WOV"}]}, {"conceptId": "C81225", "definition": "Parameter Type: Indicates whether the parameter is derived as a function of one or more other parameters.", "extensible": "false", "name": "Parameter Type", "preferredTerm": "CDISC ADaM Parameter Type Terminology", "submissionValue": "PARAMTYP", "synonyms": ["Parameter Type"], "terms": [{"conceptId": "C81197", "definition": "Derived: Indicates that a parameter is derived as a function of one or more other parameters.", "preferredTerm": "Derived Flag", "submissionValue": "DERIVED"}]}, {"conceptId": "C124296", "definition": "Indicates the status of the subject in the trial.", "extensible": "true", "name": "Subject Trial Status", "preferredTerm": "CDISC ADaM Subject Trial Status Terminology", "submissionValue": "SBJTSTAT", "synonyms": ["Subject Trial Status"], "terms": [{"conceptId": "C25250", "definition": "To possess every necessary or normal part or component or step; having come or been brought to a conclusion. (NCI)", "preferredTerm": "Complete", "submissionValue": "COMPLETED"}, {"conceptId": "C25484", "definition": "To stop or end, permanently or temporarily.", "preferredTerm": "Discontinue", "submissionValue": "DISCONTINUED"}, {"conceptId": "C53279", "definition": "Remain in force or carry on without letup; keep or maintain in unaltered condition; exist in time or space without stop or interruption. (NCI)", "preferredTerm": "Continue", "submissionValue": "ONGOING", "synonyms": ["Continuous"]}]}, {"conceptId": "C81226", "definition": "Time Imputation Flag: Indicates the level of imputation reflected in a time value.", "extensible": "false", "name": "Time Imputation Flag", "preferredTerm": "CDISC ADaM Time Imputation Flag Terminology", "submissionValue": "TIMEFL", "synonyms": ["Time Imputation Flag"], "terms": [{"conceptId": "C81213", "definition": "Hours Imputed: Entire time (hours, minutes and seconds) is imputed.", "preferredTerm": "Hours Minutes Seconds Imputed", "submissionValue": "H"}, {"conceptId": "C81214", "definition": "Minutes Imputed: Minutes and seconds are imputed.", "preferredTerm": "Minutes Seconds Imputed", "submissionValue": "M"}, {"conceptId": "C81215", "definition": "Seconds Imputed: Seconds are imputed.", "preferredTerm": "Seconds Imputed", "submissionValue": "S"}]}], "description": "CDISC Controlled Terminology for ADaM is the set of CDISC-developed or CDISC-adopted standard expressions (values) used with data items within CDISC-defined ADaM datasets.", "effectiveDate": "2016-09-30", "label": "ADaM Controlled Terminology Package 27 Effective 2016-09-30", "name": "ADaM CT 2016-09-30", "registrationStatus": "Final", "source": "ADaM Controlled Terminology developed by the CDISC Terminology Team in collaboration with the National Cancer Institute's Enterprise Vocabulary Services (EVS)", "version": "2016-09-30"}
