{"name": "ADaM CT 2019-03-29", "label": "ADaM Controlled Terminology Package 37 Effective 2019-03-29", "description": "CDISC Controlled Terminology for ADaM is the set of CDISC-developed or CDISC-adopted standard expressions (values) used with data items within CDISC-defined ADaM datasets.", "source": "ADaM Controlled Terminology developed by the CDISC Terminology Team in collaboration with the National Cancer Institute's Enterprise Vocabulary Services (EVS)", "effectiveDate": "2019-03-29", "registrationStatus": "Final", "version": "2019-03-29", "_links": {"self": {"href": "/mdr/ct/packages/adamct-2019-03-29", "title": "ADaM Controlled Terminology Package 37 Effective 2019-03-29", "type": "Terminology"}, "priorVersion": {"href": "/mdr/ct/packages/adamct-2018-12-21", "title": "ADaM Controlled Terminology Package 36 Effective 2018-12-21", "type": "Terminology"}}, "codelists": [{"conceptId": "C117745", "extensible": "true", "name": "Analysis Purpose", "submissionValue": "ANLPURP", "definition": "Purpose of a specific analysis result described in ADaM analysis results metadata.", "preferredTerm": "CDISC ADaM Analysis Purpose Terminology", "synonyms": ["Analysis Purpose"], "terms": [{"conceptId": "C98724", "submissionValue": "EXPLORATORY OUTCOME MEASURE", "definition": "Exploratory measures that will be used to evaluate the intervention(s) or, for observational studies, that are exploratory of the study.", "preferredTerm": "Exploratory Outcome Measure", "synonyms": ["Exploratory Outcome Measure"]}, {"conceptId": "C98772", "submissionValue": "PRIMARY OUTCOME MEASURE", "definition": "The primary measurement(s) or observation(s) used to measure the effect of experimental variables in a study, or for observational studies, to describe patterns of diseases or traits or associations with exposures, risk factors or treatment. These are the outcome measures used to assess the primary objective(s).", "preferredTerm": "Primary Outcome Measure", "synonyms": ["Primary Outcome Measure"]}, {"conceptId": "C98781", "submissionValue": "SECONDARY OUTCOME MEASURE", "definition": "Secondary measures that will be used to evaluate the intervention(s) or, for observational studies, that are a focus of the study. These are the outcome measures used to assess the secondary objective(s).", "preferredTerm": "Secondary Outcome Measure", "synonyms": ["Secondary Outcome Measure"]}]}, {"conceptId": "C117744", "extensible": "true", "name": "Analysis Reason", "submissionValue": "ANLREAS", "definition": "Reason for reporting a specific analysis result described in ADaM analysis results metadata.", "preferredTerm": "CDISC ADaM Analysis Reason Terminology", "synonyms": ["Analysis Reason"], "terms": [{"conceptId": "C117750", "submissionValue": "DATA DRIVEN", "definition": "The analysis was triggered by findings in the data.", "preferredTerm": "Data Driven Analysis"}, {"conceptId": "C117751", "submissionValue": "REQUESTED BY REGULATORY AGENCY", "definition": "The analysis has been requested by a regulatory agency.", "preferredTerm": "Analysis Requested by Regulatory Agency"}, {"conceptId": "C117752", "submissionValue": "SPECIFIED IN PROTOCOL", "definition": "The analysis is specified in a protocol.", "preferredTerm": "Analysis Specified in Protocol"}, {"conceptId": "C117753", "submissionValue": "SPECIFIED IN SAP", "definition": "The analysis is specified in a statistical analysis plan.", "preferredTerm": "Analysis Specified in Statistical Analysis Plan"}]}, {"conceptId": "C81223", "extensible": "false", "name": "Date Imputation Flag", "submissionValue": "DATEFL", "definition": "Date Imputation Flag: Indicates the level of imputation reflected in a date value.", "preferredTerm": "CDISC ADaM Date Imputation Flag Terminology", "synonyms": ["Date Imputation Flag"], "terms": [{"conceptId": "C81212", "submissionValue": "D", "definition": "Day Imputed: Day is imputed.", "preferredTerm": "Day Imputed"}, {"conceptId": "C81211", "submissionValue": "M", "definition": "Month Imputed: Month and day are imputed.", "preferredTerm": "Month Day Imputed"}, {"conceptId": "C81210", "submissionValue": "Y", "definition": "Year Imputed: Entire date (year, month and day) is imputed.", "preferredTerm": "Year Month Day Imputed"}]}, {"conceptId": "C81224", "extensible": "true", "name": "Derivation Type", "submissionValue": "DTYPE", "definition": "Derivation Type: Analysis value derivation method.", "preferredTerm": "CDISC ADaM Derivation Type Terminology", "synonyms": ["Derivation Type"], "terms": [{"conceptId": "C81209", "submissionValue": "AVERAGE", "definition": "Average: A data derivation technique which calculates a subject's average value over a defined set of records.", "preferredTerm": "Average of Value Derivation Technique"}, {"conceptId": "C92225", "submissionValue": "BC", "definition": "Best Case: A data imputation technique which populates missing values with the best possible outcome.", "preferredTerm": "Best Case Imputation Technique"}, {"conceptId": "C81201", "submissionValue": "BLOCF", "definition": "Baseline Observation Carried Forward: A data imputation technique which populates missing values with the subject's nonmissing baseline observation.", "preferredTerm": "Baseline Observation Carried Forward Imputation Technique"}, {"conceptId": "C132340", "submissionValue": "BOC", "definition": "Best Observed Case: A data imputation technique which populates analysis values with the best outcome recorded within a subject.", "preferredTerm": "Best Observed Case Imputation Technique"}, {"conceptId": "C92226", "submissionValue": "BOCF", "definition": "Best Observation Carried Forward: A data imputation technique which populates missing values with the subject's previous best-case nonmissing value.", "preferredTerm": "Best Observation Carried Forward Imputation Technique"}, {"conceptId": "C82866", "submissionValue": "ENDPOINT", "definition": "Endpoint: A data derivation technique which populates a subject's analysis end point value.", "preferredTerm": "Endpoint Value Derivation Technique"}, {"conceptId": "C139176", "submissionValue": "EXTRAP", "definition": "A method of imputation involving populating an analysis value that is outside the range of observed values and is estimated by a function of those observed values.", "preferredTerm": "Extrapolation Imputation Technique"}, {"conceptId": "C81208", "submissionValue": "INTERP", "definition": "Interpolation: A method of imputation involving a missing value that is between known values and is estimated by a function of those known values.", "preferredTerm": "Interpolation Imputation Technique"}, {"conceptId": "C81198", "submissionValue": "LOCF", "definition": "Last Observation Carried Forward: A data imputation technique which populates missing values with the subject's previous nonmissing value.", "preferredTerm": "Last Observation Carried Forward Imputation Technique"}, {"conceptId": "C132341", "submissionValue": "LOV", "definition": "Last Observed Value: A data imputation technique which populates analysis values with the subject's last recorded nonmissing observation.", "preferredTerm": "Last Observed Value Imputation Technique"}, {"conceptId": "C132342", "submissionValue": "LVPD", "definition": "Last Value Prior to Dosing: A data imputation technique which populates missing values with the subject's last observed value prior to the start of study treatment.", "preferredTerm": "Last Value Prior to Dosing Imputation Technique"}, {"conceptId": "C82868", "submissionValue": "MAXIMUM", "definition": "Maximum: A technique which populates an analysis value with a subject's maximum value over a defined set of records.", "preferredTerm": "Maximum Value Derivation Technique"}, {"conceptId": "C82867", "submissionValue": "MINIMUM", "definition": "Minimum: A technique which populates an analysis value with a subject's minimum value over a defined set of records.", "preferredTerm": "Minimum Value Derivation Technique"}, {"conceptId": "C53331", "submissionValue": "ML", "definition": "Maximum Likelihood: A data imputation technique which populates missing values with estimates that maximize the probability of observing what has in fact been observed.", "preferredTerm": "Maximum Likelihood Estimation"}, {"conceptId": "C81204", "submissionValue": "MOTH", "definition": "Mean of Other Group: A data imputation technique which populates missing values with the mean value from a comparator or reference group.", "preferredTerm": "Mean of Other Group Imputation Technique"}, {"conceptId": "C81207", "submissionValue": "MOV", "definition": "Mean Observed Value in a Group: A data imputation technique which populates missing values with the mean value observed in a group of subjects.", "preferredTerm": "Mean Observed Value in a Group Imputation Technique"}, {"conceptId": "C81205", "submissionValue": "POCF", "definition": "Penultimate Observation Carried Forward: A data imputation technique which populates missing values with the subject's next-to-last nonmissing value.", "preferredTerm": "Penultimate Observation Carried Forward Imputation Technique"}, {"conceptId": "C81200", "submissionValue": "SOCF", "definition": "Screening Observation Carried Forward: A data imputation technique which populates missing values with the subject's nonmissing screening observation.", "preferredTerm": "Screening Observation Carried Forward Imputation Technique"}, {"conceptId": "C81203", "submissionValue": "WC", "definition": "Worst Case: A data imputation technique which populates analysis values with the worst possible outcome.", "preferredTerm": "Worst Case Imputation Technique"}, {"conceptId": "C132343", "submissionValue": "WOC", "definition": "Worst Observed Case: A data imputation technique which populates analysis values with the worst recorded outcome within a subject.", "preferredTerm": "Worst Observed Case Imputation Technique"}, {"conceptId": "C81199", "submissionValue": "WOCF", "definition": "Worst Observed Value Carried Forward: A data imputation technique which populates missing values with the subject's worst-case nonmissing observation.", "preferredTerm": "Worst Observation Carried Forward Imputation Technique"}, {"conceptId": "C81206", "submissionValue": "WOV", "definition": "Worst Observed Value in a Group: A data imputation technique which populates missing values with the worst value observed in a group of subjects.", "preferredTerm": "Worst Observed Value in a Group Imputation Technique"}]}, {"conceptId": "C158114", "extensible": "false", "name": "Geriatric Depression Scale Short Form Questionnaire Parameter Code", "submissionValue": "GDS02PC", "definition": "A parameter code codelist for the Geriatric Depression Scale Short Form questionnaire (GDS02) to support the calculation of total score in ADaM.", "preferredTerm": "CDISC ADaM Geriatric Depression Scale Short Form Questionnaire Parameter Code Terminology", "synonyms": ["Geriatric Depression Scale Short Form Questionnaire Parameter Code"], "terms": [{"conceptId": "C158155", "submissionValue": "GDS02TS", "definition": "Geriatric Depression Scale Short Form - Total score.", "preferredTerm": "Geriatric Depression Scale Short Form - Total Score", "synonyms": ["GDS02-Total Score"]}]}, {"conceptId": "C158115", "extensible": "false", "name": "Geriatric Depression Scale Short Form Questionnaire Parameter Name", "submissionValue": "GDS02PN", "definition": "A parameter name codelist for the Geriatric Depression Scale Short Form questionnaire (GDS02) to support the calculation of total score in ADaM.", "preferredTerm": "CDISC ADaM Geriatric Depression Scale Short Form Questionnaire Parameter Name Terminology", "synonyms": ["Geriatric Depression Scale Short Form Questionnaire Parameter Name"], "terms": [{"conceptId": "C158155", "submissionValue": "GDS02-Total Score", "definition": "Geriatric Depression Scale Short Form - Total score.", "preferredTerm": "Geriatric Depression Scale Short Form - Total Score", "synonyms": ["GDS02-Total Score"]}]}, {"conceptId": "C81225", "extensible": "false", "name": "Parameter Type", "submissionValue": "PARAMTYP", "definition": "Parameter Type: Indicates whether the parameter is derived as a function of one or more other parameters.", "preferredTerm": "CDISC ADaM Parameter Type Terminology", "synonyms": ["Parameter Type"], "terms": [{"conceptId": "C81197", "submissionValue": "DERIVED", "definition": "Derived: Indicates that a parameter is derived as a function of one or more other parameters.", "preferredTerm": "Derived Flag"}]}, {"conceptId": "C124296", "extensible": "true", "name": "Subject Trial Status", "submissionValue": "SBJTSTAT", "definition": "Indicates the status of the subject in the trial.", "preferredTerm": "CDISC ADaM Subject Trial Status Terminology", "synonyms": ["Subject Trial Status"], "terms": [{"conceptId": "C25250", "submissionValue": "COMPLETED", "definition": "To possess every necessary or normal part or component or step; having come or been brought to a conclusion. (NCI)", "preferredTerm": "Complete"}, {"conceptId": "C25484", "submissionValue": "DISCONTINUED", "definition": "To stop or end, permanently or temporarily.", "preferredTerm": "Discontinue"}, {"conceptId": "C53279", "submissionValue": "ONGOING", "definition": "Remain in force or carry on without letup; keep or maintain in unaltered condition; exist in time or space without stop or interruption. (NCI)", "preferredTerm": "Continue", "synonyms": ["Continuous"]}]}, {"conceptId": "C81226", "extensible": "false", "name": "Time Imputation Flag", "submissionValue": "TIMEFL", "definition": "Time Imputation Flag: Indicates the level of imputation reflected in a time value.", "preferredTerm": "CDISC ADaM Time Imputation Flag Terminology", "synonyms": ["Time Imputation Flag"], "terms": [{"conceptId": "C81213", "submissionValue": "H", "definition": "Hours Imputed: Entire time (hours, minutes and seconds) is imputed.", "preferredTerm": "Hours Minutes Seconds Imputed"}, {"conceptId": "C81214", "submissionValue": "M", "definition": "Minutes Imputed: Minutes and seconds are imputed.", "preferredTerm": "Minutes Seconds Imputed"}, {"conceptId": "C81215", "submissionValue": "S", "definition": "Seconds Imputed: Seconds are imputed.", "preferredTerm": "Seconds Imputed"}]}]}