{"_links": {"self": {"href": "/mdr/ct/packages/cdashct-2014-09-26", "title": "CDASH Controlled Terminology Package 19 Effective 2014-09-26", "type": "Terminology"}}, "codelists": [{"conceptId": "C78418", "definition": "A terminology subset of the CDISC SDTM Pharmaceutical Dosage Form codelist created for CDASH Concomitant Medication Dose Form codelist. (NCI)", "extensible": "true", "name": "Concomitant Medication Dose Form", "preferredTerm": "CDISC CDASH Concomitant Medication Dose Form Terminology", "submissionValue": "CMDOSFRM", "synonyms": ["Concomitant Medication Dose Form"], "terms": [{"conceptId": "C42887", "definition": "A product that is packaged under pressure and contains therapeutically active ingredients that are released upon activation of an appropriate valve system; it is intended for topical application to the skin as well as local application into the nose (nasal aerosols), mouth (lingual aerosols), or lungs (inhalation aerosols).", "preferredTerm": "Aerosol Dosage Form", "submissionValue": "AEROSOL", "synonyms": ["aer"]}, {"conceptId": "C25158", "definition": "A solid pharmaceutical dosage form that contains medicinal agent within either a hard or soft soluble container or shell, usually used for the oral administration of medicine. The shells are made of a suitable form of gelatin or other substance. (NCI)", "preferredTerm": "Capsule Dosage Form", "submissionValue": "CAPSULE", "synonyms": ["cap"]}, {"conceptId": "C28944", "definition": "A semisolid emulsion of either the oil-in-water or the water-in-oil type, ordinarily intended for topical use. (NCI)", "preferredTerm": "Cream Dosage Form", "submissionValue": "CREAM"}, {"conceptId": "C42933", "definition": "Any elastic aeriform fluid in which the molecules are separated from one another and have free paths. (NCI)", "preferredTerm": "Gas Dosage Form", "submissionValue": "GAS"}, {"conceptId": "C42934", "definition": "A semisolid (1) dosage form that contains a gelling agent to provide stiffness to a solution or a colloidal dispersion (2). A gel may contain suspended particles. Note 1: A semisolid is not pourable; it does not flow or conform to its container at room temperature. It does not flow at low shear stress and generally exhibits plastic flow behavior. Note 2: A colloidal dispersion is a system in which particles of colloidal dimension (i.e., typically between 1 nm and 1 micrometer) are distributed uniformly throughout a liquid.", "preferredTerm": "Gel Dosage Form", "submissionValue": "GEL"}, {"conceptId": "C42966", "definition": "A suspension or emulsion, semisolid (1) dosage form, usually containing < 20% water and volatiles (2) and > 50% hydrocarbons, waxes, or polyols as the vehicle. This dosage form is generally for external application to the skin or mucous membranes. Note 1: A semisolid is not pourable; it does not flow or conform to its container at room temperature. It does not flow at low shear stress and generally exhibits plastic flow behavior. Note 2: Percent water and volatiles are measured by a loss on drying test in which the sample is heated at 105 degrees C until constant weight is achieved.", "preferredTerm": "Ointment Dosage Form", "submissionValue": "OINTMENT", "synonyms": ["oint"]}, {"conceptId": "C42968", "definition": "A drug delivery system that often contains an adhesive backing that is usually applied to an external site on the body. Its ingredients either passively diffuse from, or are actively transported from, some portion of the patch. Depending upon the patch, the ingredients are either delivered to the outer surface of the body or into the body. A patch is sometimes synonymous with the terms Extended Release Film and System.", "preferredTerm": "Patch Dosage Form", "submissionValue": "PATCH"}, {"conceptId": "C42972", "definition": "An intimate mixture of dry, finely divided drugs and/or chemicals that may be intended for internal or external use. (NCI)", "preferredTerm": "Powder Dosage Form", "submissionValue": "POWDER"}, {"conceptId": "C42989", "definition": "A liquid minutely divided as by a jet of air or steam. (NCI)", "preferredTerm": "Spray Dosage Form", "submissionValue": "SPRAY"}, {"conceptId": "C42993", "definition": "A solid body of various weights and shapes, adapted for introduction into the rectal, vaginal, or urethral orifice of the human body; they usually melt, soften, or dissolve at body temperature.", "preferredTerm": "Suppository Dosage Form", "submissionValue": "SUPPOSITORY", "synonyms": ["supp"]}, {"conceptId": "C42994", "definition": "A liquid dosage form that contains solid particles dispersed in a liquid vehicle. Note: A liquid is pourable; it flows and conforms to its container at room temperature. It displays Newtonian or pseudoplastic flow behavior.", "preferredTerm": "Suspension Dosage Form", "submissionValue": "SUSPENSION", "synonyms": ["susp"]}, {"conceptId": "C42998", "definition": "A solid dosage form containing medicinal substances with or without suitable diluents. (NCI)", "preferredTerm": "Tablet Dosage Form", "submissionValue": "TABLET", "synonyms": ["tab"]}]}, {"conceptId": "C78417", "definition": "A terminology subset of the CDISC SDTM Unit codelist created for CDASH Concomitant Medication Dose Units codelist. (NCI)", "extensible": "true", "name": "Concomitant Medication Dose Units", "preferredTerm": "CDISC CDASH Concomitant Medication Dose Units Terminology", "submissionValue": "CMDOSU", "synonyms": ["Concomitant Medication Dose Units"], "terms": [{"conceptId": "C48480", "definition": "A dosing measurement based on the capsule unit.(NCI)", "preferredTerm": "Capsule Dosing Unit", "submissionValue": "CAPSULE", "synonyms": ["Capsule Dosing Unit", "cap"]}, {"conceptId": "C48579", "definition": "The unitage assigned by the WHO (World Health Organization) to International Biological Standards - substances, classed as biological according to the criteria provided by WHO Expert Committee on Biological Standardization, to enable the results of biological and immunological assay procedures to be expressed in the same way throughout the world. The definition of an international unit is generally arbitrary and technical, and has to be officially approved by the International Conference for Unification of Formulae.(NCI)", "preferredTerm": "International Unit", "submissionValue": "IU", "synonyms": ["IE", "International Unit"]}, {"conceptId": "C65060", "definition": "A means of delivering a defined dose of a therapeutic aerolized solution into either the upper or lower respiratory tract. Metered-dose inhalers or spray pumps are devices that provide a puff dose for delivery into either the oral or the nasal cavity.(NCI)", "preferredTerm": "Puff Dosing Unit", "submissionValue": "PUFF", "synonyms": ["Puff"]}, {"conceptId": "C48542", "definition": "A dosing measurement based on the tablet unit.(NCI)", "preferredTerm": "Tablet Dosing Unit", "submissionValue": "TABLET", "synonyms": ["Tablet Dosing Unit", "tab"]}, {"conceptId": "C48155", "definition": "A metric unit of mass equal to one one thousandth of a kilogram. (NCI)", "preferredTerm": "Gram", "submissionValue": "g", "synonyms": ["Gram"]}, {"conceptId": "C28254", "definition": "The unit of volume equal to one thousandth of a liter, one cubic centimeter, 10E-6 cubic meter, or approximately to 0.061 023 7 cubic inch.(NCI)", "preferredTerm": "Milliliter", "submissionValue": "mL", "synonyms": ["Milliliter", "cm3"]}, {"conceptId": "C28253", "definition": "The unit of mass equal to one thousandth of a gram or 1000 micrograms. One milligram equals approximately 0.015432 grain or 35.274 x 10E-6 ounce.(NCI)", "preferredTerm": "Milligram", "submissionValue": "mg", "synonyms": ["Milligram"]}, {"conceptId": "C48152", "definition": "The unit of mass equal to one millionth of a gram or one thousandth of a milligram.(NCI)", "preferredTerm": "Microgram", "submissionValue": "ug", "synonyms": ["Microgram", "mcg"]}]}, {"conceptId": "C78419", "definition": "A terminology subset of the CDISC SDTM Frequency codelist created for CDASH Concomitant Medication Dosing Frequency per Interval codelist. (NCI)", "extensible": "true", "name": "Concomitant Medication Dosing Frequency per Interval", "preferredTerm": "CDISC CDASH Concomitant Medication Dosing Frequency per Interval Terminology", "submissionValue": "CMDOSFRQ", "synonyms": ["Concomitant Medication Dosing Frequency per Interval"], "terms": [{"conceptId": "C64496", "definition": "Two times per day, at unspecified times. (NCI)", "preferredTerm": "Twice Daily", "submissionValue": "BID", "synonyms": ["BD", "Twice per day"]}, {"conceptId": "C64499", "definition": "As needed. (NCI)", "preferredTerm": "As Necessary", "submissionValue": "PRN", "synonyms": ["As needed"]}, {"conceptId": "C25473", "definition": "Occurring or done each day. (NCI)", "preferredTerm": "Daily", "submissionValue": "QD", "synonyms": ["Daily", "Per Day"]}, {"conceptId": "C64530", "definition": "Four times per day. (NCI)", "preferredTerm": "Four Times Daily", "submissionValue": "QID", "synonyms": ["4 times per day"]}, {"conceptId": "C64498", "definition": "Every month. (NCI)", "preferredTerm": "Monthly", "submissionValue": "QM", "synonyms": ["Every Month", "Per Month"]}, {"conceptId": "C64525", "definition": "Every other day. (NCI)", "preferredTerm": "Every Other Day", "submissionValue": "QOD", "synonyms": ["Every other day"]}, {"conceptId": "C64527", "definition": "Three times per day. (NCI)", "preferredTerm": "Three Times Daily", "submissionValue": "TID", "synonyms": ["3 times per day"]}, {"conceptId": "C17998", "definition": "Not known, not observed, not recorded, or refused. (NCI)", "preferredTerm": "Unknown", "submissionValue": "UNKNOWN", "synonyms": ["U", "Unknown"]}]}, {"conceptId": "C78420", "definition": "A terminology subset of the CDISC SDTM Route codelist created for CDASH Concomitant Medication Route of Administration codelist. (NCI)", "extensible": "true", "name": "Concomitant Medication Route of Administration", "preferredTerm": "CDISC CDASH Concomitant Medication Route of Administration Terminology", "submissionValue": "CMROUTE", "synonyms": ["Concomitant Medication Route of Administration"], "terms": [{"conceptId": "C38250", "definition": "Administration within or introduced directly into a localized lesion. (FDA)", "preferredTerm": "Intralesional Route of Administration", "submissionValue": "INTRALESIONAL"}, {"conceptId": "C28161", "definition": "Administration within a muscle. (FDA)", "preferredTerm": "Intramuscular Route of Administration", "submissionValue": "INTRAMUSCULAR"}, {"conceptId": "C38255", "definition": "Administration within the eye. (FDA)", "preferredTerm": "Intraocular Route of Administration", "submissionValue": "INTRAOCULAR"}, {"conceptId": "C38258", "definition": "Administration within the peritoneal cavity. (FDA)", "preferredTerm": "Intraperitoneal Route of Administration", "submissionValue": "INTRAPERITONEAL"}, {"conceptId": "C38284", "definition": "Administration to the nose; administered by way of the nose. (FDA)", "preferredTerm": "Nasal Route of Administration", "submissionValue": "NASAL", "synonyms": ["Intranasal Route of Administration"]}, {"conceptId": "C38288", "definition": "Administration to or by way of the mouth. (FDA)", "preferredTerm": "Oral Route of Administration", "submissionValue": "ORAL", "synonyms": ["Intraoral Route of Administration", "PO"]}, {"conceptId": "C38295", "definition": "Administration to the rectum. (FDA)", "preferredTerm": "Rectal Route of Administration", "submissionValue": "RECTAL"}, {"conceptId": "C38216", "definition": "Administration within the respiratory tract by inhaling orally or nasally for local or systemic effect. (FDA)", "preferredTerm": "Inhalation Route of Administration", "submissionValue": "RESPIRATORY (INHALATION)"}, {"conceptId": "C38299", "definition": "Administration beneath the skin; hypodermic. Synonymous with the term SUBDERMAL. (FDA)", "preferredTerm": "Subcutaneous Route of Administration", "submissionValue": "SUBCUTANEOUS", "synonyms": ["SC", "Subdermal Route of Administration"]}, {"conceptId": "C38304", "definition": "Administration to a particular spot on the outer surface of the body. The E2B term TRANSMAMMARY is a subset of the term TOPICAL. (FDA)", "preferredTerm": "Topical Route of Administration", "submissionValue": "TOPICAL", "synonyms": ["TOP"]}, {"conceptId": "C38305", "definition": "Administration through the dermal layer of the skin to the systemic circulation by diffusion. (FDA)", "preferredTerm": "Transdermal Route of Administration", "submissionValue": "TRANSDERMAL"}, {"conceptId": "C38313", "definition": "Administration into the vagina. (FDA)", "preferredTerm": "Vaginal Route of Administration", "submissionValue": "VAGINAL"}]}, {"conceptId": "C78422", "definition": "A terminology subset of the CDISC SDTM Unit codelist created for CDASH ECG Original Units codelist. (NCI)", "extensible": "true", "name": "ECG Original Units", "preferredTerm": "CDISC CDASH ECG Original Units Terminology", "submissionValue": "EGORRESU", "synonyms": ["ECG Original Units"], "terms": [{"conceptId": "C49673", "definition": "The number of heartbeats measured per minute time. (NCI)", "preferredTerm": "Beats per Minute", "submissionValue": "BEATS/MIN", "synonyms": ["Beats per Minute"]}, {"conceptId": "C41140", "definition": "A unit of time, which is equal to one thousandth of a second.(NCI)", "preferredTerm": "Millisecond", "submissionValue": "msec", "synonyms": ["Millisecond"]}, {"conceptId": "C42535", "definition": "The second is a unit of time with a duration of 919 263 177 0 periods of the specified light radiation corresponding to the transition between the two hyperfine levels of the cesium 133 atom in its ground state at 0 K. According to the convention, 60 seconds constitute one minute; 3,600 seconds constitute one hour. Abbreviation Sec. is acceptable in non-scientific usage only.(NCI)", "preferredTerm": "Second", "submissionValue": "sec", "synonyms": ["Second"]}]}, {"conceptId": "C78426", "definition": "A terminology subset of the CDISC SDTM Pharmaceutical Dosage Form codelist created for CDASH Exposure Dose Form codelist. (NCI)", "extensible": "true", "name": "Exposure Dose Form", "preferredTerm": "CDISC CDASH Exposure Dose Form Terminology", "submissionValue": "EXDOSFRM", "synonyms": ["Exposure Dose Form"], "terms": [{"conceptId": "C42887", "definition": "A product that is packaged under pressure and contains therapeutically active ingredients that are released upon activation of an appropriate valve system; it is intended for topical application to the skin as well as local application into the nose (nasal aerosols), mouth (lingual aerosols), or lungs (inhalation aerosols).", "preferredTerm": "Aerosol Dosage Form", "submissionValue": "AEROSOL", "synonyms": ["aer"]}, {"conceptId": "C25158", "definition": "A solid pharmaceutical dosage form that contains medicinal agent within either a hard or soft soluble container or shell, usually used for the oral administration of medicine. The shells are made of a suitable form of gelatin or other substance. (NCI)", "preferredTerm": "Capsule Dosage Form", "submissionValue": "CAPSULE", "synonyms": ["cap"]}, {"conceptId": "C28944", "definition": "A semisolid emulsion of either the oil-in-water or the water-in-oil type, ordinarily intended for topical use. (NCI)", "preferredTerm": "Cream Dosage Form", "submissionValue": "CREAM"}, {"conceptId": "C42933", "definition": "Any elastic aeriform fluid in which the molecules are separated from one another and have free paths. (NCI)", "preferredTerm": "Gas Dosage Form", "submissionValue": "GAS"}, {"conceptId": "C42934", "definition": "A semisolid (1) dosage form that contains a gelling agent to provide stiffness to a solution or a colloidal dispersion (2). A gel may contain suspended particles. Note 1: A semisolid is not pourable; it does not flow or conform to its container at room temperature. It does not flow at low shear stress and generally exhibits plastic flow behavior. Note 2: A colloidal dispersion is a system in which particles of colloidal dimension (i.e., typically between 1 nm and 1 micrometer) are distributed uniformly throughout a liquid.", "preferredTerm": "Gel Dosage Form", "submissionValue": "GEL"}, {"conceptId": "C42966", "definition": "A suspension or emulsion, semisolid (1) dosage form, usually containing < 20% water and volatiles (2) and > 50% hydrocarbons, waxes, or polyols as the vehicle. This dosage form is generally for external application to the skin or mucous membranes. Note 1: A semisolid is not pourable; it does not flow or conform to its container at room temperature. It does not flow at low shear stress and generally exhibits plastic flow behavior. Note 2: Percent water and volatiles are measured by a loss on drying test in which the sample is heated at 105 degrees C until constant weight is achieved.", "preferredTerm": "Ointment Dosage Form", "submissionValue": "OINTMENT", "synonyms": ["oint"]}, {"conceptId": "C42968", "definition": "A drug delivery system that often contains an adhesive backing that is usually applied to an external site on the body. Its ingredients either passively diffuse from, or are actively transported from, some portion of the patch. Depending upon the patch, the ingredients are either delivered to the outer surface of the body or into the body. A patch is sometimes synonymous with the terms Extended Release Film and System.", "preferredTerm": "Patch Dosage Form", "submissionValue": "PATCH"}, {"conceptId": "C42972", "definition": "An intimate mixture of dry, finely divided drugs and/or chemicals that may be intended for internal or external use. (NCI)", "preferredTerm": "Powder Dosage Form", "submissionValue": "POWDER"}, {"conceptId": "C42989", "definition": "A liquid minutely divided as by a jet of air or steam. (NCI)", "preferredTerm": "Spray Dosage Form", "submissionValue": "SPRAY"}, {"conceptId": "C42993", "definition": "A solid body of various weights and shapes, adapted for introduction into the rectal, vaginal, or urethral orifice of the human body; they usually melt, soften, or dissolve at body temperature.", "preferredTerm": "Suppository Dosage Form", "submissionValue": "SUPPOSITORY", "synonyms": ["supp"]}, {"conceptId": "C42994", "definition": "A liquid dosage form that contains solid particles dispersed in a liquid vehicle. Note: A liquid is pourable; it flows and conforms to its container at room temperature. It displays Newtonian or pseudoplastic flow behavior.", "preferredTerm": "Suspension Dosage Form", "submissionValue": "SUSPENSION", "synonyms": ["susp"]}, {"conceptId": "C42998", "definition": "A solid dosage form containing medicinal substances with or without suitable diluents. (NCI)", "preferredTerm": "Tablet Dosage Form", "submissionValue": "TABLET", "synonyms": ["tab"]}]}, {"conceptId": "C78745", "definition": "A terminology subset of the CDISC SDTM Frequency codelist created for CDASH Exposure Dosing Frequency per Interval codelist. (NCI)", "extensible": "true", "name": "Exposure Dosing Frequency per Interval", "preferredTerm": "CDISC CDASH Exposure Dosing Frequency per Interval Terminology", "submissionValue": "EXDOSFRQ", "synonyms": ["Exposure Dosing Frequency per Interval"], "terms": [{"conceptId": "C64496", "definition": "Two times per day, at unspecified times. (NCI)", "preferredTerm": "Twice Daily", "submissionValue": "BID", "synonyms": ["BD", "Twice per day"]}, {"conceptId": "C64499", "definition": "As needed. (NCI)", "preferredTerm": "As Necessary", "submissionValue": "PRN", "synonyms": ["As needed"]}, {"conceptId": "C25473", "definition": "Occurring or done each day. (NCI)", "preferredTerm": "Daily", "submissionValue": "QD", "synonyms": ["Daily", "Per Day"]}, {"conceptId": "C64530", "definition": "Four times per day. (NCI)", "preferredTerm": "Four Times Daily", "submissionValue": "QID", "synonyms": ["4 times per day"]}, {"conceptId": "C64498", "definition": "Every month. (NCI)", "preferredTerm": "Monthly", "submissionValue": "QM", "synonyms": ["Every Month", "Per Month"]}, {"conceptId": "C64525", "definition": "Every other day. (NCI)", "preferredTerm": "Every Other Day", "submissionValue": "QOD", "synonyms": ["Every other day"]}, {"conceptId": "C64527", "definition": "Three times per day. (NCI)", "preferredTerm": "Three Times Daily", "submissionValue": "TID", "synonyms": ["3 times per day"]}, {"conceptId": "C17998", "definition": "Not known, not observed, not recorded, or refused. (NCI)", "preferredTerm": "Unknown", "submissionValue": "UNKNOWN", "synonyms": ["U", "Unknown"]}]}, {"conceptId": "C78425", "definition": "A terminology subset of the CDISC SDTM Route codelist created for CDASH Exposure Route of Administration codelist. (NCI)", "extensible": "true", "name": "Exposure Route of Administration", "preferredTerm": "CDISC CDASH Exposure Route of Administration Terminology", "submissionValue": "EXROUTE", "synonyms": ["Exposure Route of Administration"], "terms": [{"conceptId": "C38250", "definition": "Administration within or introduced directly into a localized lesion. (FDA)", "preferredTerm": "Intralesional Route of Administration", "submissionValue": "INTRALESIONAL"}, {"conceptId": "C28161", "definition": "Administration within a muscle. (FDA)", "preferredTerm": "Intramuscular Route of Administration", "submissionValue": "INTRAMUSCULAR"}, {"conceptId": "C38255", "definition": "Administration within the eye. (FDA)", "preferredTerm": "Intraocular Route of Administration", "submissionValue": "INTRAOCULAR"}, {"conceptId": "C38258", "definition": "Administration within the peritoneal cavity. (FDA)", "preferredTerm": "Intraperitoneal Route of Administration", "submissionValue": "INTRAPERITONEAL"}, {"conceptId": "C38284", "definition": "Administration to the nose; administered by way of the nose. (FDA)", "preferredTerm": "Nasal Route of Administration", "submissionValue": "NASAL", "synonyms": ["Intranasal Route of Administration"]}, {"conceptId": "C38288", "definition": "Administration to or by way of the mouth. (FDA)", "preferredTerm": "Oral Route of Administration", "submissionValue": "ORAL", "synonyms": ["Intraoral Route of Administration", "PO"]}, {"conceptId": "C38295", "definition": "Administration to the rectum. (FDA)", "preferredTerm": "Rectal Route of Administration", "submissionValue": "RECTAL"}, {"conceptId": "C38216", "definition": "Administration within the respiratory tract by inhaling orally or nasally for local or systemic effect. (FDA)", "preferredTerm": "Inhalation Route of Administration", "submissionValue": "RESPIRATORY (INHALATION)"}, {"conceptId": "C38299", "definition": "Administration beneath the skin; hypodermic. Synonymous with the term SUBDERMAL. (FDA)", "preferredTerm": "Subcutaneous Route of Administration", "submissionValue": "SUBCUTANEOUS", "synonyms": ["SC", "Subdermal Route of Administration"]}, {"conceptId": "C38304", "definition": "Administration to a particular spot on the outer surface of the body. The E2B term TRANSMAMMARY is a subset of the term TOPICAL. (FDA)", "preferredTerm": "Topical Route of Administration", "submissionValue": "TOPICAL", "synonyms": ["TOP"]}, {"conceptId": "C38305", "definition": "Administration through the dermal layer of the skin to the systemic circulation by diffusion. (FDA)", "preferredTerm": "Transdermal Route of Administration", "submissionValue": "TRANSDERMAL"}, {"conceptId": "C38313", "definition": "Administration into the vagina. (FDA)", "preferredTerm": "Vaginal Route of Administration", "submissionValue": "VAGINAL"}]}, {"conceptId": "C83004", "definition": "A terminology subset of the CDISC SDTM Never/Current/Former Classification codelist created for CDASH Substance Use Never/Current/Former Classification codelist. (NCI)", "extensible": "true", "name": "Substance Use Never/Current/Former Classification", "preferredTerm": "CDISC CDASH Substance Use Never/Current/Former Classification Terminology", "submissionValue": "SUNCF", "synonyms": ["Substance Use Never/Current/Former Classification"], "terms": [{"conceptId": "C25471", "definition": "Occurring in or belonging to the present time. (NCI)", "preferredTerm": "Current", "submissionValue": "CURRENT"}, {"conceptId": "C25627", "definition": "Occurring prior to something else. (NCI)", "preferredTerm": "Previous", "submissionValue": "FORMER", "synonyms": ["Previous"]}, {"conceptId": "C70543", "definition": "Not ever; at no time in the past.", "preferredTerm": "Never", "submissionValue": "NEVER"}]}, {"conceptId": "C78428", "definition": "A terminology subset of the CDISC SDTM Unit codelist created for CDASH Total Volume Administration Unit codelist. (NCI)", "extensible": "true", "name": "Total Volume Administration Unit", "preferredTerm": "CDISC CDASH Total Volume Administration Unit Terminology", "submissionValue": "EXVOLTU", "synonyms": ["Total Volume Administration Unit"], "terms": [{"conceptId": "C28254", "definition": "The unit of volume equal to one thousandth of a liter, one cubic centimeter, 10E-6 cubic meter, or approximately to 0.061 023 7 cubic inch.(NCI)", "preferredTerm": "Milliliter", "submissionValue": "mL", "synonyms": ["Milliliter", "cm3"]}, {"conceptId": "C28253", "definition": "The unit of mass equal to one thousandth of a gram or 1000 micrograms. One milligram equals approximately 0.015432 grain or 35.274 x 10E-6 ounce.(NCI)", "preferredTerm": "Milligram", "submissionValue": "mg", "synonyms": ["Milligram"]}, {"conceptId": "C48152", "definition": "The unit of mass equal to one millionth of a gram or one thousandth of a milligram.(NCI)", "preferredTerm": "Microgram", "submissionValue": "ug", "synonyms": ["Microgram", "mcg"]}]}, {"conceptId": "C78427", "definition": "A terminology subset of the CDISC SDTM Unit codelist created for CDASH Unit for Duration of Treatment Interruption codelist. (NCI)", "extensible": "true", "name": "Unit for the Duration of Treatment Interruption", "preferredTerm": "CDISC CDASH Unit for Duration of Treatment Interruption Terminology", "submissionValue": "EXINTPU", "synonyms": ["Unit for the Duration of Treatment Interruption"], "terms": [{"conceptId": "C25529", "definition": "A unit measure of time equal to 3,600 seconds or 60 minutes. It is approximately 1/24 of a median day. (NCI)", "preferredTerm": "Hour", "submissionValue": "HOURS", "synonyms": ["Hour", "hr"]}, {"conceptId": "C48154", "definition": "A unit measure of time equal to 60 seconds.(NCI)", "preferredTerm": "Minute", "submissionValue": "min", "synonyms": ["Minute Unit of Time"]}, {"conceptId": "C42535", "definition": "The second is a unit of time with a duration of 919 263 177 0 periods of the specified light radiation corresponding to the transition between the two hyperfine levels of the cesium 133 atom in its ground state at 0 K. According to the convention, 60 seconds constitute one minute; 3,600 seconds constitute one hour. Abbreviation Sec. is acceptable in non-scientific usage only.(NCI)", "preferredTerm": "Second", "submissionValue": "sec", "synonyms": ["Second"]}]}, {"conceptId": "C78421", "definition": "A terminology subset of the CDISC SDTM Unit codelist created for CDASH Unit of Drug Dispensed or Returned codelist. (NCI)", "extensible": "true", "name": "Unit of Drug Dispensed or Returned", "preferredTerm": "CDISC CDASH Unit of Drug Dispensed or Returned Terminology", "submissionValue": "DAORRESU", "synonyms": ["Unit of Drug Dispensed or Returned"], "terms": [{"conceptId": "C48474", "definition": "A dosing measurement based on the bag unit.(NCI)", "preferredTerm": "Bag Dosing Unit", "submissionValue": "BAG", "synonyms": ["Bag Dosing Unit"]}, {"conceptId": "C48477", "definition": "A dosing measurement based on the bottle unit.(NCI)", "preferredTerm": "Bottle Dosing Unit", "submissionValue": "BOTTLE", "synonyms": ["Bottle Dosing Unit"]}, {"conceptId": "C48478", "definition": "A dosing measurement based on the box unit.(NCI)", "preferredTerm": "Box Dosing Unit", "submissionValue": "BOX", "synonyms": ["Box Dosing Unit"]}, {"conceptId": "C48480", "definition": "A dosing measurement based on the capsule unit.(NCI)", "preferredTerm": "Capsule Dosing Unit", "submissionValue": "CAPSULE", "synonyms": ["Capsule Dosing Unit", "cap"]}, {"conceptId": "C48484", "definition": "A dosing measurement based on the container unit.(NCI)", "preferredTerm": "Container Dosing Unit", "submissionValue": "CONTAINER", "synonyms": ["Container Dosing Unit"]}, {"conceptId": "C48490", "definition": "A dosing measurement based on the disk unit.(NCI)", "preferredTerm": "Disk Dosing Unit", "submissionValue": "DISK", "synonyms": ["Disk Dosing Unit"]}, {"conceptId": "C48520", "definition": "A dosing measurement based on the package unit.(NCI)", "preferredTerm": "Package Dosing Unit", "submissionValue": "PACKAGE", "synonyms": ["Pack Dosing Unit", "Package Dosing Unit"]}, {"conceptId": "C48521", "definition": "A dosing measurement based on the packet unit.(NCI)", "preferredTerm": "Packet Dosing Unit", "submissionValue": "PACKET", "synonyms": ["Packet Dosing Unit"]}, {"conceptId": "C48524", "definition": "A dosing measurement based on the patch unit.(NCI)", "preferredTerm": "Patch Dosing Unit", "submissionValue": "PATCH", "synonyms": ["Patch Dosing Unit"]}, {"conceptId": "C48542", "definition": "A dosing measurement based on the tablet unit.(NCI)", "preferredTerm": "Tablet Dosing Unit", "submissionValue": "TABLET", "synonyms": ["Tablet Dosing Unit", "tab"]}, {"conceptId": "C48549", "definition": "A dosing measurement based on the tube unit.(NCI)", "preferredTerm": "Tube Dosing Unit", "submissionValue": "TUBE", "synonyms": ["Tube Dosing Unit"]}, {"conceptId": "C48551", "definition": "A dosing measurement based on the vial unit.(NCI)", "preferredTerm": "Vial Dosing Unit", "submissionValue": "VIAL", "synonyms": ["Vial Dosing Unit"]}]}, {"conceptId": "C78429", "definition": "A terminology subset of the CDISC SDTM Unit codelist created for CDASH Unit of Measure for Flow Rate codelist. (NCI)", "extensible": "true", "name": "Unit of Measure for Flow Rate", "preferredTerm": "CDISC CDASH Unit of Measure for Flow Rate Terminology", "submissionValue": "EXFLRTU", "synonyms": ["Unit of Measure for Flow Rate"], "terms": [{"conceptId": "C64777", "definition": "A metric unit of volumetric flow rate defined as the rate at which one milliliter of matter travels during the period of time equal to one minute.(NCI)", "preferredTerm": "Milliliter per Minute", "submissionValue": "mL/min", "synonyms": ["Milliliters per Minute"]}, {"conceptId": "C67420", "definition": "A unit of amount of substance flow rate equivalent to the rate at which one thousandth of a mole of substance travels or is delivered to a given object or space over a period of time equal to 24 hours.(NCI)", "preferredTerm": "Millimole per 24 Hours", "submissionValue": "mmol/day", "synonyms": ["Millimole per 24 Hours"]}, {"conceptId": "C71205", "definition": "A unit of mass flow rate equivalent to the rate at which one millionth of a gram of matter travels to a given object or space over a period of time equal to twenty four hours. Microgram per day is also a dose administration rate unit equal to the rate at which one millionth of a gram of a product is administered per unit of time equal to twenty four hours.(NCI)", "preferredTerm": "Microgram per Day", "submissionValue": "ug/day", "synonyms": ["Microgram per Day", "mcg/day"]}, {"conceptId": "C71211", "definition": "A unit of mass flow rate equivalent to the rate at which one millionth of a gram of matter travels to a given object or space over a period of time equal to one minute. Microgram per minute is also a dose administration rate unit equal to the rate at which one millionth of a gram of a product is administered per unit of time equal to one minute.(NCI)", "preferredTerm": "Microgram per Minute", "submissionValue": "ug/min", "synonyms": ["Micrograms per Minute", "mcg/min"]}, {"conceptId": "C67406", "definition": "A unit of amount of substance flow rate equivalent to the rate at which one millionth of a mole of substance travels to a given object or space over a period of time equal to 24 hours.(NCI)", "preferredTerm": "Micromole per 24 Hours", "submissionValue": "umol/day", "synonyms": ["Micromoles per Day", "mcmol/day"]}]}, {"conceptId": "C78423", "definition": "A terminology subset of the CDISC SDTM Unit codelist created for CDASH Units for Exposure codelist. (NCI)", "extensible": "true", "name": "Units for Exposure", "preferredTerm": "CDISC CDASH Units for Exposure Terminology", "submissionValue": "EXDOSU", "synonyms": ["Units for Exposure"], "terms": [{"conceptId": "C48480", "definition": "A dosing measurement based on the capsule unit.(NCI)", "preferredTerm": "Capsule Dosing Unit", "submissionValue": "CAPSULE", "synonyms": ["Capsule Dosing Unit", "cap"]}, {"conceptId": "C65060", "definition": "A means of delivering a defined dose of a therapeutic aerolized solution into either the upper or lower respiratory tract. Metered-dose inhalers or spray pumps are devices that provide a puff dose for delivery into either the oral or the nasal cavity.(NCI)", "preferredTerm": "Puff Dosing Unit", "submissionValue": "PUFF", "synonyms": ["Puff"]}, {"conceptId": "C48542", "definition": "A dosing measurement based on the tablet unit.(NCI)", "preferredTerm": "Tablet Dosing Unit", "submissionValue": "TABLET", "synonyms": ["Tablet Dosing Unit", "tab"]}, {"conceptId": "C48155", "definition": "A metric unit of mass equal to one one thousandth of a kilogram. (NCI)", "preferredTerm": "Gram", "submissionValue": "g", "synonyms": ["Gram"]}, {"conceptId": "C28254", "definition": "The unit of volume equal to one thousandth of a liter, one cubic centimeter, 10E-6 cubic meter, or approximately to 0.061 023 7 cubic inch.(NCI)", "preferredTerm": "Milliliter", "submissionValue": "mL", "synonyms": ["Milliliter", "cm3"]}, {"conceptId": "C28253", "definition": "The unit of mass equal to one thousandth of a gram or 1000 micrograms. One milligram equals approximately 0.015432 grain or 35.274 x 10E-6 ounce.(NCI)", "preferredTerm": "Milligram", "submissionValue": "mg", "synonyms": ["Milligram"]}, {"conceptId": "C48152", "definition": "The unit of mass equal to one millionth of a gram or one thousandth of a milligram.(NCI)", "preferredTerm": "Microgram", "submissionValue": "ug", "synonyms": ["Microgram", "mcg"]}]}, {"conceptId": "C78430", "definition": "A terminology subset of the CDISC SDTM Unit codelist created for CDASH Units for Planned Exposure codelist. (NCI)", "extensible": "true", "name": "Units for Planned Exposure", "preferredTerm": "CDISC CDASH Units for Planned Exposure Terminology", "submissionValue": "EXPDOSEU", "synonyms": ["Units for Planned Exposure"], "terms": [{"conceptId": "C48480", "definition": "A dosing measurement based on the capsule unit.(NCI)", "preferredTerm": "Capsule Dosing Unit", "submissionValue": "CAPSULE", "synonyms": ["Capsule Dosing Unit", "cap"]}, {"conceptId": "C65060", "definition": "A means of delivering a defined dose of a therapeutic aerolized solution into either the upper or lower respiratory tract. Metered-dose inhalers or spray pumps are devices that provide a puff dose for delivery into either the oral or the nasal cavity.(NCI)", "preferredTerm": "Puff Dosing Unit", "submissionValue": "PUFF", "synonyms": ["Puff"]}, {"conceptId": "C48542", "definition": "A dosing measurement based on the tablet unit.(NCI)", "preferredTerm": "Tablet Dosing Unit", "submissionValue": "TABLET", "synonyms": ["Tablet Dosing Unit", "tab"]}, {"conceptId": "C48155", "definition": "A metric unit of mass equal to one one thousandth of a kilogram. (NCI)", "preferredTerm": "Gram", "submissionValue": "g", "synonyms": ["Gram"]}, {"conceptId": "C28254", "definition": "The unit of volume equal to one thousandth of a liter, one cubic centimeter, 10E-6 cubic meter, or approximately to 0.061 023 7 cubic inch.(NCI)", "preferredTerm": "Milliliter", "submissionValue": "mL", "synonyms": ["Milliliter", "cm3"]}, {"conceptId": "C28253", "definition": "The unit of mass equal to one thousandth of a gram or 1000 micrograms. One milligram equals approximately 0.015432 grain or 35.274 x 10E-6 ounce.(NCI)", "preferredTerm": "Milligram", "submissionValue": "mg", "synonyms": ["Milligram"]}, {"conceptId": "C48152", "definition": "The unit of mass equal to one millionth of a gram or one thousandth of a milligram.(NCI)", "preferredTerm": "Microgram", "submissionValue": "ug", "synonyms": ["Microgram", "mcg"]}]}, {"conceptId": "C78431", "definition": "A terminology subset of the CDISC SDTM Position codelist created for CDASH Vital Signs Position of Subject codelist. (NCI)", "extensible": "true", "name": "Vital Signs Position of Subject", "preferredTerm": "CDISC CDASH Vital Signs Position of Subject Terminology", "submissionValue": "VSPOS", "synonyms": ["Vital Signs Position of Subject"], "terms": [{"conceptId": "C62122", "definition": "The state or act of one who sits; the posture of one who occupies a seat. (NCI)", "preferredTerm": "Sitting", "submissionValue": "SITTING", "synonyms": ["Sitting"]}, {"conceptId": "C62166", "definition": "The act of assuming or maintaining an erect upright position. (NCI)", "preferredTerm": "Standing", "submissionValue": "STANDING", "synonyms": ["Standing"]}, {"conceptId": "C62167", "definition": "A posterior recumbent body position whereby the person lies on its back and faces upward. (NCI)", "preferredTerm": "Supine Position", "submissionValue": "SUPINE", "synonyms": ["Supine"]}]}], "description": "CDISC Controlled Terminology for CDASH is the set of CDISC-developed or CDISC-adopted standard expressions (values) used with data items within CDISC-defined CDASH datasets.", "effectiveDate": "2014-09-26", "label": "CDASH Controlled Terminology Package 19 Effective 2014-09-26", "name": "CDASH CT 2014-09-26", "registrationStatus": "Final", "source": "CDASH Controlled Terminology developed by the CDISC Terminology Team in collaboration with the National Cancer Institute's Enterprise Vocabulary Services (EVS)", "version": "2014-09-26"}
