{"name": "CDASH CT 2019-03-29", "label": "CDASH Controlled Terminology Package 37 Effective 2019-03-29", "description": "CDISC Controlled Terminology for CDASH is the set of CDISC-developed or CDISC-adopted standard expressions (values) used with data items within CDISC-defined CDASH datasets.", "source": "CDASH Controlled Terminology developed by the CDISC Terminology Team in collaboration with the National Cancer Institute's Enterprise Vocabulary Services (EVS)", "effectiveDate": "2019-03-29", "registrationStatus": "Final", "version": "2019-03-29", "_links": {"self": {"href": "/mdr/ct/packages/cdashct-2019-03-29", "title": "CDASH Controlled Terminology Package 37 Effective 2019-03-29", "type": "Terminology"}, "priorVersion": {"href": "/mdr/ct/packages/cdashct-2018-12-21", "title": "CDASH Controlled Terminology Package 36 Effective 2018-12-21", "type": "Terminology"}}, "codelists": [{"conceptId": "C78418", "extensible": "true", "name": "Concomitant Medication Dose Form", "submissionValue": "CMDOSFRM", "definition": "A terminology subset of the CDISC SDTM Pharmaceutical Dosage Form codelist created for CDASH Concomitant Medication Dose Form codelist. (NCI)", "preferredTerm": "CDISC CDASH Concomitant Medication Dose Form Terminology", "synonyms": ["Concomitant Medication Dose Form"], "terms": [{"conceptId": "C42887", "submissionValue": "AEROSOL", "definition": "A product that is packaged under pressure and contains therapeutically active ingredients that are released upon activation of an appropriate valve system; it is intended for topical application to the skin as well as local application into the nose (nasal aerosols), mouth (lingual aerosols), or lungs (inhalation aerosols).", "preferredTerm": "Aerosol Dosage Form", "synonyms": ["aer"]}, {"conceptId": "C25158", "submissionValue": "CAPSULE", "definition": "A solid pharmaceutical dosage form that contains medicinal agent within either a hard or soft soluble container or shell, usually used for the oral administration of medicine. The shells are made of a suitable form of gelatin or other substance. (NCI)", "preferredTerm": "Capsule Dosage Form", "synonyms": ["cap"]}, {"conceptId": "C28944", "submissionValue": "CREAM", "definition": "A semisolid emulsion of either the oil-in-water or the water-in-oil type, ordinarily intended for topical use. (NCI)", "preferredTerm": "Cream Dosage Form"}, {"conceptId": "C42933", "submissionValue": "GAS", "definition": "Any elastic aeriform fluid in which the molecules are separated from one another and have free paths. (NCI)", "preferredTerm": "Gas Dosage Form"}, {"conceptId": "C42934", "submissionValue": "GEL", "definition": "A semisolid (1) dosage form that contains a gelling agent to provide stiffness to a solution or a colloidal dispersion (2). A gel may contain suspended particles. Note 1: A semisolid is not pourable; it does not flow or conform to its container at room temperature. It does not flow at low shear stress and generally exhibits plastic flow behavior. Note 2: A colloidal dispersion is a system in which particles of colloidal dimension (i.e., typically between 1 nm and 1 micrometer) are distributed uniformly throughout a liquid.", "preferredTerm": "Gel Dosage Form"}, {"conceptId": "C42966", "submissionValue": "OINTMENT", "definition": "A suspension or emulsion, semisolid (1) dosage form, usually containing less than 20 percent water and volatiles (2) and greater than 50 percent hydrocarbons, waxes, or polyols as the vehicle. This dosage form is generally for external application to the skin or mucous membranes. Note 1: A semisolid is not pourable; it does not flow or conform to its container at room temperature. It does not flow at low shear stress and generally exhibits plastic flow behavior. Note 2: Percent water and volatiles are measured by a loss on drying test in which the sample is heated at 105 degrees C until constant weight is achieved.", "preferredTerm": "Ointment Dosage Form", "synonyms": ["oint"]}, {"conceptId": "C42968", "submissionValue": "PATCH", "definition": "A drug delivery system that often contains an adhesive backing that is usually applied to an external site on the body. Its ingredients either passively diffuse from, or are actively transported from, some portion of the patch. Depending upon the patch, the ingredients are either delivered to the outer surface of the body or into the body. A patch is sometimes synonymous with the terms Extended Release Film and System.", "preferredTerm": "Patch Dosage Form"}, {"conceptId": "C42972", "submissionValue": "POWDER", "definition": "An intimate mixture of dry, finely divided drugs and/or chemicals that may be intended for internal or external use. (NCI)", "preferredTerm": "Powder Dosage Form"}, {"conceptId": "C42989", "submissionValue": "SPRAY", "definition": "A liquid minutely divided as by a jet of air or steam. (NCI)", "preferredTerm": "Spray Dosage Form"}, {"conceptId": "C42993", "submissionValue": "SUPPOSITORY", "definition": "A solid body of various weights and shapes, adapted for introduction into the rectal, vaginal, or urethral orifice of the human body; they usually melt, soften, or dissolve at body temperature.", "preferredTerm": "Suppository Dosage Form", "synonyms": ["supp"]}, {"conceptId": "C42994", "submissionValue": "SUSPENSION", "definition": "A liquid dosage form that contains solid particles dispersed in a liquid vehicle. Note: A liquid is pourable; it flows and conforms to its container at room temperature. It displays Newtonian or pseudoplastic flow behavior.", "preferredTerm": "Suspension Dosage Form", "synonyms": ["susp"]}, {"conceptId": "C42998", "submissionValue": "TABLET", "definition": "A solid dosage form containing medicinal substances with or without suitable diluents. (NCI)", "preferredTerm": "Tablet Dosage Form", "synonyms": ["tab"]}]}, {"conceptId": "C78417", "extensible": "true", "name": "Concomitant Medication Dose Units", "submissionValue": "CMDOSU", "definition": "A terminology subset of the CDISC SDTM Unit codelist created for CDASH Concomitant Medication Dose Units codelist. (NCI)", "preferredTerm": "CDISC CDASH Concomitant Medication Dose Units Terminology", "synonyms": ["Concomitant Medication Dose Units"], "terms": [{"conceptId": "C48480", "submissionValue": "CAPSULE", "definition": "A dosing measurement based on the capsule unit.(NCI)", "preferredTerm": "Capsule Dosing Unit", "synonyms": ["Capsule Dosing Unit", "cap"]}, {"conceptId": "C48579", "submissionValue": "IU", "definition": "The unitage assigned by the WHO (World Health Organization) to International Biological Standards - substances, classed as biological according to the criteria provided by WHO Expert Committee on Biological Standardization, to enable the results of biological and immunological assay procedures to be expressed in the same way throughout the world. The definition of an international unit is generally arbitrary and technical, and has to be officially approved by the International Conference for Unification of Formulae.(NCI)", "preferredTerm": "International Unit", "synonyms": ["IE", "International Unit"]}, {"conceptId": "C65060", "submissionValue": "PUFF", "definition": "A means of delivering a defined dose of a therapeutic aerolized solution into either the upper or lower respiratory tract. Metered-dose inhalers or spray pumps are devices that provide a puff dose for delivery into either the oral or the nasal cavity.(NCI)", "preferredTerm": "Puff Dosing Unit", "synonyms": ["Puff Dosing Unit"]}, {"conceptId": "C48542", "submissionValue": "TABLET", "definition": "A dosing measurement based on the tablet unit.(NCI)", "preferredTerm": "Tablet Dosing Unit", "synonyms": ["Tablet Dosing Unit", "tab"]}, {"conceptId": "C48155", "submissionValue": "g", "definition": "A unit of mass equal to one thousandth (1E-3) of a kilogram, the kilogram being the base unit of mass in the International System of Units (SI).", "preferredTerm": "Gram", "synonyms": ["Gram"]}, {"conceptId": "C28254", "submissionValue": "mL", "definition": "A unit of volume equal to one thousandth (1E-3) of a liter.", "preferredTerm": "Milliliter", "synonyms": ["Milliliter", "cm3"]}, {"conceptId": "C28253", "submissionValue": "mg", "definition": "A unit of mass equal to one thousandth (1E-3) of a gram.", "preferredTerm": "Milligram", "synonyms": ["Milligram"]}, {"conceptId": "C48152", "submissionValue": "ug", "definition": "A unit of mass equal to one millionth (1E-6) of a gram.", "preferredTerm": "Microgram", "synonyms": ["Microgram", "mcg"]}]}, {"conceptId": "C78419", "extensible": "true", "name": "Concomitant Medication Dosing Frequency per Interval", "submissionValue": "CMDOSFRQ", "definition": "A terminology subset of the CDISC SDTM Frequency codelist created for CDASH Concomitant Medication Dosing Frequency per Interval codelist. (NCI)", "preferredTerm": "CDISC CDASH Concomitant Medication Dosing Frequency per Interval Terminology", "synonyms": ["Concomitant Medication Dosing Frequency per Interval"], "terms": [{"conceptId": "C64496", "submissionValue": "BID", "definition": "Two times per day, at unspecified times. (NCI)", "preferredTerm": "Twice Daily", "synonyms": ["BD", "Twice per day"]}, {"conceptId": "C64499", "submissionValue": "PRN", "definition": "As needed. (NCI)", "preferredTerm": "As Necessary", "synonyms": ["As needed"]}, {"conceptId": "C25473", "submissionValue": "QD", "definition": "A rate of occurrences within a period of time equal to one day.", "preferredTerm": "Daily", "synonyms": ["Daily"]}, {"conceptId": "C64530", "submissionValue": "QID", "definition": "Four times per day. (NCI)", "preferredTerm": "Four Times Daily", "synonyms": ["4 times per day"]}, {"conceptId": "C64498", "submissionValue": "QM", "definition": "Every month. (NCI)", "preferredTerm": "Monthly", "synonyms": ["Every Month", "Per Month"]}, {"conceptId": "C64525", "submissionValue": "QOD", "definition": "Every other day. (NCI)", "preferredTerm": "Every Other Day", "synonyms": ["Every other day"]}, {"conceptId": "C64527", "submissionValue": "TID", "definition": "Three times per day. (NCI)", "preferredTerm": "Three Times Daily", "synonyms": ["3 times per day"]}, {"conceptId": "C17998", "submissionValue": "UNKNOWN", "definition": "Not known, not observed, not recorded, or refused. (NCI)", "preferredTerm": "Unknown", "synonyms": ["U", "UNK", "Unknown"]}]}, {"conceptId": "C78420", "extensible": "true", "name": "Concomitant Medication Route of Administration", "submissionValue": "CMROUTE", "definition": "A terminology subset of the CDISC SDTM Route codelist created for CDASH Concomitant Medication Route of Administration codelist. (NCI)", "preferredTerm": "CDISC CDASH Concomitant Medication Route of Administration Terminology", "synonyms": ["Concomitant Medication Route of Administration"], "terms": [{"conceptId": "C38250", "submissionValue": "INTRALESIONAL", "definition": "Administration within or introduced directly into a localized lesion. (FDA)", "preferredTerm": "Intralesional Route of Administration"}, {"conceptId": "C28161", "submissionValue": "INTRAMUSCULAR", "definition": "Administration within a muscle. (FDA)", "preferredTerm": "Intramuscular Route of Administration"}, {"conceptId": "C38255", "submissionValue": "INTRAOCULAR", "definition": "Administration within the eye. (FDA)", "preferredTerm": "Intraocular Route of Administration"}, {"conceptId": "C38258", "submissionValue": "INTRAPERITONEAL", "definition": "Administration within the peritoneal cavity. (FDA)", "preferredTerm": "Intraperitoneal Route of Administration"}, {"conceptId": "C38284", "submissionValue": "NASAL", "definition": "Administration to the nose; administered by way of the nose. (FDA)", "preferredTerm": "Nasal Route of Administration", "synonyms": ["Intranasal Route of Administration"]}, {"conceptId": "C38288", "submissionValue": "ORAL", "definition": "Administration to or by way of the mouth. (FDA)", "preferredTerm": "Oral Route of Administration", "synonyms": ["Intraoral Route of Administration", "PO"]}, {"conceptId": "C38295", "submissionValue": "RECTAL", "definition": "Administration to the rectum. (FDA)", "preferredTerm": "Rectal Route of Administration"}, {"conceptId": "C38216", "submissionValue": "RESPIRATORY (INHALATION)", "definition": "Administration within the respiratory tract by inhaling orally or nasally for local or systemic effect. (FDA)", "preferredTerm": "Inhalation Route of Administration"}, {"conceptId": "C38299", "submissionValue": "SUBCUTANEOUS", "definition": "Administration beneath the skin; hypodermic. Synonymous with the term SUBDERMAL. (FDA)", "preferredTerm": "Subcutaneous Route of Administration", "synonyms": ["SC", "Subdermal Route of Administration"]}, {"conceptId": "C38304", "submissionValue": "TOPICAL", "definition": "Administration to a particular spot on the outer surface of the body. The E2B term TRANSMAMMARY is a subset of the term TOPICAL. (FDA)", "preferredTerm": "Topical Route of Administration", "synonyms": ["TOP"]}, {"conceptId": "C38305", "submissionValue": "TRANSDERMAL", "definition": "Administration through the dermal layer of the skin to the systemic circulation by diffusion. (FDA)", "preferredTerm": "Transdermal Route of Administration"}, {"conceptId": "C38313", "submissionValue": "VAGINAL", "definition": "Administration into the vagina. (FDA)", "preferredTerm": "Vaginal Route of Administration"}]}, {"conceptId": "C78422", "extensible": "true", "name": "ECG Original Units", "submissionValue": "EGORRESU", "definition": "A terminology subset of the CDISC SDTM Unit codelist created for CDASH ECG Original Units codelist. (NCI)", "preferredTerm": "CDISC CDASH ECG Original Units Terminology", "synonyms": ["ECG Original Units"], "terms": [{"conceptId": "C49673", "submissionValue": "beats/min", "definition": "The number of heartbeats measured per minute time. (NCI)", "preferredTerm": "Beats per Minute", "synonyms": ["Beats per Minute"]}, {"conceptId": "C41140", "submissionValue": "msec", "definition": "A unit of time, which is equal to one thousandth of a second.(NCI)", "preferredTerm": "Millisecond", "synonyms": ["Millisecond"]}, {"conceptId": "C42535", "submissionValue": "sec", "definition": "The base unit of time in the International System of Units (SI) equal to the duration of 9,192,631,770 periods of the specified light radiation corresponding to the transition between the two hyperfine levels of the cesium 133 atom in its ground state at 0 K.", "preferredTerm": "Second", "synonyms": ["Second"]}]}, {"conceptId": "C128690", "extensible": "true", "name": "Ethnicity As Collected", "submissionValue": "ETHNICC", "definition": "A terminology codelist relevant to the ethnicity of an individual as collected on the case report form.", "preferredTerm": "CDISC SDTM Collected Ethnicity Terminology", "synonyms": ["Ethnicity As Collected"], "terms": [{"conceptId": "C158197", "submissionValue": "ACHANG", "definition": "A Chinese person from the Achang ethnic group.", "preferredTerm": "Achang Chinese", "synonyms": ["AC"]}, {"conceptId": "C17950", "submissionValue": "ASHKENAZI JEW", "definition": "A person of Ashkenazi Jewish descent.", "preferredTerm": "Ashkenazi Jew"}, {"conceptId": "C158171", "submissionValue": "BAI", "definition": "A Chinese person from the Bai ethnic group.", "preferredTerm": "Bai Chinese", "synonyms": ["BA"]}, {"conceptId": "C158193", "submissionValue": "BLANG", "definition": "A Chinese person from the Blang ethnic group.", "preferredTerm": "Blang Chinese", "synonyms": ["BL"]}, {"conceptId": "C158203", "submissionValue": "BONAN", "definition": "A Chinese person from the Bonan ethnic group.", "preferredTerm": "Bonan Chinese", "synonyms": ["BN"]}, {"conceptId": "C158169", "submissionValue": "BUYEI", "definition": "A Chinese person from the Buyei ethnic group.", "preferredTerm": "Buyei Chinese", "synonyms": ["BY"]}, {"conceptId": "C67118", "submissionValue": "CENTRAL AMERICAN", "definition": "A person of Central American descent.", "preferredTerm": "Central American"}, {"conceptId": "C158172", "submissionValue": "CHOSEN", "definition": "A Chinese person from the Chosen ethnic group.", "preferredTerm": "Chosen Chinese", "synonyms": ["CS"]}, {"conceptId": "C107608", "submissionValue": "CUBAN", "definition": "A person of Cuban descent.", "preferredTerm": "Cuban"}, {"conceptId": "C67115", "submissionValue": "CUBAN AMERICAN", "definition": "A person of Cuban and American descent.", "preferredTerm": "Cuban or Cuban American"}, {"conceptId": "C158176", "submissionValue": "DAI", "definition": "A Chinese person from the Dai (including several different Tai-speaking groups historically referred to as Bai-yi) ethnic group.", "preferredTerm": "Dai Chinese", "synonyms": ["DA"]}, {"conceptId": "C158191", "submissionValue": "DAUR", "definition": "A Chinese person from the Daur ethnic group.", "preferredTerm": "Daur Chinese", "synonyms": ["DU"]}, {"conceptId": "C158202", "submissionValue": "DEANG", "definition": "A Chinese person from the Deang ethnic group.", "preferredTerm": "Deang Chinese", "synonyms": ["DE"]}, {"conceptId": "C158209", "submissionValue": "DERUNG", "definition": "A Chinese person from the Derung ethnic group.", "preferredTerm": "Derung Chinese", "synonyms": ["DR"]}, {"conceptId": "C158168", "submissionValue": "DONG", "definition": "A Chinese person from the Dong ethnic group.", "preferredTerm": "Dong Chinese", "synonyms": ["DO"]}, {"conceptId": "C158179", "submissionValue": "DONGXIANG", "definition": "A Chinese person from the Dongxiang ethnic group.", "preferredTerm": "Dongxiang Chinese", "synonyms": ["DX"]}, {"conceptId": "C158199", "submissionValue": "EWENKI", "definition": "A Chinese person from the Ewenki ethnic group.", "preferredTerm": "Ewenki Chinese", "synonyms": ["EW"]}, {"conceptId": "C158211", "submissionValue": "GAOSHAN", "definition": "A Chinese person from the Gaoshan ethnic group.", "preferredTerm": "Gaoshan Chinese", "synonyms": ["GS"]}, {"conceptId": "C158180", "submissionValue": "GELAO", "definition": "A Chinese person from the Gelao ethnic group.", "preferredTerm": "Gelao Chinese", "synonyms": ["GL"]}, {"conceptId": "C158200", "submissionValue": "GIN", "definition": "A Chinese person from the Gin ethnic group.", "preferredTerm": "Gin Chinese", "synonyms": ["GI"]}, {"conceptId": "C158158", "submissionValue": "HAN", "definition": "A Chinese person from the Han ethnic group (including Chuanqing).", "preferredTerm": "Han Chinese", "synonyms": ["HA"]}, {"conceptId": "C158173", "submissionValue": "HANI", "definition": "A Chinese person from the Hani (including Sangkong) ethnic group.", "preferredTerm": "Hani Chinese", "synonyms": ["HN"]}, {"conceptId": "C158210", "submissionValue": "HEZHEN", "definition": "A Chinese person from the Hezhen ethnic group.", "preferredTerm": "Hezhen Chinese", "synonyms": ["HZ"]}, {"conceptId": "C17459", "submissionValue": "HISPANIC OR LATINO", "definition": "A person of Mexican, Puerto Rican, Cuban, Central or South American or other Spanish culture or origin, regardless of race. (NCI)", "preferredTerm": "Hispanic or Latino"}, {"conceptId": "C158160", "submissionValue": "HUI", "definition": "A Chinese person from the Hui (including Utsuls of Hainan, descended from Cham refugees) ethnic group.", "preferredTerm": "Hui Chinese", "synonyms": ["HU"]}, {"conceptId": "C158190", "submissionValue": "JINGPO", "definition": "A Chinese person from the Jingpo ethnic group.", "preferredTerm": "Jingpo Chinese", "synonyms": ["JP"]}, {"conceptId": "C158201", "submissionValue": "JINO", "definition": "A Chinese person from the Jino ethnic group.", "preferredTerm": "Jino Chinese", "synonyms": ["JN"]}, {"conceptId": "C158175", "submissionValue": "KAZAK", "definition": "A Chinese person from the Kazak ethnic group.", "preferredTerm": "Kazak Chinese", "synonyms": ["KZ"]}, {"conceptId": "C158189", "submissionValue": "KIRGIZ", "definition": "A Chinese person from the Kirgiz ethnic group.", "preferredTerm": "Kirgiz Chinese", "synonyms": ["KG"]}, {"conceptId": "C158181", "submissionValue": "LAHU", "definition": "A Chinese person from the Lahu ethnic group.", "preferredTerm": "Lahu Chinese", "synonyms": ["LH"]}, {"conceptId": "C126531", "submissionValue": "LATIN AMERICAN", "definition": "A person of Latin American descent.", "preferredTerm": "Latin American"}, {"conceptId": "C158212", "submissionValue": "LHOBA", "definition": "A Chinese person from the Lhoba ethnic group.", "preferredTerm": "Lhoba Chinese", "synonyms": ["LB"]}, {"conceptId": "C158174", "submissionValue": "LI", "definition": "A Chinese person from the Li ethnic group.", "preferredTerm": "Li Chinese", "synonyms": ["LI"]}, {"conceptId": "C158178", "submissionValue": "LISU", "definition": "A Chinese person from the Lisu ethnic group.", "preferredTerm": "Lisu Chinese", "synonyms": ["LS"]}, {"conceptId": "C158161", "submissionValue": "MAN", "definition": "A Chinese person from the Man ethnic group.", "preferredTerm": "Man Chinese", "synonyms": ["MA"]}, {"conceptId": "C158194", "submissionValue": "MAONAN", "definition": "A Chinese person from the Maonan (including the Then) ethnic group.", "preferredTerm": "Maonan Chinese", "synonyms": ["MN"]}, {"conceptId": "C67113", "submissionValue": "MEXICAN", "definition": "A person of Mexican descent.", "preferredTerm": "Mexican"}, {"conceptId": "C67114", "submissionValue": "MEXICAN AMERICAN", "definition": "A person of Mexican and American descent.", "preferredTerm": "Mexican American"}, {"conceptId": "C158163", "submissionValue": "MIAO", "definition": "A Chinese person from the Miao (Including Hmong) ethnic group.", "preferredTerm": "Miao Chinese", "synonyms": ["MH"]}, {"conceptId": "C158207", "submissionValue": "MONBA", "definition": "A Chinese person from the Monba ethnic group.", "preferredTerm": "Monba Chinese", "synonyms": ["MB"]}, {"conceptId": "C158167", "submissionValue": "MONGOL", "definition": "A Chinese person from the Mongol ethnic group.", "preferredTerm": "Mongol Chinese", "synonyms": ["MG"]}, {"conceptId": "C158187", "submissionValue": "MULAO", "definition": "A Chinese person from the Mulao (including the Qago) ethnic group.", "preferredTerm": "Mulao Chinese", "synonyms": ["ML"]}, {"conceptId": "C158184", "submissionValue": "NAXI", "definition": "A Chinese person from the Naxi (including Mosuo) ethnic group.", "preferredTerm": "Naxi Chinese", "synonyms": ["NX"]}, {"conceptId": "C41222", "submissionValue": "NOT HISPANIC OR LATINO", "definition": "A person not of Cuban, Mexican, Puerto Rican, South or Central American, or other Spanish culture or origin, regardless of race. An arbitrary ethnic classification. (NCI)", "preferredTerm": "Not Hispanic or Latino"}, {"conceptId": "C43234", "submissionValue": "NOT REPORTED", "definition": "Not provided or available.", "preferredTerm": "Not Reported", "synonyms": ["Not reported"]}, {"conceptId": "C158198", "submissionValue": "NU", "definition": "A Chinese person from the Nu ethnic group.", "preferredTerm": "Nu Chinese", "synonyms": ["NU"]}, {"conceptId": "C158208", "submissionValue": "OROQEN", "definition": "A Chinese person from the Oroqen ethnic group.", "preferredTerm": "Oroqen Chinese", "synonyms": ["OR"]}, {"conceptId": "C67112", "submissionValue": "PUERTO RICAN", "definition": "A person of Puerto Rican descent.", "preferredTerm": "Puerto Rican"}, {"conceptId": "C158196", "submissionValue": "PUMI", "definition": "A Chinese person from the Pumi ethnic group.", "preferredTerm": "Pumi Chinese", "synonyms": ["PM"]}, {"conceptId": "C158185", "submissionValue": "QIANG", "definition": "A Chinese person from the Qiang ethnic group.", "preferredTerm": "Qiang Chinese", "synonyms": ["QI"]}, {"conceptId": "C158204", "submissionValue": "RUSS", "definition": "A Chinese person from the Russ ethnic group.", "preferredTerm": "Russ Chinese", "synonyms": ["RS"]}, {"conceptId": "C158192", "submissionValue": "SALAR", "definition": "A Chinese person from the Salar ethnic group.", "preferredTerm": "Salar Chinese", "synonyms": ["SL"]}, {"conceptId": "C103283", "submissionValue": "SEPHARDIC JEW", "definition": "A person of Sephardic Jewish descent.", "preferredTerm": "Sephardic Jew"}, {"conceptId": "C158177", "submissionValue": "SHE", "definition": "A Chinese person from the She ethnic group.", "preferredTerm": "She Chinese", "synonyms": ["SH"]}, {"conceptId": "C126532", "submissionValue": "SOUTH AMERICAN", "definition": "A person of South American descent.", "preferredTerm": "South American"}, {"conceptId": "C67120", "submissionValue": "SPANISH", "definition": "A person from Spain or of Spanish descent.", "preferredTerm": "Spanish"}, {"conceptId": "C158183", "submissionValue": "SUI", "definition": "A Chinese person from the Sui ethnic group.", "preferredTerm": "Sui Chinese", "synonyms": ["SU"]}, {"conceptId": "C158195", "submissionValue": "TAJIK", "definition": "A Chinese person from the Tajik ethnic group.", "preferredTerm": "Tajik Chinese", "synonyms": ["TA"]}, {"conceptId": "C158213", "submissionValue": "TATAR", "definition": "A Chinese person from the Tatar ethnic group.", "preferredTerm": "Tatar Chinese", "synonyms": ["TT"]}, {"conceptId": "C158186", "submissionValue": "TU", "definition": "A Chinese person from the Tu ethnic group.", "preferredTerm": "Tu Chinese", "synonyms": ["TU"]}, {"conceptId": "C158165", "submissionValue": "TUJIA", "definition": "A Chinese person from the Tujia ethnic group.", "preferredTerm": "Tujia Chinese", "synonyms": ["TJ"]}, {"conceptId": "C17998", "submissionValue": "UNKNOWN", "definition": "Not known, not observed, not recorded, or refused. (NCI)", "preferredTerm": "Unknown", "synonyms": ["U", "UNK", "Unknown"]}, {"conceptId": "C158162", "submissionValue": "UYGUR", "definition": "A Chinese person from the Uygur ethnic group.", "preferredTerm": "Uygur Chinese", "synonyms": ["UG"]}, {"conceptId": "C158206", "submissionValue": "UZBEK", "definition": "A Chinese person from the Uzbek ethnic group.", "preferredTerm": "Uzbek Chinese", "synonyms": ["UZ"]}, {"conceptId": "C158182", "submissionValue": "VA", "definition": "A Chinese person from the Va ethnic group.", "preferredTerm": "Va Chinese", "synonyms": ["VA"]}, {"conceptId": "C158188", "submissionValue": "XIBE", "definition": "A Chinese person from the Xibe ethnic group.", "preferredTerm": "Xibe Chinese", "synonyms": ["XB"]}, {"conceptId": "C158170", "submissionValue": "YAO", "definition": "A Chinese person from the Yao ethnic group.", "preferredTerm": "Yao Chinese", "synonyms": ["YA"]}, {"conceptId": "C158164", "submissionValue": "YI", "definition": "A Chinese person from the Yi ethnic group.", "preferredTerm": "Yi Chinese", "synonyms": ["YI"]}, {"conceptId": "C158205", "submissionValue": "YUGUR", "definition": "A Chinese person from the Yugur ethnic group.", "preferredTerm": "Yugur Chinese", "synonyms": ["YG"]}, {"conceptId": "C158166", "submissionValue": "ZANG", "definition": "A Chinese person from the Zang (including Amdowa, Khampa and some Pumi speakers) ethnic group.", "preferredTerm": "Zang Chinese", "synonyms": ["ZA"]}, {"conceptId": "C158159", "submissionValue": "ZHUANG", "definition": "A Chinese person from the Zhuang ethnic group.", "preferredTerm": "Zhuang Chinese", "synonyms": ["ZH"]}]}, {"conceptId": "C78426", "extensible": "true", "name": "Exposure Dose Form", "submissionValue": "EXDOSFRM", "definition": "A terminology subset of the CDISC SDTM Pharmaceutical Dosage Form codelist created for CDASH Exposure Dose Form codelist. (NCI)", "preferredTerm": "CDISC CDASH Exposure Dose Form Terminology", "synonyms": ["Exposure Dose Form"], "terms": [{"conceptId": "C42887", "submissionValue": "AEROSOL", "definition": "A product that is packaged under pressure and contains therapeutically active ingredients that are released upon activation of an appropriate valve system; it is intended for topical application to the skin as well as local application into the nose (nasal aerosols), mouth (lingual aerosols), or lungs (inhalation aerosols).", "preferredTerm": "Aerosol Dosage Form", "synonyms": ["aer"]}, {"conceptId": "C25158", "submissionValue": "CAPSULE", "definition": "A solid pharmaceutical dosage form that contains medicinal agent within either a hard or soft soluble container or shell, usually used for the oral administration of medicine. The shells are made of a suitable form of gelatin or other substance. (NCI)", "preferredTerm": "Capsule Dosage Form", "synonyms": ["cap"]}, {"conceptId": "C28944", "submissionValue": "CREAM", "definition": "A semisolid emulsion of either the oil-in-water or the water-in-oil type, ordinarily intended for topical use. (NCI)", "preferredTerm": "Cream Dosage Form"}, {"conceptId": "C42933", "submissionValue": "GAS", "definition": "Any elastic aeriform fluid in which the molecules are separated from one another and have free paths. (NCI)", "preferredTerm": "Gas Dosage Form"}, {"conceptId": "C42934", "submissionValue": "GEL", "definition": "A semisolid (1) dosage form that contains a gelling agent to provide stiffness to a solution or a colloidal dispersion (2). A gel may contain suspended particles. Note 1: A semisolid is not pourable; it does not flow or conform to its container at room temperature. It does not flow at low shear stress and generally exhibits plastic flow behavior. Note 2: A colloidal dispersion is a system in which particles of colloidal dimension (i.e., typically between 1 nm and 1 micrometer) are distributed uniformly throughout a liquid.", "preferredTerm": "Gel Dosage Form"}, {"conceptId": "C42966", "submissionValue": "OINTMENT", "definition": "A suspension or emulsion, semisolid (1) dosage form, usually containing less than 20 percent water and volatiles (2) and greater than 50 percent hydrocarbons, waxes, or polyols as the vehicle. This dosage form is generally for external application to the skin or mucous membranes. Note 1: A semisolid is not pourable; it does not flow or conform to its container at room temperature. It does not flow at low shear stress and generally exhibits plastic flow behavior. Note 2: Percent water and volatiles are measured by a loss on drying test in which the sample is heated at 105 degrees C until constant weight is achieved.", "preferredTerm": "Ointment Dosage Form", "synonyms": ["oint"]}, {"conceptId": "C42968", "submissionValue": "PATCH", "definition": "A drug delivery system that often contains an adhesive backing that is usually applied to an external site on the body. Its ingredients either passively diffuse from, or are actively transported from, some portion of the patch. Depending upon the patch, the ingredients are either delivered to the outer surface of the body or into the body. A patch is sometimes synonymous with the terms Extended Release Film and System.", "preferredTerm": "Patch Dosage Form"}, {"conceptId": "C42972", "submissionValue": "POWDER", "definition": "An intimate mixture of dry, finely divided drugs and/or chemicals that may be intended for internal or external use. (NCI)", "preferredTerm": "Powder Dosage Form"}, {"conceptId": "C42989", "submissionValue": "SPRAY", "definition": "A liquid minutely divided as by a jet of air or steam. (NCI)", "preferredTerm": "Spray Dosage Form"}, {"conceptId": "C42993", "submissionValue": "SUPPOSITORY", "definition": "A solid body of various weights and shapes, adapted for introduction into the rectal, vaginal, or urethral orifice of the human body; they usually melt, soften, or dissolve at body temperature.", "preferredTerm": "Suppository Dosage Form", "synonyms": ["supp"]}, {"conceptId": "C42994", "submissionValue": "SUSPENSION", "definition": "A liquid dosage form that contains solid particles dispersed in a liquid vehicle. Note: A liquid is pourable; it flows and conforms to its container at room temperature. It displays Newtonian or pseudoplastic flow behavior.", "preferredTerm": "Suspension Dosage Form", "synonyms": ["susp"]}, {"conceptId": "C42998", "submissionValue": "TABLET", "definition": "A solid dosage form containing medicinal substances with or without suitable diluents. (NCI)", "preferredTerm": "Tablet Dosage Form", "synonyms": ["tab"]}]}, {"conceptId": "C78745", "extensible": "true", "name": "Exposure Dosing Frequency per Interval", "submissionValue": "EXDOSFRQ", "definition": "A terminology subset of the CDISC SDTM Frequency codelist created for CDASH Exposure Dosing Frequency per Interval codelist. (NCI)", "preferredTerm": "CDISC CDASH Exposure Dosing Frequency per Interval Terminology", "synonyms": ["Exposure Dosing Frequency per Interval"], "terms": [{"conceptId": "C64496", "submissionValue": "BID", "definition": "Two times per day, at unspecified times. (NCI)", "preferredTerm": "Twice Daily", "synonyms": ["BD", "Twice per day"]}, {"conceptId": "C64499", "submissionValue": "PRN", "definition": "As needed. (NCI)", "preferredTerm": "As Necessary", "synonyms": ["As needed"]}, {"conceptId": "C25473", "submissionValue": "QD", "definition": "A rate of occurrences within a period of time equal to one day.", "preferredTerm": "Daily", "synonyms": ["Daily"]}, {"conceptId": "C64530", "submissionValue": "QID", "definition": "Four times per day. (NCI)", "preferredTerm": "Four Times Daily", "synonyms": ["4 times per day"]}, {"conceptId": "C64498", "submissionValue": "QM", "definition": "Every month. (NCI)", "preferredTerm": "Monthly", "synonyms": ["Every Month", "Per Month"]}, {"conceptId": "C64525", "submissionValue": "QOD", "definition": "Every other day. (NCI)", "preferredTerm": "Every Other Day", "synonyms": ["Every other day"]}, {"conceptId": "C64527", "submissionValue": "TID", "definition": "Three times per day. (NCI)", "preferredTerm": "Three Times Daily", "synonyms": ["3 times per day"]}, {"conceptId": "C17998", "submissionValue": "UNKNOWN", "definition": "Not known, not observed, not recorded, or refused. (NCI)", "preferredTerm": "Unknown", "synonyms": ["U", "UNK", "Unknown"]}]}, {"conceptId": "C78425", "extensible": "true", "name": "Exposure Route of Administration", "submissionValue": "EXROUTE", "definition": "A terminology subset of the CDISC SDTM Route codelist created for CDASH Exposure Route of Administration codelist. (NCI)", "preferredTerm": "CDISC CDASH Exposure Route of Administration Terminology", "synonyms": ["Exposure Route of Administration"], "terms": [{"conceptId": "C38250", "submissionValue": "INTRALESIONAL", "definition": "Administration within or introduced directly into a localized lesion. (FDA)", "preferredTerm": "Intralesional Route of Administration"}, {"conceptId": "C28161", "submissionValue": "INTRAMUSCULAR", "definition": "Administration within a muscle. (FDA)", "preferredTerm": "Intramuscular Route of Administration"}, {"conceptId": "C38255", "submissionValue": "INTRAOCULAR", "definition": "Administration within the eye. (FDA)", "preferredTerm": "Intraocular Route of Administration"}, {"conceptId": "C38258", "submissionValue": "INTRAPERITONEAL", "definition": "Administration within the peritoneal cavity. (FDA)", "preferredTerm": "Intraperitoneal Route of Administration"}, {"conceptId": "C38284", "submissionValue": "NASAL", "definition": "Administration to the nose; administered by way of the nose. (FDA)", "preferredTerm": "Nasal Route of Administration", "synonyms": ["Intranasal Route of Administration"]}, {"conceptId": "C38288", "submissionValue": "ORAL", "definition": "Administration to or by way of the mouth. (FDA)", "preferredTerm": "Oral Route of Administration", "synonyms": ["Intraoral Route of Administration", "PO"]}, {"conceptId": "C38295", "submissionValue": "RECTAL", "definition": "Administration to the rectum. (FDA)", "preferredTerm": "Rectal Route of Administration"}, {"conceptId": "C38216", "submissionValue": "RESPIRATORY (INHALATION)", "definition": "Administration within the respiratory tract by inhaling orally or nasally for local or systemic effect. (FDA)", "preferredTerm": "Inhalation Route of Administration"}, {"conceptId": "C38299", "submissionValue": "SUBCUTANEOUS", "definition": "Administration beneath the skin; hypodermic. Synonymous with the term SUBDERMAL. (FDA)", "preferredTerm": "Subcutaneous Route of Administration", "synonyms": ["SC", "Subdermal Route of Administration"]}, {"conceptId": "C38304", "submissionValue": "TOPICAL", "definition": "Administration to a particular spot on the outer surface of the body. The E2B term TRANSMAMMARY is a subset of the term TOPICAL. (FDA)", "preferredTerm": "Topical Route of Administration", "synonyms": ["TOP"]}, {"conceptId": "C38305", "submissionValue": "TRANSDERMAL", "definition": "Administration through the dermal layer of the skin to the systemic circulation by diffusion. (FDA)", "preferredTerm": "Transdermal Route of Administration"}, {"conceptId": "C38313", "submissionValue": "VAGINAL", "definition": "Administration into the vagina. (FDA)", "preferredTerm": "Vaginal Route of Administration"}]}, {"conceptId": "C128689", "extensible": "true", "name": "Race As Collected", "submissionValue": "RACEC", "definition": "A terminology codelist relevant to the race of an individual as collected on the case report form.", "preferredTerm": "CDISC SDTM Collected Race Terminology", "synonyms": ["Race As Collected"], "terms": [{"conceptId": "C154875", "submissionValue": "ABORIGINAL AUSTRALIAN", "definition": "The native people of Australia.", "preferredTerm": "Aboriginal Australian"}, {"conceptId": "C42331", "submissionValue": "AFRICAN", "definition": "A person having origins in any of the original peoples of sub-Saharan Africa.", "preferredTerm": "African"}, {"conceptId": "C128937", "submissionValue": "AFRICAN AMERICAN", "definition": "A person having origins in the original peoples of sub-Saharan Africa and the United States.", "preferredTerm": "African American"}, {"conceptId": "C41226", "submissionValue": "AFRICAN CARIBBEAN", "definition": "A person having origins in the original peoples of sub-Saharan Africa and the Caribbean.", "preferredTerm": "African Caribbean"}, {"conceptId": "C18237", "submissionValue": "ALASKA NATIVE", "definition": "The native people of Alaska.", "preferredTerm": "Alaska Native"}, {"conceptId": "C43877", "submissionValue": "AMERICAN INDIAN", "definition": "The native people of North America.", "preferredTerm": "American Indian"}, {"conceptId": "C41259", "submissionValue": "AMERICAN INDIAN OR ALASKA NATIVE", "definition": "A person having origins in any of the original peoples of North and South America (including Central America), and who maintains tribal affiliation or community attachment. (FDA)", "preferredTerm": "American Indian or Alaska Native"}, {"conceptId": "C43876", "submissionValue": "ARAB", "definition": "A person having origins in any of the original peoples of the Arabian peninsula and surrounding territories in the Middle East and northern Africa.", "preferredTerm": "Arab"}, {"conceptId": "C41260", "submissionValue": "ASIAN", "definition": "A person having origins in any of the original peoples of the Far East, Southeast Asia, or the Indian subcontinent including, for example, Cambodia, China, India, Japan, Korea, Malaysia, Pakistan, the Philippine Islands, Thailand, and Vietnam. (FDA)", "preferredTerm": "Asian"}, {"conceptId": "C16310", "submissionValue": "ASIAN AMERICAN", "definition": "A person having origins in the original peoples of Asia and the United States.", "preferredTerm": "Asian American"}, {"conceptId": "C41262", "submissionValue": "ASIAN INDIAN", "definition": "A person having origins in any of the original peoples of the Indian subcontinent.", "preferredTerm": "Asian Indian"}, {"conceptId": "C67271", "submissionValue": "BAHAMIAN", "definition": "A person having origins in any of the original peoples of the Bahamas.", "preferredTerm": "Bahamian"}, {"conceptId": "C43671", "submissionValue": "BANGLADESHI", "definition": "A person having origins in any of the original peoples of Bangladesh.", "preferredTerm": "Bangladeshi"}, {"conceptId": "C43823", "submissionValue": "BARBADIAN", "definition": "A person having origins in any of the original peoples of Barbados.", "preferredTerm": "Barbadian"}, {"conceptId": "C43673", "submissionValue": "BHUTANESE", "definition": "A person having origins in any of the original peoples of Bhutan.", "preferredTerm": "Bhutanese"}, {"conceptId": "C128938", "submissionValue": "BLACK", "definition": "A person having origins in the original peoples of sub-Saharan Africa or the Caribbean.", "preferredTerm": "Black"}, {"conceptId": "C128991", "submissionValue": "BLACK CENTRAL AMERICAN", "definition": "A person having origins in the original peoples of sub-Saharan Africa and Central America.", "preferredTerm": "Black Central American"}, {"conceptId": "C16352", "submissionValue": "BLACK OR AFRICAN AMERICAN", "definition": "A person having origins in any of the black racial groups of Africa. Terms such as \"Haitian\" or \"Negro\" can be used in addition to \"Black or African American.\" (FDA)", "preferredTerm": "Black or African American"}, {"conceptId": "C128992", "submissionValue": "BLACK SOUTH AMERICAN", "definition": "A person having origins in the original peoples of sub-Saharan Africa and South America.", "preferredTerm": "Black South American"}, {"conceptId": "C43830", "submissionValue": "BOTSWANAN", "definition": "A person having origins in any of the original peoples of Botswana.", "preferredTerm": "Botswanan"}, {"conceptId": "C43674", "submissionValue": "BURMESE", "definition": "A person having origins in any of the original peoples of Myanmar (formerly Burma).", "preferredTerm": "Burmese"}, {"conceptId": "C43399", "submissionValue": "CAMBODIAN", "definition": "A person having origins in any of the original peoples of Cambodia (formerly Kampuchea).", "preferredTerm": "Cambodian"}, {"conceptId": "C77810", "submissionValue": "CARIBBEAN INDIAN", "definition": "The native people of the Caribbean.", "preferredTerm": "Caribbean Indian"}, {"conceptId": "C44950", "submissionValue": "CENTRAL AMERICAN INDIAN", "definition": "The native people of Central America.", "preferredTerm": "Central American Indian"}, {"conceptId": "C43391", "submissionValue": "CHINESE", "definition": "A person having origins in any of the original peoples of China.", "preferredTerm": "Chinese"}, {"conceptId": "C43824", "submissionValue": "DOMINICA ISLANDER", "definition": "A person having origins in any of the original peoples of Dominica.", "preferredTerm": "Dominica Islander"}, {"conceptId": "C67117", "submissionValue": "DOMINICAN", "definition": "A person having origins in any of the original peoples of the Dominican Republic.", "preferredTerm": "Dominican"}, {"conceptId": "C77819", "submissionValue": "EASTERN EUROPEAN", "definition": "A person having origins in any of the original peoples of Eastern Europe.", "preferredTerm": "Eastern European"}, {"conceptId": "C43831", "submissionValue": "ETHIOPIAN", "definition": "A person having origins in any of the original peoples of Ethiopia.", "preferredTerm": "Ethiopian"}, {"conceptId": "C43851", "submissionValue": "EUROPEAN", "definition": "A person having origins in any of the original peoples of Europe.", "preferredTerm": "European"}, {"conceptId": "C43393", "submissionValue": "FILIPINO", "definition": "A person having origins in any of the original peoples of the Philippines.", "preferredTerm": "Filipino"}, {"conceptId": "C44265", "submissionValue": "GREENLAND INUIT", "definition": "The native people of Greenland.", "preferredTerm": "Greenland Eskimo"}, {"conceptId": "C43825", "submissionValue": "HAITIAN", "definition": "A person having origins in any of the original peoples of Haiti.", "preferredTerm": "Haitian"}, {"conceptId": "C43398", "submissionValue": "HMONG", "definition": "The native people originating in China around the Yellow River or Hoang Ho.", "preferredTerm": "Hmong"}, {"conceptId": "C43715", "submissionValue": "INDONESIAN", "definition": "A person having origins in any of the original peoples of Indonesia.", "preferredTerm": "Indonesian"}, {"conceptId": "C44268", "submissionValue": "INUPIAT INUIT", "definition": "The native people inhabiting the territory spanning the Norton Sound on the Bering Sea to the Canadian border.", "preferredTerm": "Inupiat Eskimo"}, {"conceptId": "C43718", "submissionValue": "IWO JIMAN", "definition": "A person having origins in any of the original peoples of Iwo Jima.", "preferredTerm": "Iwo Jiman"}, {"conceptId": "C43826", "submissionValue": "JAMAICAN", "definition": "A person having origins in any of the original peoples of Jamaica.", "preferredTerm": "Jamaican"}, {"conceptId": "C43392", "submissionValue": "JAPANESE", "definition": "A person having origins in any of the original peoples of Japan.", "preferredTerm": "Japanese"}, {"conceptId": "C154874", "submissionValue": "KHOISAN", "definition": "The native people of the Western Cape in southern Africa.", "preferredTerm": "Khoisan"}, {"conceptId": "C43395", "submissionValue": "KOREAN", "definition": "A person having origins in any of the original peoples of North and South Korea.", "preferredTerm": "Korean"}, {"conceptId": "C43397", "submissionValue": "LAOTIAN", "definition": "A person having origins in any of the original peoples of Laos.", "preferredTerm": "Laotian"}, {"conceptId": "C43832", "submissionValue": "LIBERIAN", "definition": "A person having origins in any of the original peoples of Liberia.", "preferredTerm": "Liberian"}, {"conceptId": "C43722", "submissionValue": "MALAGASY", "definition": "A person having origins in any of the original peoples of Madagascar.", "preferredTerm": "Malagasy"}, {"conceptId": "C43716", "submissionValue": "MALAYSIAN", "definition": "A person having origins in any of the original peoples of Malaysia.", "preferredTerm": "Malaysian"}, {"conceptId": "C43719", "submissionValue": "MALDIVIAN", "definition": "A person having origins in any of the original peoples of the Maldives.", "preferredTerm": "Maldivian"}, {"conceptId": "C158274", "submissionValue": "MAORI", "definition": "The native people of New Zealand.", "preferredTerm": "Maori"}, {"conceptId": "C77811", "submissionValue": "MEDITERRANEAN", "definition": "A person having origins in any of the original peoples of the countries surrounding the Mediterranean sea.", "preferredTerm": "Mediterranean"}, {"conceptId": "C43409", "submissionValue": "MELANESIAN", "definition": "A person having origins in any of the original peoples of Melanesia.", "preferredTerm": "Melanesian"}, {"conceptId": "C43402", "submissionValue": "MICRONESIAN", "definition": "A person having origins in any of the original peoples of Micronesia.", "preferredTerm": "Micronesian"}, {"conceptId": "C77820", "submissionValue": "MIDDLE EASTERN", "definition": "A person having origins in any of the original peoples of the Middle East.", "preferredTerm": "Middle Eastern"}, {"conceptId": "C43864", "submissionValue": "MONGOLIAN", "definition": "A person having origins in any of the original peoples of Mongolia.", "preferredTerm": "Mongolian"}, {"conceptId": "C43833", "submissionValue": "NAMIBIAN", "definition": "A person having origins in any of the original peoples of Namibia.", "preferredTerm": "Namibian"}, {"conceptId": "C41219", "submissionValue": "NATIVE HAWAIIAN OR OTHER PACIFIC ISLANDER", "definition": "Denotes a person having origins in any of the original peoples of Hawaii, Guam, Samoa, or other Pacific Islands. The term covers particularly people who identify themselves as part-Hawaiian, Native Hawaiian, Guamanian or Chamorro, Carolinian, Samoan, Chuu. (FDA)", "preferredTerm": "Native Hawaiian or Other Pacific Islander"}, {"conceptId": "C43720", "submissionValue": "NEPALESE", "definition": "A person having origins in any of the original peoples of Nepal.", "preferredTerm": "Nepalese"}, {"conceptId": "C43834", "submissionValue": "NIGERIAN", "definition": "A person having origins in any of the original peoples of Nigeria.", "preferredTerm": "Nigerian"}, {"conceptId": "C77813", "submissionValue": "NORTH AFRICAN", "definition": "A person having origins in any of the original peoples of North Africa.", "preferredTerm": "North Coast of Africa"}, {"conceptId": "C77814", "submissionValue": "NORTHERN EUROPEAN", "definition": "A person having origins in any of the original peoples of Northern Europe.", "preferredTerm": "Northern European"}, {"conceptId": "C43234", "submissionValue": "NOT REPORTED", "definition": "Not provided or available.", "preferredTerm": "Not Reported", "synonyms": ["Not reported"]}, {"conceptId": "C43717", "submissionValue": "OKINAWAN", "definition": "A person having origins in any of the original peoples of Okinawa.", "preferredTerm": "Okinawan"}, {"conceptId": "C43427", "submissionValue": "PAKISTANI", "definition": "A person having origins in any of the original peoples of Pakistan.", "preferredTerm": "Pakistani"}, {"conceptId": "C43405", "submissionValue": "POLYNESIAN", "definition": "A person having origins in any of the original peoples of Polynesia.", "preferredTerm": "Polynesian"}, {"conceptId": "C43860", "submissionValue": "RUSSIAN", "definition": "A person having origins in any of the original peoples of Russia.", "preferredTerm": "Russian"}, {"conceptId": "C44269", "submissionValue": "SIBERIAN ESKIMO", "definition": "The native Yupik people inhabiting the coast of the Chukchi Peninsula in the far northeast of the Russian Federation and on St. Lawrence Island in Alaska.", "preferredTerm": "Siberian Eskimo"}, {"conceptId": "C43721", "submissionValue": "SINGAPOREAN", "definition": "A person having origins in any of the original peoples of Singapore.", "preferredTerm": "Singaporean"}, {"conceptId": "C44953", "submissionValue": "SOUTH AMERICAN INDIAN", "definition": "The native people of South America.", "preferredTerm": "South American Indian"}, {"conceptId": "C156583", "submissionValue": "SOUTHERN AFRICAN COLOURED", "definition": "A person of mixed race, whose ancestry is from one or more of the naturalized racial groups of Southern Africa (typically Western European, South Asian, or Southeastern Asian) and one or more of the indigenous Southern African peoples.", "preferredTerm": "Southern African Coloured"}, {"conceptId": "C43672", "submissionValue": "SRI LANKAN", "definition": "A person having origins in any of the original peoples of Sri Lanka.", "preferredTerm": "Sri Lankan"}, {"conceptId": "C43675", "submissionValue": "TAIWANESE", "definition": "A person having origins in any of the original peoples of Taiwan.", "preferredTerm": "Taiwanese"}, {"conceptId": "C43400", "submissionValue": "THAI", "definition": "A person having origins in any of the original peoples of Thailand.", "preferredTerm": "Thai"}, {"conceptId": "C43827", "submissionValue": "TOBAGOAN", "definition": "A person having origins in any of the original peoples of Tobago.", "preferredTerm": "Tobagoan"}, {"conceptId": "C43828", "submissionValue": "TRINIDADIAN", "definition": "A person having origins in any of the original peoples of Trinidad.", "preferredTerm": "Trinidadian"}, {"conceptId": "C17998", "submissionValue": "UNKNOWN", "definition": "Not known, not observed, not recorded, or refused. (NCI)", "preferredTerm": "Unknown", "synonyms": ["U", "UNK", "Unknown"]}, {"conceptId": "C43396", "submissionValue": "VIETNAMESE", "definition": "A person having origins in any of the original peoples of Viet Nam.", "preferredTerm": "Vietnamese"}, {"conceptId": "C43829", "submissionValue": "WEST INDIAN", "definition": "A person having origins in any of the original peoples of the West Indies.", "preferredTerm": "West Indian"}, {"conceptId": "C77817", "submissionValue": "WESTERN EUROPEAN", "definition": "A person having origins in any of the original peoples of Western Europe.", "preferredTerm": "Western European"}, {"conceptId": "C41261", "submissionValue": "WHITE", "definition": "Denotes a person with European, Middle Eastern, or North African ancestral origin who identifies, or is identified, as White. (FDA)", "preferredTerm": "White"}, {"conceptId": "C77816", "submissionValue": "WHITE CARIBBEAN", "definition": "A person having origins in the original peoples of Europe, the Middle East, or North Africa, and the Caribbean.", "preferredTerm": "White Caribbean"}, {"conceptId": "C128993", "submissionValue": "WHITE CENTRAL AMERICAN", "definition": "A person having origins in the original peoples of Europe, the Middle East, or North Africa, and Central America.", "preferredTerm": "White Central American"}, {"conceptId": "C128994", "submissionValue": "WHITE SOUTH AMERICAN", "definition": "A person having origins in the original peoples of Europe, the Middle East, or North Africa, and South America.", "preferredTerm": "White South American"}, {"conceptId": "C44270", "submissionValue": "YUPIK ESKIMO", "definition": "The native people inhabiting western, southwestern, and southcentral Alaska and the Russian Far East.", "preferredTerm": "Yupik Eskimo"}, {"conceptId": "C43835", "submissionValue": "ZAIREAN", "definition": "A person having origins in any of the original peoples of Zaire.", "preferredTerm": "Zairean"}]}, {"conceptId": "C83004", "extensible": "true", "name": "Substance Use Never/Current/Former Classification", "submissionValue": "SUNCF", "definition": "A terminology subset of the CDISC SDTM Never/Current/Former Classification codelist created for CDASH Substance Use Never/Current/Former Classification codelist. (NCI)", "preferredTerm": "CDISC CDASH Substance Use Never/Current/Former Classification Terminology", "synonyms": ["Substance Use Never/Current/Former Classification"], "terms": [{"conceptId": "C25471", "submissionValue": "CURRENT", "definition": "Occurring in or belonging to the present time. (NCI)", "preferredTerm": "Current"}, {"conceptId": "C25627", "submissionValue": "FORMER", "definition": "Occurring prior to something else. (NCI)", "preferredTerm": "Previous", "synonyms": ["Previous"]}, {"conceptId": "C70543", "submissionValue": "NEVER", "definition": "Not ever; at no time in the past.", "preferredTerm": "Never"}]}, {"conceptId": "C78428", "extensible": "true", "name": "Total Volume Administration Unit", "submissionValue": "EXVOLTU", "definition": "A terminology subset of the CDISC SDTM Unit codelist created for CDASH Total Volume Administration Unit codelist. (NCI)", "preferredTerm": "CDISC CDASH Total Volume Administration Unit Terminology", "synonyms": ["Total Volume Administration Unit"], "terms": [{"conceptId": "C28254", "submissionValue": "mL", "definition": "A unit of volume equal to one thousandth (1E-3) of a liter.", "preferredTerm": "Milliliter", "synonyms": ["Milliliter", "cm3"]}, {"conceptId": "C28253", "submissionValue": "mg", "definition": "A unit of mass equal to one thousandth (1E-3) of a gram.", "preferredTerm": "Milligram", "synonyms": ["Milligram"]}, {"conceptId": "C48152", "submissionValue": "ug", "definition": "A unit of mass equal to one millionth (1E-6) of a gram.", "preferredTerm": "Microgram", "synonyms": ["Microgram", "mcg"]}]}, {"conceptId": "C78427", "extensible": "true", "name": "Unit for the Duration of Treatment Interruption", "submissionValue": "EXINTPU", "definition": "A terminology subset of the CDISC SDTM Unit codelist created for CDASH Unit for Duration of Treatment Interruption codelist. (NCI)", "preferredTerm": "CDISC CDASH Unit for Duration of Treatment Interruption Terminology", "synonyms": ["Unit for the Duration of Treatment Interruption"], "terms": [{"conceptId": "C25529", "submissionValue": "HOURS", "definition": "A unit of measurement of time equal to 60 minutes.", "preferredTerm": "Hour", "synonyms": ["Hours", "h", "hr"]}, {"conceptId": "C48154", "submissionValue": "min", "definition": "A unit of measurement of time equal to 60 seconds.", "preferredTerm": "Minute", "synonyms": ["Minute"]}, {"conceptId": "C42535", "submissionValue": "sec", "definition": "The base unit of time in the International System of Units (SI) equal to the duration of 9,192,631,770 periods of the specified light radiation corresponding to the transition between the two hyperfine levels of the cesium 133 atom in its ground state at 0 K.", "preferredTerm": "Second", "synonyms": ["Second"]}]}, {"conceptId": "C78421", "extensible": "true", "name": "Unit of Drug Dispensed or Returned", "submissionValue": "DAORRESU", "definition": "A terminology subset of the CDISC SDTM Unit codelist created for CDASH Unit of Drug Dispensed or Returned codelist. (NCI)", "preferredTerm": "CDISC CDASH Unit of Drug Dispensed or Returned Terminology", "synonyms": ["Unit of Drug Dispensed or Returned"], "terms": [{"conceptId": "C48474", "submissionValue": "BAG", "definition": "A dosing measurement based on the bag unit.(NCI)", "preferredTerm": "Bag Dosing Unit", "synonyms": ["Bag Dosing Unit"]}, {"conceptId": "C48477", "submissionValue": "BOTTLE", "definition": "A dosing measurement based on the bottle unit.(NCI)", "preferredTerm": "Bottle Dosing Unit", "synonyms": ["Bottle Dosing Unit"]}, {"conceptId": "C48478", "submissionValue": "BOX", "definition": "A dosing measurement based on the box unit.(NCI)", "preferredTerm": "Box Dosing Unit", "synonyms": ["Box Dosing Unit"]}, {"conceptId": "C48480", "submissionValue": "CAPSULE", "definition": "A dosing measurement based on the capsule unit.(NCI)", "preferredTerm": "Capsule Dosing Unit", "synonyms": ["Capsule Dosing Unit", "cap"]}, {"conceptId": "C48484", "submissionValue": "CONTAINER", "definition": "A dosing measurement based on the container unit.(NCI)", "preferredTerm": "Container Dosing Unit", "synonyms": ["Container Dosing Unit"]}, {"conceptId": "C48490", "submissionValue": "DISK", "definition": "A dosing measurement based on the disk unit.(NCI)", "preferredTerm": "Disk Dosing Unit", "synonyms": ["Disk Dosing Unit"]}, {"conceptId": "C48520", "submissionValue": "PACKAGE", "definition": "A dosing measurement based on the package unit.(NCI)", "preferredTerm": "Package Dosing Unit", "synonyms": ["Pack Dosing Unit", "Package Dosing Unit"]}, {"conceptId": "C48521", "submissionValue": "PACKET", "definition": "A dosing measurement based on the packet unit.(NCI)", "preferredTerm": "Packet Dosing Unit", "synonyms": ["Packet Dosing Unit"]}, {"conceptId": "C48524", "submissionValue": "PATCH", "definition": "A dosing measurement based on the patch unit.(NCI)", "preferredTerm": "Patch Dosing Unit", "synonyms": ["Patch Dosing Unit"]}, {"conceptId": "C48542", "submissionValue": "TABLET", "definition": "A dosing measurement based on the tablet unit.(NCI)", "preferredTerm": "Tablet Dosing Unit", "synonyms": ["Tablet Dosing Unit", "tab"]}, {"conceptId": "C48549", "submissionValue": "TUBE", "definition": "A dosing measurement based on the tube unit.(NCI)", "preferredTerm": "Tube Dosing Unit", "synonyms": ["Tube Dosing Unit"]}, {"conceptId": "C48551", "submissionValue": "VIAL", "definition": "A dosing measurement based on the vial unit.(NCI)", "preferredTerm": "Vial Dosing Unit", "synonyms": ["Vial Dosing Unit"]}]}, {"conceptId": "C78429", "extensible": "true", "name": "Unit of Measure for Flow Rate", "submissionValue": "EXFLRTU", "definition": "A terminology subset of the CDISC SDTM Unit codelist created for CDASH Unit of Measure for Flow Rate codelist. (NCI)", "preferredTerm": "CDISC CDASH Unit of Measure for Flow Rate Terminology", "synonyms": ["Unit of Measure for Flow Rate"], "terms": [{"conceptId": "C64777", "submissionValue": "mL/min", "definition": "A unit of flow rate equal to one milliliter per minute.", "preferredTerm": "Milliliter per Minute"}, {"conceptId": "C67420", "submissionValue": "mmol/day", "definition": "A unit of substance flow rate equal to one millimole per day.", "preferredTerm": "Millimole per 24 Hours"}, {"conceptId": "C71205", "submissionValue": "ug/day", "definition": "A unit of mass flow rate equal to one microgram per day.", "preferredTerm": "Microgram per Day", "synonyms": ["mcg/day"]}, {"conceptId": "C71211", "submissionValue": "ug/min", "definition": "A unit of mass flow rate equal to one microgram per minute.", "preferredTerm": "Microgram per Minute", "synonyms": ["mcg/min"]}, {"conceptId": "C67406", "submissionValue": "umol/day", "definition": "A unit of substance flow rate equal to one micromole per day.", "preferredTerm": "Micromole per 24 Hours", "synonyms": ["mcmol/day"]}]}, {"conceptId": "C78423", "extensible": "true", "name": "Units for Exposure", "submissionValue": "EXDOSU", "definition": "A terminology subset of the CDISC SDTM Unit codelist created for CDASH Units for Exposure codelist. (NCI)", "preferredTerm": "CDISC CDASH Units for Exposure Terminology", "synonyms": ["Units for Exposure"], "terms": [{"conceptId": "C48480", "submissionValue": "CAPSULE", "definition": "A dosing measurement based on the capsule unit.(NCI)", "preferredTerm": "Capsule Dosing Unit", "synonyms": ["Capsule Dosing Unit", "cap"]}, {"conceptId": "C65060", "submissionValue": "PUFF", "definition": "A means of delivering a defined dose of a therapeutic aerolized solution into either the upper or lower respiratory tract. Metered-dose inhalers or spray pumps are devices that provide a puff dose for delivery into either the oral or the nasal cavity.(NCI)", "preferredTerm": "Puff Dosing Unit", "synonyms": ["Puff Dosing Unit"]}, {"conceptId": "C48542", "submissionValue": "TABLET", "definition": "A dosing measurement based on the tablet unit.(NCI)", "preferredTerm": "Tablet Dosing Unit", "synonyms": ["Tablet Dosing Unit", "tab"]}, {"conceptId": "C48155", "submissionValue": "g", "definition": "A unit of mass equal to one thousandth (1E-3) of a kilogram, the kilogram being the base unit of mass in the International System of Units (SI).", "preferredTerm": "Gram", "synonyms": ["Gram"]}, {"conceptId": "C28254", "submissionValue": "mL", "definition": "A unit of volume equal to one thousandth (1E-3) of a liter.", "preferredTerm": "Milliliter", "synonyms": ["Milliliter", "cm3"]}, {"conceptId": "C28253", "submissionValue": "mg", "definition": "A unit of mass equal to one thousandth (1E-3) of a gram.", "preferredTerm": "Milligram", "synonyms": ["Milligram"]}, {"conceptId": "C48152", "submissionValue": "ug", "definition": "A unit of mass equal to one millionth (1E-6) of a gram.", "preferredTerm": "Microgram", "synonyms": ["Microgram", "mcg"]}]}, {"conceptId": "C78430", "extensible": "true", "name": "Units for Planned Exposure", "submissionValue": "EXPDOSEU", "definition": "A terminology subset of the CDISC SDTM Unit codelist created for CDASH Units for Planned Exposure codelist. (NCI)", "preferredTerm": "CDISC CDASH Units for Planned Exposure Terminology", "synonyms": ["Units for Planned Exposure"], "terms": [{"conceptId": "C48480", "submissionValue": "CAPSULE", "definition": "A dosing measurement based on the capsule unit.(NCI)", "preferredTerm": "Capsule Dosing Unit", "synonyms": ["Capsule Dosing Unit", "cap"]}, {"conceptId": "C65060", "submissionValue": "PUFF", "definition": "A means of delivering a defined dose of a therapeutic aerolized solution into either the upper or lower respiratory tract. Metered-dose inhalers or spray pumps are devices that provide a puff dose for delivery into either the oral or the nasal cavity.(NCI)", "preferredTerm": "Puff Dosing Unit", "synonyms": ["Puff Dosing Unit"]}, {"conceptId": "C48542", "submissionValue": "TABLET", "definition": "A dosing measurement based on the tablet unit.(NCI)", "preferredTerm": "Tablet Dosing Unit", "synonyms": ["Tablet Dosing Unit", "tab"]}, {"conceptId": "C48155", "submissionValue": "g", "definition": "A unit of mass equal to one thousandth (1E-3) of a kilogram, the kilogram being the base unit of mass in the International System of Units (SI).", "preferredTerm": "Gram", "synonyms": ["Gram"]}, {"conceptId": "C28254", "submissionValue": "mL", "definition": "A unit of volume equal to one thousandth (1E-3) of a liter.", "preferredTerm": "Milliliter", "synonyms": ["Milliliter", "cm3"]}, {"conceptId": "C28253", "submissionValue": "mg", "definition": "A unit of mass equal to one thousandth (1E-3) of a gram.", "preferredTerm": "Milligram", "synonyms": ["Milligram"]}, {"conceptId": "C48152", "submissionValue": "ug", "definition": "A unit of mass equal to one millionth (1E-6) of a gram.", "preferredTerm": "Microgram", "synonyms": ["Microgram", "mcg"]}]}, {"conceptId": "C78431", "extensible": "true", "name": "Vital Signs Position of Subject", "submissionValue": "VSPOS", "definition": "A terminology subset of the CDISC SDTM Position codelist created for CDASH Vital Signs Position of Subject codelist. (NCI)", "preferredTerm": "CDISC CDASH Vital Signs Position of Subject Terminology", "synonyms": ["Vital Signs Position of Subject"], "terms": [{"conceptId": "C62122", "submissionValue": "SITTING", "definition": "The state or act of one who sits; the posture of one who occupies a seat. (NCI)", "preferredTerm": "Sitting", "synonyms": ["Sitting"]}, {"conceptId": "C62166", "submissionValue": "STANDING", "definition": "The act of assuming or maintaining an erect upright position. (NCI)", "preferredTerm": "Standing", "synonyms": ["Standing"]}, {"conceptId": "C62167", "submissionValue": "SUPINE", "definition": "A posterior recumbent body position whereby the person lies on its back and faces upward. (NCI)", "preferredTerm": "Supine Position", "synonyms": ["Supine"]}]}]}