{"_links": {"priorVersion": {"href": "/mdr/ct/packages/define-xmlct-2020-11-06", "title": "DEFINE-XML Controlled Terminology Package 43 Effective 2020-11-06", "type": "Terminology"}, "self": {"href": "/mdr/ct/packages/define-xmlct-2020-12-18", "title": "DEFINE-XML Controlled Terminology Package 44 Effective 2020-12-18", "type": "Terminology"}}, "codelists": [{"conceptId": "C165635", "definition": "Terminology relevant to the subclasses of the ADaM basic data structure.", "extensible": "false", "name": "ADaM Basic Data Structure Subclass", "preferredTerm": "CDISC Define-XML ADaM Basic Data Structure Subclass Terminology", "submissionValue": "BDSSC", "synonyms": ["ADaM Basic Data Structure Subclass"], "terms": [{"conceptId": "C172452", "definition": "A dataset containing data that is used for non-compartmental analyses.", "preferredTerm": "Non-Compartmental Analysis Dataset", "submissionValue": "NON-COMPARTMENTAL ANALYSIS", "synonyms": ["NCA"]}, {"conceptId": "C165637", "definition": "A dataset containing data that is used for Time-to-Event analyses.", "preferredTerm": "Time-to-Event Dataset", "submissionValue": "TIME-TO-EVENT", "synonyms": ["TTE"]}]}, {"conceptId": "C165636", "definition": "Terminology relevant to the subclasses of the ADaM integrated basic data structure.", "extensible": "false", "name": "ADaM Integrated Basic Data Structure Subclass", "preferredTerm": "CDISC Define-XML ADaM Integrated Basic Data Structure Subclass Terminology", "submissionValue": "BDSISC", "synonyms": ["ADaM Integrated Basic Data Structure Subclass"], "terms": [{"conceptId": "C165637", "definition": "A dataset containing data that is used for Time-to-Event analyses.", "preferredTerm": "Time-to-Event Dataset", "submissionValue": "TIME-TO-EVENT", "synonyms": ["TTE"]}]}, {"conceptId": "C176227", "definition": "Terminology relevant to the subclasses of the ADaM occurrence data structure.", "extensible": "false", "name": "ADaM Occurrence Data Structure Subclass", "preferredTerm": "CDISC Define-XML ADaM Occurrence Data Structure Subclass Terminology", "submissionValue": "OCCSC", "synonyms": ["ADaM Occurrence Data Structure Subclass"], "terms": [{"conceptId": "C176265", "definition": "A dataset containing data that is used for adverse event analyses.", "preferredTerm": "Adverse Event Dataset", "submissionValue": "ADVERSE EVENT"}]}, {"conceptId": "C117745", "definition": "Purpose of a specific analysis result described in Define-XML analysis results metadata.", "extensible": "true", "name": "Analysis Purpose", "preferredTerm": "CDISC Define-XML Analysis Purpose Terminology", "submissionValue": "ANLPURP", "synonyms": ["Analysis Purpose"], "terms": [{"conceptId": "C98724", "definition": "The outcome measure(s) that is part of a pre-specified analysis plan used to evaluate the exploratory endpoint(s) associated with exploratory study objective(s) and/or any other measures, excluding post-hoc measures, that are a focus of the study. (After clinicaltrials.gov)", "preferredTerm": "Exploratory Outcome Measure", "submissionValue": "EXPLORATORY OUTCOME MEASURE", "synonyms": ["Exploratory Outcome Measure"]}, {"conceptId": "C98772", "definition": "The outcome measure(s) of greatest importance specified in the protocol, usually the one(s) used in the power calculation, to evaluate the primary endpoint(s) associated with the primary study objective(s). (After Clinicaltrials.gov)", "preferredTerm": "Primary Outcome Measure", "submissionValue": "PRIMARY OUTCOME MEASURE", "synonyms": ["Primary Outcome Measure"]}, {"conceptId": "C98781", "definition": "The outcome measure(s) that is part of a pre-specified analysis plan used to evaluate the secondary endpoint(s) associated with secondary study objective(s) and/or used to evaluate any measure(s) ancillary to the primary or secondary endpoint(s). (After Clinicaltrials.gov).", "preferredTerm": "Secondary Outcome Measure", "submissionValue": "SECONDARY OUTCOME MEASURE", "synonyms": ["Secondary Outcome Measure"]}]}, {"conceptId": "C117744", "definition": "Reason for reporting a specific analysis result described in Define-XML analysis results metadata.", "extensible": "true", "name": "Analysis Reason", "preferredTerm": "CDISC Define-XML Analysis Reason Terminology", "submissionValue": "ANLREAS", "synonyms": ["Analysis Reason"], "terms": [{"conceptId": "C117750", "definition": "The analysis was triggered by findings in the data.", "preferredTerm": "Data Driven Analysis", "submissionValue": "DATA DRIVEN"}, {"conceptId": "C117751", "definition": "The analysis has been requested by a regulatory agency.", "preferredTerm": "Analysis Requested by Regulatory Agency", "submissionValue": "REQUESTED BY REGULATORY AGENCY"}, {"conceptId": "C117752", "definition": "The analysis is specified in a protocol.", "preferredTerm": "Analysis Specified in Protocol", "submissionValue": "SPECIFIED IN PROTOCOL"}, {"conceptId": "C117753", "definition": "The analysis is specified in a statistical analysis plan.", "preferredTerm": "Analysis Specified in Statistical Analysis Plan", "submissionValue": "SPECIFIED IN SAP"}]}, {"conceptId": "C172331", "definition": "Terminology relevant to the classification of the CDISC controlled terminology standard described in the Define-XML document.", "extensible": "true", "name": "CDISC Controlled Terminology Standard Type", "preferredTerm": "CDISC Define-XML CDISC Controlled Terminology Standard Type Terminology", "submissionValue": "CTSTDTYP", "synonyms": ["CDISC Controlled Terminology Standard Type"], "terms": [{"conceptId": "C81222", "definition": "The terminology subset that includes terms pertaining to the Clinical Data Interchange Standards Consortium (CDISC) Analysis Data Model (ADaM).", "preferredTerm": "CDISC ADaM Terminology", "submissionValue": "ADaM"}, {"conceptId": "C77527", "definition": "The terminology subset that includes terms relevant to the Clinical Data Interchange Standards Consortium (CDISC) Clinical Data Acquisition Standards Harmonization (CDASH) group.", "preferredTerm": "CDISC CDASH Terminology", "submissionValue": "CDASH"}, {"conceptId": "C165634", "definition": "The terminology subset that includes terms relevant to the Clinical Data Interchange Standards Consortium (CDISC) Define-XML standard.", "preferredTerm": "CDISC Define-XML Terminology", "submissionValue": "DEFINE-XML"}, {"conceptId": "C66830", "definition": "The terminology subset that includes terms pertaining to the Clinical Data Interchange Standards Consortium (CDISC) Study Data Tabulation Model (SDTM).", "preferredTerm": "CDISC SDTM Terminology", "submissionValue": "SDTM"}, {"conceptId": "C77526", "definition": "The terminology subset that includes terms relevant to the Clinical Data Interchange Standards Consortium (CDISC) Standard for Exchange of Non-clinical Data (SEND) group.", "preferredTerm": "CDISC SEND Terminology", "submissionValue": "SEND"}]}, {"conceptId": "C66788", "definition": "A name given to a reference source that lists words and gives their meaning. (NCI)", "extensible": "true", "name": "Dictionary Name", "preferredTerm": "CDISC Dictionary Name Terminology", "submissionValue": "DICTNAM", "synonyms": ["Dictionary Name"], "terms": [{"conceptId": "C163415", "definition": "A standard terminology developed and maintained by Clinical Data Interchange Standards Consortium (CDISC) and the National Cancer Institute Enterprise Vocabulary Services (NCI-EVS) to support CDISC models, domains and specifications for data representation in regulated research.", "preferredTerm": "Clinical Data Interchange Standards Consortium Controlled Terminology", "submissionValue": "CDISC CT", "synonyms": ["CDISC Controlled Terminology", "Clinical Data Interchange Standards Consortium Controlled Terminology"]}, {"conceptId": "C49471", "definition": "A terminology developed and used by the Food and Drug Administration (FDA) for the coding, filing and retrieving of post marketing adverse reaction reports. (NCI)", "preferredTerm": "Thesaurus of Adverse Reaction Term Coding Symbols", "submissionValue": "COSTART", "synonyms": ["Coding Symbols for a Thesaurus of Adverse Reaction Terms"]}, {"conceptId": "C49704", "definition": "A standard terminology developed and maintained by the National Cancer Institute to report adverse events occurring in clinical trials. The CTCAE contains a grading scale for each adverse event term representing the severity of the event.", "preferredTerm": "Common Terminology Criteria for Adverse Events", "submissionValue": "CTCAE", "synonyms": ["Common Terminology Criteria for Adverse Events"]}, {"conceptId": "C134003", "definition": "A proprietary system developed and regulated by Dun & Bradstreet that assigns a unique nine digit numeric identifier to a single business entity location.", "preferredTerm": "Data Universal Numbering System", "submissionValue": "D-U-N-S NUMBER", "synonyms": ["DUNS Numbers", "Data Universal Number System"]}, {"conceptId": "C49474", "definition": "A system of categories to which morbid entries are assigned according to established criteria. Included is the entire range of conditions in a manageable number of categories, grouped to facilitate mortality reporting. It is produced by the World Health Organization (from ICD-10, p1). The Clinical Modifications, produced by the United States Dept. of Health and Human Services, are larger extensions used for morbidity and general epidemiological purposes, primarily in the U.S. (MSH2005_2004_10_12)", "preferredTerm": "International Classification of Diseases", "submissionValue": "ICD", "synonyms": ["International Classification of Diseases"]}, {"conceptId": "C49476", "definition": "Published by The Regenstrief Institute, the Logical Observation Identifiers Names and Codes covers clinical and clinical laboratory terminology. (NCI)", "preferredTerm": "Logical Observation Identifiers Names and Codes", "submissionValue": "LOINC", "synonyms": ["Logical Observation Identifiers Names and Codes"]}, {"conceptId": "C163416", "definition": "A standard terminology developed and maintained by the Veterans Health Administration (VHA) that includes terminology to support the mechanism of action, physiologic effect, and asserted pharmacologic classification relationships of medications. MED-RT incorporates terminology from RxNORM, MeSH, and SNOMED CT.", "preferredTerm": "Medication Reference Terminology", "submissionValue": "MED-RT", "synonyms": ["Medication Reference Terminology", "NDF-RT"]}, {"conceptId": "C43820", "definition": "MedDRA is an international medical terminology designed to support the classification, retrieval, presentation, and communication of medical information throughout the medical product regulatory cycle. MedDRA was developed under the auspices of the International Conference on Harmonisation of Technical Requirements for Registration of Pharmaceuticals for Human Use (ICH). The MedDRA Maintenance and Support Services Organization (MSSO) holds a contract with the International Federation of Pharmaceutical Manufacturers Associations (IFPMA) to maintain and support the implementation of the terminology. (NCI)", "preferredTerm": "MedDRA", "submissionValue": "MedDRA", "synonyms": ["Medical Dictionary for Regulatory Activities"]}, {"conceptId": "C53489", "definition": "A multiaxial, hierarchical classification system for diseases in man developed by the College of American Pathologists. (NCI)", "preferredTerm": "Systematized Nomenclature of Medicine", "submissionValue": "SNOMED", "synonyms": ["Systematized Nomenclature of Medicine"]}, {"conceptId": "C163417", "definition": "A standard terminology developed and maintained by the Department of Veterans Affairs/Veterans Health Administration designated federal collaborative Structured Product Labeling Interagency Expert Panel (SPLIEP). It contains terminology to support the mechanism of action, physiologic effect, and asserted pharmacologic classification relationships of drug ingredients and food allergens.", "preferredTerm": "Substance Registration System-Unique Ingredient Identifier", "submissionValue": "UNII", "synonyms": ["SRS-UNII", "Substance Registration System-Unique Ingredient Identifier"]}, {"conceptId": "C154331", "definition": "A World Health Organization (WHO) classification system, developed and maintained by the WHO Collaborating Centre for Drug Statistics Methodology, for medicinal substances where active substances are divided into different groups according to the organ or system on which they act and their therapeutic, pharmacological, and chemical properties.", "preferredTerm": "Anatomical Therapeutic Chemical Classification System", "submissionValue": "WHO ATC CLASSIFICATION SYSTEM", "synonyms": ["Anatomical Therapeutic Chemical Classification System"]}, {"conceptId": "C49468", "definition": "A terminology implemented by the World Health Organization to describe adverse reactions to a prescribed medication or treatment regimen. (NCI)", "preferredTerm": "World Health Organization Adverse Reaction Terminology", "submissionValue": "WHOART", "synonyms": ["World Health Organization Adverse Reaction Terms"]}, {"conceptId": "C49475", "definition": "A reference source of drugs and drug associated information maintained by the World Health Organization. (NCI)", "preferredTerm": "World Health Organization Drug Dictionary", "submissionValue": "WHODD", "synonyms": ["WHODrug Global", "World Health Organization Drug Dictionary"]}]}, {"conceptId": "C103329", "definition": "Terminology related to the classification of a CDISC domain.", "extensible": "false", "name": "General Observation Class", "preferredTerm": "CDISC Define-XML General Observation Class Terminology", "submissionValue": "GNRLOBSC", "synonyms": ["General Observation Class"], "terms": [{"conceptId": "C103375", "definition": "An analysis dataset that doesn't conform to a pre-defined ADaM dataset structure (e.g. ADSL, BDS or OCCDS).", "preferredTerm": "CDISC Other ADaM Dataset", "submissionValue": "ADAM OTHER"}, {"conceptId": "C103371", "definition": "An ADaM BDS dataset contains one or more records per subject, per analysis parameter, per analysis time point. Variables include the value being analyzed (e.g., AVAL) and the description of the value being analyzed (e.g., PARAM). Other variables in the dataset provide more information about the value being analyzed (e.g., the subject identification) or describe and trace the derivation of it (e.g., DTYPE) or support the analysis of it (e.g., treatment variables, covariates).", "preferredTerm": "CDISC Basic Data Structure Dataset", "submissionValue": "BASIC DATA STRUCTURE", "synonyms": ["BDS"]}, {"conceptId": "C103372", "definition": "This SDTM class captures planned protocol milestones such as randomization and study completion, and occurrences, conditions, or incidents independent of planned study evaluations occurring during the trial (e.g., adverse events) or prior to the trial (e.g., medical history).", "preferredTerm": "CDISC Events Class", "submissionValue": "EVENTS"}, {"conceptId": "C103373", "definition": "This SDTM class captures the observations resulting from planned evaluations to address specific tests or questions such as laboratory tests, ECG testing, and questions listed on questionnaires.", "preferredTerm": "CDISC Findings Class", "submissionValue": "FINDINGS"}, {"conceptId": "C135396", "definition": "This SDTM class is a specialization of the findings general observation class. It is intended, as its name implies, to be used when collected data represent findings about an event or intervention that cannot be represented within an event or intervention record or as a supplemental qualifier to such a record.", "preferredTerm": "CDISC Findings About Class", "submissionValue": "FINDINGS ABOUT"}, {"conceptId": "C132357", "definition": "The Integrated Basic Data Structure is the ADaM data structure including POOL as defined in the integrated SAP. If the IBDS class is needed then IADSL is required. See the study-level BDS class for further details.", "preferredTerm": "CDISC Integrated Basic Data Structure Dataset", "submissionValue": "INTEGRATED BASIC DATA STRUCTURE", "synonyms": ["IBDS"]}, {"conceptId": "C132358", "definition": "The Integrated Occurrence Data Strucutre is the ADaM data structure including POOL as defined in the integrated SAP. If the IOCCDS class is needed then IADSL is required.  See the study-level OCCDS class for further details.", "preferredTerm": "CDISC Integrated Occurrence Data Structure Dataset", "submissionValue": "INTEGRATED OCCURRENCE DATA STRUCTURE", "synonyms": ["IOCCDS"]}, {"conceptId": "C132359", "definition": "The Integrated Subject-Level Analysis Dataset is one record per subject per pool as defined in the integrated SAP and allows multiple records per subject. The integrated ADSL dataset, similar to the study-level ADSL dataset, contains variables that describe subject demographic characteristics and group the subjects for analysis, and is the primary source for subject-level variables included in other analysis datasets such as population flags and treatment variables.", "preferredTerm": "CDISC Integrated Subject Level Dataset", "submissionValue": "INTEGRATED SUBJECT LEVEL", "synonyms": ["IADSL"]}, {"conceptId": "C103374", "definition": "This SDTM class captures investigational, therapeutic and other treatments that are administered to the subject (with some actual or expected physiological effect) either as specified by the study protocol (e.g., exposure to study drug), coincident with the study assessment period (e.g., concomitant medications), or self-administered by the subject (such as use of alcohol, tobacco, or caffeine).", "preferredTerm": "CDISC Interventions Class", "submissionValue": "INTERVENTIONS"}, {"conceptId": "C123454", "definition": "The Occurrence Data Structure (OCCDS) is the ADaM data structure for occurrence analysis. Occurrence analysis is the counting of subjects with a record or term, and often includes a structured hierarchy of dictionary coding categories.", "preferredTerm": "CDISC Occurrence Data Structure", "submissionValue": "OCCURRENCE DATA STRUCTURE", "synonyms": ["OCCDS"]}, {"conceptId": "C103376", "definition": "This SDTM class provides a means to link related records between datasets. It includes the RELREC and SUPPQUAL datasets.", "preferredTerm": "CDISC Relationship Class", "submissionValue": "RELATIONSHIP"}, {"conceptId": "C103377", "definition": "This SDTM class contains a set of domains which do not conform to the Findings, Events or Interventions observation classes. The domains included are DM, CO, SE and SV.", "preferredTerm": "CDISC Special Purpose Class", "submissionValue": "SPECIAL PURPOSE", "synonyms": ["SPECIAL-PURPOSE"]}, {"conceptId": "C147271", "definition": "This special purpose SDTM class contains further descriptions of study-specific identifiers that will be used in subject based domains.", "preferredTerm": "CDISC Study Reference Class", "submissionValue": "STUDY REFERENCE"}, {"conceptId": "C103378", "definition": "The Subject-Level Analysis Dataset (ADSL) is a one-record-per-subject dataset which contains variables that describe subject demographic characteristics and group the subjects for analysis. ADSL is the primary source for subject-level variables included in other analysis datasets such as population flags and treatment variables.", "preferredTerm": "CDISC Subject Level Analysis Dataset", "submissionValue": "SUBJECT LEVEL ANALYSIS DATASET", "synonyms": ["ADSL"]}, {"conceptId": "C103379", "definition": "This SDTM class describes the plan for the procedures to be followed in a clinical trial, including planned and actual timing of events, control group, method of allocating treatments, blinding methods, assignment of epochs that subjects pass through in the course of a trial.", "preferredTerm": "CDISC Trial Design Class", "submissionValue": "TRIAL DESIGN"}]}, {"conceptId": "C170448", "definition": "Terminology relevant to the context in which the Define-XML document is used.", "extensible": "false", "name": "ODM Context", "preferredTerm": "CDISC Define-XML ODM Context Terminology", "submissionValue": "ODMCNTX", "synonyms": ["ODM Context"], "terms": [{"conceptId": "C17649", "definition": "Different than the one(s) previously specified or mentioned. (NCI)", "preferredTerm": "Other", "submissionValue": "Other", "synonyms": ["Other"]}, {"conceptId": "C70885", "definition": "An assembly of one or more regulatory submission units supporting a specific regulatory purpose or decision. In most cases, the compilation of the submission units is utilized in the assessment of a regulated medical product quality, safety and/or effectiveness.", "preferredTerm": "Regulatory Submission", "submissionValue": "Submission"}]}, {"conceptId": "C170450", "definition": "Terminology relevant to the origin source for datasets in the Define-XML document.", "extensible": "false", "name": "Origin Source", "preferredTerm": "CDISC Define-XML Origin Source Terminology", "submissionValue": "ORIGINS", "synonyms": ["Origin Source"], "terms": [{"conceptId": "C25936", "definition": "A person responsible for the conduct of the clinical trial at a trial site. If a trial is conducted by a team of individuals at the trial site, the investigator is the responsible leader of the team and may be called the principle investigator.", "preferredTerm": "Investigator", "submissionValue": "Investigator"}, {"conceptId": "C70793", "definition": "An entity that is responsible for the initiation, management, and/or financing of a clinical study.", "preferredTerm": "Clinical Study Sponsor", "submissionValue": "Sponsor", "synonyms": ["Clinical Study Sponsor", "Sponsor", "Study Sponsor"]}, {"conceptId": "C41189", "definition": "An individual who is observed, analyzed, examined, investigated, experimented upon, or/and treated in the course of a particular study.", "preferredTerm": "Study Subject", "submissionValue": "Subject"}, {"conceptId": "C68608", "definition": "A person or agency that promotes or exchanges goods or services for money. (NCI)", "preferredTerm": "Vendor", "submissionValue": "Vendor"}]}, {"conceptId": "C170449", "definition": "Terminology relevant to the origin type for datasets in the Define-XML document.", "extensible": "false", "name": "Origin Type", "preferredTerm": "CDISC Define-XML Origin Type Terminology", "submissionValue": "ORIGINT", "synonyms": ["Origin Type"], "terms": [{"conceptId": "C170547", "definition": "A value that is derived through designation, such as values from a look up table or a label on a CRF.", "preferredTerm": "Assigned Value", "submissionValue": "Assigned"}, {"conceptId": "C170548", "definition": "A value that is actually observed and recorded by a person or obtained by an instrument.", "preferredTerm": "Collected Value", "submissionValue": "Collected"}, {"conceptId": "C170549", "definition": "A value that is calculated by an algorithm or reproducible rule, and which is dependent upon other data values.", "preferredTerm": "Derived Value", "submissionValue": "Derived"}, {"conceptId": "C126101", "definition": "A value that is not discoverable or accessible.", "preferredTerm": "Not Available", "submissionValue": "Not Available"}, {"conceptId": "C170550", "definition": "A value that is copied from a variable in another dataset.", "preferredTerm": "Copied Value", "submissionValue": "Predecessor"}, {"conceptId": "C170551", "definition": "A value that is included as part of the study protocol.", "preferredTerm": "Protocol Value", "submissionValue": "Protocol"}]}, {"conceptId": "C170452", "definition": "Terminology relevant to the name of the standard described in the Define-XML document.", "extensible": "true", "name": "Standard Name", "preferredTerm": "CDISC Define-XML Standard Name Terminology", "submissionValue": "STDNAM", "synonyms": ["Standard Name"], "terms": [{"conceptId": "C170552", "definition": "The implementation guide for the Clinical Data Interchange Standards Consortium (CDISC) Analysis Data Model standard.", "preferredTerm": "ADaM Implementation Guide", "submissionValue": "ADaMIG"}, {"conceptId": "C163415", "definition": "A standard terminology developed and maintained by Clinical Data Interchange Standards Consortium (CDISC) and the National Cancer Institute Enterprise Vocabulary Services (NCI-EVS) to support CDISC models, domains and specifications for data representation in regulated research.", "preferredTerm": "Clinical Data Interchange Standards Consortium Controlled Terminology", "submissionValue": "CDISC/NCI", "synonyms": ["CDISC Controlled Terminology", "Clinical Data Interchange Standards Consortium Controlled Terminology"]}, {"conceptId": "C170455", "definition": "The implementation guide for the Clinical Data Interchange Standards Consortium (CDISC) Study Data Tabulation Model standard.", "preferredTerm": "SDTM Implementation Guide", "submissionValue": "SDTMIG"}, {"conceptId": "C170553", "definition": "The implementation guide for the Clinical Data Interchange Standards Consortium (CDISC) Study Data Tabulation Model Associated Persons standard.", "preferredTerm": "SDTM Implementation Guide-Associated Persons", "submissionValue": "SDTMIG-AP"}, {"conceptId": "C170554", "definition": "The implementation guide for the Clinical Data Interchange Standards Consortium (CDISC) Study Data Tabulation Model Medical Devices standard.", "preferredTerm": "SDTM Implementation Guide-Medical Devices", "submissionValue": "SDTMIG-MD"}, {"conceptId": "C170555", "definition": "The implementation guide for the Clinical Data Interchange Standards Consortium (CDISC) Study Data Tabulation Model Pharmacogenomics/Genetics standard.", "preferredTerm": "SDTM Implementation Guide-Pharmacogenomics/Genetics", "submissionValue": "SDTMIG-PGx"}, {"conceptId": "C170456", "definition": "The implementation guide for the Clinical Data Interchange Standards Consortium (CDISC) Standard for the Exchange of Nonclinical Data standard.", "preferredTerm": "SEND Implementation Guide", "submissionValue": "SENDIG"}, {"conceptId": "C170556", "definition": "The implementation guide for the Clinical Data Interchange Standards Consortium (CDISC) Standard for the Exchange of Nonclinical Data Developmental and Reproductive Toxicology standard.", "preferredTerm": "SEND Implementation Guide-Developmental and Reproductive Toxicology", "submissionValue": "SENDIG-DART"}]}, {"conceptId": "C172332", "definition": "Terminology relevant to the development or publication status of the standard.", "extensible": "true", "name": "Standard Status", "preferredTerm": "CDISC Define-XML Standard Status Terminology", "submissionValue": "STDSTAT", "synonyms": ["Standard Status"], "terms": [{"conceptId": "C172453", "definition": "A preliminary version of a CDISC standard that has not yet completed the CDISC standards development process. (NCI)", "preferredTerm": "CDISC Draft Standard", "submissionValue": "DRAFT"}, {"conceptId": "C172455", "definition": "A final version of a CDISC standard that has completed the CDISC standards development process. (NCI)", "preferredTerm": "CDISC Final Standard", "submissionValue": "FINAL"}, {"conceptId": "C172454", "definition": "A version of a CDISC standard whose conclusiveness is dependent upon the fulfillment of some contingency or final alteration. (NCI)", "preferredTerm": "CDISC Provisional Standard", "submissionValue": "PROVISIONAL"}]}, {"conceptId": "C170451", "definition": "Terminology relevant to the classification of the standard described in the Define-XML document.", "extensible": "true", "name": "Standard Type", "preferredTerm": "CDISC Define-XML Standard Type Terminology", "submissionValue": "STDTYP", "synonyms": ["Standard Type"], "terms": [{"conceptId": "C163415", "definition": "A standard terminology developed and maintained by Clinical Data Interchange Standards Consortium (CDISC) and the National Cancer Institute Enterprise Vocabulary Services (NCI-EVS) to support CDISC models, domains and specifications for data representation in regulated research.", "preferredTerm": "Clinical Data Interchange Standards Consortium Controlled Terminology", "submissionValue": "CT", "synonyms": ["CDISC Controlled Terminology", "Clinical Data Interchange Standards Consortium Controlled Terminology"]}, {"conceptId": "C170454", "definition": "A standard document developed and maintained by Clinical Data Interchange Standards Consortium (CDISC) that contains instructions and requirements for the organization, structure, and format of standard clinical and non-clinical trial tabulation and analysis datasets.", "preferredTerm": "CDISC Implementation Guide", "submissionValue": "IG", "synonyms": ["CDISC Implementation Guide"]}]}], "description": "CDISC Controlled Terminology for DEFINE-XML is the set of CDISC-developed or CDISC-adopted standard expressions (values) used with data items within CDISC-defined DEFINE-XML datasets.", "effectiveDate": "2020-12-18", "label": "DEFINE-XML Controlled Terminology Package 44 Effective 2020-12-18", "name": "DEFINE-XML CT 2020-12-18", "registrationStatus": "Final", "source": "DEFINE-XML Controlled Terminology developed by the CDISC Terminology Team in collaboration with the National Cancer Institute's Enterprise Vocabulary Services (EVS)", "version": "2020-12-18"}
