{"name": "DEFINE-XML CT 2019-12-20", "label": "DEFINE-XML Controlled Terminology Package 40 Effective 2019-12-20", "description": "CDISC Controlled Terminology for DEFINE-XML is the set of CDISC-developed or CDISC-adopted standard expressions (values) used with data items within CDISC-defined DEFINE-XML datasets.", "source": "DEFINE-XML Controlled Terminology developed by the CDISC Terminology Team in collaboration with the National Cancer Institute's Enterprise Vocabulary Services (EVS)", "effectiveDate": "2019-12-20", "registrationStatus": "Final", "version": "2019-12-20", "_links": {"self": {"href": "/mdr/ct/packages/define-xmlct-2019-12-20", "title": "DEFINE-XML Controlled Terminology Package 40 Effective 2019-12-20", "type": "Terminology"}}, "codelists": [{"conceptId": "C165635", "extensible": "false", "name": "ADaM Basic Data Structure Subclass", "submissionValue": "BDSSC", "definition": "Terminology relevant to the subclasses of the ADaM basic data structure.", "preferredTerm": "CDISC Define-XML ADaM Basic Data Structure Subclass Terminology", "synonyms": ["ADaM Basic Data Structure Subclass"], "terms": [{"conceptId": "C165637", "submissionValue": "TIME-TO-EVENT", "definition": "A dataset containing data that is used for Time-to-Event analyses.", "preferredTerm": "Time-to-Event Dataset", "synonyms": ["TTE"]}]}, {"conceptId": "C165636", "extensible": "false", "name": "ADaM Integrated Basic Data Structure Subclass", "submissionValue": "BDSISC", "definition": "Purpose of a specific analysis result described in ADaM analysis results metadata.", "preferredTerm": "CDISC Define-XML ADaM Integrated Basic Data Structure Subclass Terminology", "synonyms": ["ADaM Integrated Basic Data Structure Subclass"], "terms": [{"conceptId": "C165637", "submissionValue": "TIME-TO-EVENT", "definition": "A dataset containing data that is used for Time-to-Event analyses.", "preferredTerm": "Time-to-Event Dataset", "synonyms": ["TTE"]}]}, {"conceptId": "C117745", "extensible": "true", "name": "Analysis Purpose", "submissionValue": "ANLPURP", "definition": "Purpose of a specific analysis result described in Define-XML analysis results metadata.", "preferredTerm": "CDISC Define-XML Analysis Purpose Terminology", "synonyms": ["Analysis Purpose"], "terms": [{"conceptId": "C98724", "submissionValue": "EXPLORATORY OUTCOME MEASURE", "definition": "Exploratory measures that will be used to evaluate the intervention(s) or, for observational studies, that are exploratory of the study.", "preferredTerm": "Exploratory Outcome Measure", "synonyms": ["Exploratory Outcome Measure"]}, {"conceptId": "C98772", "submissionValue": "PRIMARY OUTCOME MEASURE", "definition": "The primary measurement(s) or observation(s) used to measure the effect of experimental variables in a study, or for observational studies, to describe patterns of diseases or traits or associations with exposures, risk factors or treatment. These are the outcome measures used to assess the primary objective(s).", "preferredTerm": "Primary Outcome Measure", "synonyms": ["Primary Outcome Measure"]}, {"conceptId": "C98781", "submissionValue": "SECONDARY OUTCOME MEASURE", "definition": "Secondary measures that will be used to evaluate the intervention(s) or, for observational studies, that are a focus of the study. These are the outcome measures used to assess the secondary objective(s).", "preferredTerm": "Secondary Outcome Measure", "synonyms": ["Secondary Outcome Measure"]}]}, {"conceptId": "C117744", "extensible": "true", "name": "Analysis Reason", "submissionValue": "ANLREAS", "definition": "Reason for reporting a specific analysis result described in Define-XML analysis results metadata.", "preferredTerm": "CDISC Define-XML Analysis Reason Terminology", "synonyms": ["Analysis Reason"], "terms": [{"conceptId": "C117750", "submissionValue": "DATA DRIVEN", "definition": "The analysis was triggered by findings in the data.", "preferredTerm": "Data Driven Analysis"}, {"conceptId": "C117751", "submissionValue": "REQUESTED BY REGULATORY AGENCY", "definition": "The analysis has been requested by a regulatory agency.", "preferredTerm": "Analysis Requested by Regulatory Agency"}, {"conceptId": "C117752", "submissionValue": "SPECIFIED IN PROTOCOL", "definition": "The analysis is specified in a protocol.", "preferredTerm": "Analysis Specified in Protocol"}, {"conceptId": "C117753", "submissionValue": "SPECIFIED IN SAP", "definition": "The analysis is specified in a statistical analysis plan.", "preferredTerm": "Analysis Specified in Statistical Analysis Plan"}]}, {"conceptId": "C66788", "extensible": "true", "name": "Dictionary Name", "submissionValue": "DICTNAM", "definition": "A name given to a reference source that lists words and gives their meaning. (NCI)", "preferredTerm": "CDISC Dictionary Name Terminology", "synonyms": ["Dictionary Name"], "terms": [{"conceptId": "C163415", "submissionValue": "CDISC CT", "definition": "A standard terminology developed and maintained by Clinical Data Interchange Standards Consortium (CDISC) and the National Cancer Institute Enterprise Vocabulary Services (NCI-EVS) to support CDISC models, domains and specifications for data representation in regulated research.", "preferredTerm": "Clinical Data Interchange Standards Consortium Controlled Terminology", "synonyms": ["CDISC Controlled Terminology", "Clinical Data Interchange Standards Consortium Controlled Terminology"]}, {"conceptId": "C49471", "submissionValue": "COSTART", "definition": "A terminology developed and used by the Food and Drug Administration (FDA) for the coding, filing and retrieving of post marketing adverse reaction reports. (NCI)", "preferredTerm": "Thesaurus of Adverse Reaction Term Coding Symbols", "synonyms": ["Coding Symbols for a Thesaurus of Adverse Reaction Terms"]}, {"conceptId": "C49704", "submissionValue": "CTCAE", "definition": "A standard terminology developed and maintained by the National Cancer Institute to report adverse events occurring in clinical trials. The CTCAE contains a grading scale for each adverse event term representing the severity of the event.", "preferredTerm": "Common Terminology Criteria for Adverse Events", "synonyms": ["Common Terminology Criteria for Adverse Events"]}, {"conceptId": "C134003", "submissionValue": "D-U-N-S NUMBER", "definition": "A proprietary system developed and regulated by Dun & Bradstreet that assigns a unique nine digit numeric identifier to a single business entity location.", "preferredTerm": "Data Universal Numbering System", "synonyms": ["DUNS Numbers", "Data Universal Number System"]}, {"conceptId": "C49474", "submissionValue": "ICD", "definition": "A system of categories to which morbid entries are assigned according to established criteria. Included is the entire range of conditions in a manageable number of categories, grouped to facilitate mortality reporting. It is produced by the World Health Organization (from ICD-10, p1). The Clinical Modifications, produced by the United States Dept. of Health and Human Services, are larger extensions used for morbidity and general epidemiological purposes, primarily in the U.S. (MSH2005_2004_10_12)", "preferredTerm": "International Classification of Diseases", "synonyms": ["International Classification of Diseases"]}, {"conceptId": "C49476", "submissionValue": "LOINC", "definition": "Published by The Regenstrief Institute, the Logical Observation Identifiers Names and Codes covers clinical and clinical laboratory terminology. (NCI)", "preferredTerm": "Logical Observation Identifiers Names and Codes", "synonyms": ["Logical Observation Identifiers Names and Codes"]}, {"conceptId": "C163416", "submissionValue": "MED-RT", "definition": "A standard terminology developed and maintained by the Veterans Health Administration (VHA) that includes terminology to support the mechanism of action, physiologic effect, and asserted pharmacologic classification relationships of medications. MED-RT incorporates terminology from RxNORM, MeSH, and SNOMED CT.", "preferredTerm": "Medication Reference Terminology", "synonyms": ["Medication Reference Terminology", "NDF-RT"]}, {"conceptId": "C43820", "submissionValue": "MedDRA", "definition": "MedDRA is an international medical terminology designed to support the classification, retrieval, presentation, and communication of medical information throughout the medical product regulatory cycle. MedDRA was developed under the auspices of the International Conference on Harmonisation of Technical Requirements for Registration of Pharmaceuticals for Human Use (ICH). The MedDRA Maintenance and Support Services Organization (MSSO) holds a contract with the International Federation of Pharmaceutical Manufacturers Associations (IFPMA) to maintain and support the implementation of the terminology. (NCI)", "preferredTerm": "MedDRA", "synonyms": ["Medical Dictionary for Regulatory Activities"]}, {"conceptId": "C53489", "submissionValue": "SNOMED", "definition": "A multiaxial, hierarchical classification system for diseases in man developed by the College of American Pathologists. (NCI)", "preferredTerm": "Systematized Nomenclature of Medicine", "synonyms": ["Systematized Nomenclature of Medicine"]}, {"conceptId": "C163417", "submissionValue": "UNII", "definition": "A standard terminology developed and maintained by the Department of Veterans Affairs/Veterans Health Administration designated federal collaborative Structured Product Labeling Interagency Expert Panel (SPLIEP). It contains terminology to support the mechanism of action, physiologic effect, and asserted pharmacologic classification relationships of drug ingredients and food allergens.", "preferredTerm": "Substance Registration System-Unique Ingredient Identifier", "synonyms": ["SRS-UNII", "Substance Registration System-Unique Ingredient Identifier"]}, {"conceptId": "C154331", "submissionValue": "WHO ATC CLASSIFICATION SYSTEM", "definition": "A World Health Organization (WHO) classification system, developed and maintained by the WHO Collaborating Centre for Drug Statistics Methodology, for medicinal substances where active substances are divided into different groups according to the organ or system on which they act and their therapeutic, pharmacological, and chemical properties.", "preferredTerm": "Anatomical Therapeutic Chemical Classification System", "synonyms": ["Anatomical Therapeutic Chemical Classification System"]}, {"conceptId": "C49468", "submissionValue": "WHOART", "definition": "A terminology implemented by the World Health Organization to describe adverse reactions to a prescribed medication or treatment regimen. (NCI)", "preferredTerm": "World Health Organization Adverse Reaction Terminology", "synonyms": ["World Health Organization Adverse Reaction Terms"]}, {"conceptId": "C49475", "submissionValue": "WHODD", "definition": "A reference source of drugs and drug associated information maintained by the World Health Organization. (NCI)", "preferredTerm": "World Health Organization Drug Dictionary", "synonyms": ["WHODrug Global", "World Health Organization Drug Dictionary"]}]}, {"conceptId": "C103329", "extensible": "false", "name": "General Observation Class", "submissionValue": "GNRLOBSC", "definition": "Terminology related to the classification of a CDISC domain.", "preferredTerm": "CDISC Define-XML General Observation Class Terminology", "synonyms": ["General Observation Class"], "terms": [{"conceptId": "C103375", "submissionValue": "ADAM OTHER", "definition": "An analysis dataset that doesn't conform to a pre-defined ADaM dataset structure (e.g. ADSL, BDS or OCCDS).", "preferredTerm": "CDISC Other ADaM Dataset"}, {"conceptId": "C103371", "submissionValue": "BASIC DATA STRUCTURE", "definition": "An ADaM BDS dataset contains one or more records per subject, per analysis parameter, per analysis time point. Variables include the value being analyzed (e.g., AVAL) and the description of the value being analyzed (e.g., PARAM). Other variables in the dataset provide more information about the value being analyzed (e.g., the subject identification) or describe and trace the derivation of it (e.g., DTYPE) or support the analysis of it (e.g., treatment variables, covariates).", "preferredTerm": "CDISC Basic Data Structure Dataset", "synonyms": ["BDS"]}, {"conceptId": "C103372", "submissionValue": "EVENTS", "definition": "This SDTM class captures planned protocol milestones such as randomization and study completion, and occurrences, conditions, or incidents independent of planned study evaluations occurring during the trial (e.g., adverse events) or prior to the trial (e.g., medical history).", "preferredTerm": "CDISC Events Class"}, {"conceptId": "C103373", "submissionValue": "FINDINGS", "definition": "This SDTM class captures the observations resulting from planned evaluations to address specific tests or questions such as laboratory tests, ECG testing, and questions listed on questionnaires.", "preferredTerm": "CDISC Findings Class"}, {"conceptId": "C135396", "submissionValue": "FINDINGS ABOUT", "definition": "This SDTM class is a specialization of the findings general observation class. It is intended, as its name implies, to be used when collected data represent findings about an event or intervention that cannot be represented within an event or intervention record or as a supplemental qualifier to such a record.", "preferredTerm": "CDISC Findings About Class"}, {"conceptId": "C132357", "submissionValue": "INTEGRATED BASIC DATA STRUCTURE", "definition": "The Integrated Basic Data Structure is the ADaM data structure including POOL as defined in the integrated SAP. If the IBDS class is needed then IADSL is required. See the study-level BDS class for further details.", "preferredTerm": "CDISC Integrated Basic Data Structure Dataset", "synonyms": ["IBDS"]}, {"conceptId": "C132358", "submissionValue": "INTEGRATED OCCURRENCE DATA STRUCTURE", "definition": "The Integrated Occurrence Data Strucutre is the ADaM data structure including POOL as defined in the integrated SAP. If the IOCCDS class is needed then IADSL is required.  See the study-level OCCDS class for further details.", "preferredTerm": "CDISC Integrated Occurrence Data Structure Dataset", "synonyms": ["IOCCDS"]}, {"conceptId": "C132359", "submissionValue": "INTEGRATED SUBJECT LEVEL", "definition": "The Integrated Subject-Level Analysis Dataset is one record per subject per pool as defined in the integrated SAP and allows multiple records per subject. The integrated ADSL dataset, similar to the study-level ADSL dataset, contains variables that describe subject demographic characteristics and group the subjects for analysis, and is the primary source for subject-level variables included in other analysis datasets such as population flags and treatment variables.", "preferredTerm": "CDISC Integrated Subject Level Dataset", "synonyms": ["IADSL"]}, {"conceptId": "C103374", "submissionValue": "INTERVENTIONS", "definition": "This SDTM class captures investigational, therapeutic and other treatments that are administered to the subject (with some actual or expected physiological effect) either as specified by the study protocol (e.g., exposure to study drug), coincident with the study assessment period (e.g., concomitant medications), or self-administered by the subject (such as use of alcohol, tobacco, or caffeine).", "preferredTerm": "CDISC Interventions Class"}, {"conceptId": "C123454", "submissionValue": "OCCURRENCE DATA STRUCTURE", "definition": "The Occurrence Data Structure (OCCDS) is the ADaM data structure for occurrence analysis. Occurrence analysis is the counting of subjects with a record or term, and often includes a structured hierarchy of dictionary coding categories.", "preferredTerm": "CDISC Occurrence Data Structure", "synonyms": ["OCCDS"]}, {"conceptId": "C103376", "submissionValue": "RELATIONSHIP", "definition": "This SDTM class provides a means to link related records between datasets. It includes the RELREC and SUPPQUAL datasets.", "preferredTerm": "CDISC Relationship Class"}, {"conceptId": "C103377", "submissionValue": "SPECIAL PURPOSE", "definition": "This SDTM class contains a set of domains which do not conform to the Findings, Events or Interventions observation classes. The domains included are DM, CO, SE and SV.", "preferredTerm": "CDISC Special Purpose Class", "synonyms": ["SPECIAL-PURPOSE"]}, {"conceptId": "C147271", "submissionValue": "STUDY REFERENCE", "definition": "This special purpose SDTM class contains further descriptions of study-specific identifiers that will be used in subject based domains.", "preferredTerm": "CDISC Study Reference Class"}, {"conceptId": "C103378", "submissionValue": "SUBJECT LEVEL ANALYSIS DATASET", "definition": "The Subject-Level Analysis Dataset (ADSL) is a one-record-per-subject dataset which contains variables that describe subject demographic characteristics and group the subjects for analysis. ADSL is the primary source for subject-level variables included in other analysis datasets such as population flags and treatment variables.", "preferredTerm": "CDISC Subject Level Analysis Dataset", "synonyms": ["ADSL"]}, {"conceptId": "C103379", "submissionValue": "TRIAL DESIGN", "definition": "This SDTM class describes the plan for the procedures to be followed in a clinical trial, including planned and actual timing of events, control group, method of allocating treatments, blinding methods, assignment of epochs that subjects pass through in the course of a trial.", "preferredTerm": "CDISC Trial Design Class"}]}]}