{"_links": {"self": {"href": "/mdr/ct/packages/protocolct-2017-03-31", "title": "PROTOCOL Controlled Terminology Package 29 Effective 2017-03-31", "type": "Terminology"}}, "codelists": [{"conceptId": "C132308", "definition": "A terminology value set relevant to the attributes of the physical address entity.", "name": "Physical Address Attribute Terminology", "preferredTerm": "CDISC Protocol Entities Physical Address Attribute Terminology", "submissionValue": "Physical Address Attribute Terminology", "synonyms": ["Physical Address Attribute Terminology"], "terms": [{"conceptId": "C25160", "definition": "A relatively large and/or densely populated area of human habitation with administrative or legal status that may be specified as a component of a postal address.", "preferredTerm": "City", "submissionValue": "City"}, {"conceptId": "C25464", "definition": "A sovereign nation occupying a distinct territory and ruled by an autonomous government.", "preferredTerm": "Country", "submissionValue": "Country"}, {"conceptId": "C87189", "definition": "A distinct geographic area in the immediate vicinity of a particular place, such as a city, neighborhood or district.", "preferredTerm": "Locality", "submissionValue": "Geographic Locality"}, {"conceptId": "C16632", "definition": "Any demarcated area of the Earth; may be determined by both natural and human boundaries, such as a state or province.", "preferredTerm": "Geographic Area", "submissionValue": "Geographic Region"}, {"conceptId": "C25621", "definition": "An alphanumeric code assigned to a mail delivery area.", "preferredTerm": "Postal Code", "submissionValue": "Postal Code"}, {"conceptId": "C25632", "definition": "A sub-division of a country created by the central government for administrative purposes. Provinces are usually, but not always, less autonomous than states, and must obey the laws of the central government.", "preferredTerm": "Province", "submissionValue": "Province"}, {"conceptId": "C87194", "definition": "A sub-division of a country that forms part of a federal union. States are usually, but not always, more autonomous than provinces and may have different laws from the central government.", "preferredTerm": "State", "submissionValue": "State"}, {"conceptId": "C25690", "definition": "The street name and building number where an entity is located.", "preferredTerm": "Street Address", "submissionValue": "Street Address"}]}, {"conceptId": "C132310", "definition": "A terminology value set relevant to the entities within a protocol.", "name": "Protocol Entity Terminology", "preferredTerm": "CDISC Protocol Entities Terminology", "submissionValue": "Protocol Entity Terminology", "synonyms": ["Protocol Entity Terminology"], "terms": [{"conceptId": "C25407", "definition": "A standardized representation of the location of a person, business, building, or organization. (NCI)", "preferredTerm": "Address", "submissionValue": "Physical Address"}, {"conceptId": "C70817", "definition": "The formal plan of an experiment or research activity, including the objective, rationale, design, materials and methods for the conduct of the study, intervention description, and method of data analysis.", "preferredTerm": "Study Protocol", "submissionValue": "Study Protocol"}]}, {"conceptId": "C132309", "definition": "A terminology value set relevant to the attributes of the study protocol entity.", "name": "Study Protocol Attribute Terminology", "preferredTerm": "CDISC Protocol Entities Study Protocol Attribute Terminology", "submissionValue": "Study Protocol Attribute Terminology", "synonyms": ["Study Protocol Attribute Terminology"], "terms": [{"conceptId": "C132344", "definition": "A unique code assigned by an affiliated governing body or other organization that identifies a specific protocol (e.g., grant number, national number).", "preferredTerm": "Alternate Protocol Identifier", "submissionValue": "Alternate Protocol Identifier"}, {"conceptId": "C132345", "definition": "The short descriptive name for the protocol.", "preferredTerm": "Brief Protocol Title", "submissionValue": "Brief Protocol Title", "synonyms": ["Abbreviated Protocol Title"]}, {"conceptId": "C132346", "definition": "The formal descriptive name for the protocol.", "preferredTerm": "Official Protocol Title", "submissionValue": "Official Protocol Title"}, {"conceptId": "C132347", "definition": "A written description of a change(s) to, or formal clarification of, a protocol. (ICH E6)", "preferredTerm": "Protocol Amendment", "submissionValue": "Protocol Amendment"}, {"conceptId": "C51853", "definition": "A person who is the writer of a structured research study protocol.", "preferredTerm": "Protocol Author", "submissionValue": "Protocol Author"}, {"conceptId": "C115628", "definition": "A scientific summary of the key points of the protocol.", "preferredTerm": "Clinical Trial Protocol Synopsis", "submissionValue": "Protocol Synopsis", "synonyms": ["Protocol Scientific Summary"]}, {"conceptId": "C94105", "definition": "The descriptive name of the protocol that is intended for the lay public, written in easily understood language.", "preferredTerm": "Study Protocol Document Version Public Title", "submissionValue": "Public Protocol Title"}, {"conceptId": "C132348", "definition": "A unique code assigned by a clinical trial registry that identifies a specific protocol.", "preferredTerm": "Registry Protocol Identifier", "submissionValue": "Registry Protocol Identifier"}, {"conceptId": "C132349", "definition": "A standardized representation of planned clinical trial activities including interventions (e.g., administering drug, surgery) and study administrative activities (e.g., obtaining informed consent, distributing clinical trial material and diaries, randomization) as well as assessments. (CDISC Glossary)", "preferredTerm": "Schedule of Activities", "submissionValue": "Schedule of Activities", "synonyms": ["Schedule of Events", "SoA"]}, {"conceptId": "C132350", "definition": "A more extensive descriptive name of the protocol that is intended for medical professionals, written using medical and scientific language.", "preferredTerm": "Scientific Protocol Title", "submissionValue": "Scientific Protocol Title"}, {"conceptId": "C132351", "definition": "A unique code assigned by the sponsor that identifies a specific protocol.", "preferredTerm": "Sponsor Protocol Identifier", "submissionValue": "Sponsor Protocol Identifier", "synonyms": ["Sponsor Protocol Code", "Sponsor Protocol Number"]}, {"conceptId": "C94108", "definition": "A word or words formed from the beginning letters or a combination of syllables and letters of a compound term, which identifies a clinical study.", "preferredTerm": "Study Protocol Version Acronym", "submissionValue": "Study Acronym", "synonyms": ["Trial Acronym"]}, {"conceptId": "C93490", "definition": "A plan at a particular point in time for a formal investigation to assess the utility, impact, pharmacological, physiological, and/or psychological effects of a particular treatment, procedure, drug, device, biologic, food product, cosmetic, care plan, or subject characteristic. (BRIDG)", "preferredTerm": "Study Protocol Version", "submissionValue": "Study Protocol Version"}, {"conceptId": "C132352", "definition": "The date on which a version of the protocol was finalized or approved by the sponsor.", "preferredTerm": "Protocol Approval Date", "submissionValue": "Study Protocol Version Approval Date"}]}], "description": "CDISC Controlled Terminology for PROTOCOL is the set of CDISC-developed or CDISC-adopted standard expressions (values) used with data items within CDISC-defined PROTOCOL datasets.", "effectiveDate": "2017-03-31", "label": "PROTOCOL Controlled Terminology Package 29 Effective 2017-03-31", "name": "PROTOCOL CT 2017-03-31", "registrationStatus": "Final", "source": "PROTOCOL Controlled Terminology developed by the CDISC Terminology Team in collaboration with the National Cancer Institute's Enterprise Vocabulary Services (EVS)", "version": "2017-03-31"}
