{"_links": {"priorVersion": {"href": "/mdr/ct/packages/sendct-2016-03-25", "title": "SEND Controlled Terminology Package 25 Effective 2016-03-25", "type": "Terminology"}, "self": {"href": "/mdr/ct/packages/sendct-2016-06-24", "title": "SEND Controlled Terminology Package 26 Effective 2016-06-24", "type": "Terminology"}}, "codelists": [{"conceptId": "C66781", "definition": "Those units of time that are routinely used to express the age of a subject.", "extensible": "false", "name": "Age Unit", "preferredTerm": "CDISC SDTM Age Unit Terminology", "submissionValue": "AGEU", "synonyms": ["Age Unit"], "terms": [{"conceptId": "C25301", "definition": "The time for Earth to make a complete rotation on its axis; ordinarily divided into twenty-four hours. This also refers to a specific day. (NCI)", "preferredTerm": "Day", "submissionValue": "DAYS", "synonyms": ["Day"]}, {"conceptId": "C25529", "definition": "A unit measure of time equal to 3,600 seconds or 60 minutes. It is approximately 1/24 of a median day. (NCI)", "preferredTerm": "Hour", "submissionValue": "HOURS", "synonyms": ["Hour", "hr"]}, {"conceptId": "C29846", "definition": "One of the 12 divisions of a year as determined by a calendar. It corresponds to the unit of time of approximately to one cycle of the moon's phases, about 30 days or 4 weeks. (NCI)", "preferredTerm": "Month", "submissionValue": "MONTHS", "synonyms": ["Month"]}, {"conceptId": "C29844", "definition": "Any period of seven consecutive days. (NCI)", "preferredTerm": "Week", "submissionValue": "WEEKS", "synonyms": ["Week"]}, {"conceptId": "C29848", "definition": "The period of time that it takes for Earth to make a complete revolution around the sun, approximately 365 days; a specific one year period. (NCI)", "preferredTerm": "Year", "submissionValue": "YEARS", "synonyms": ["Year"]}]}, {"conceptId": "C74456", "definition": "Terminology codelist used for anatomical location within CDISC.", "extensible": "true", "name": "Anatomical Location", "preferredTerm": "CDISC SDTM Anatomical Location Terminology", "submissionValue": "LOC", "synonyms": ["Anatomical Location"], "terms": [{"conceptId": "C116163", "definition": "The spinous process of the 5th lumbar vertebra.", "preferredTerm": "Fifth Lumbar Spinous Process", "submissionValue": "5TH LUMBAR SPINOUS PROCESS"}, {"conceptId": "C32038", "definition": "The portion of the descending aorta that lies within the abdomen, beginning below the diaphragm and ending at its division into the right and left common iliac arteries. (NCI)", "preferredTerm": "Abdominal Aorta", "submissionValue": "ABDOMINAL AORTA"}, {"conceptId": "C12664", "definition": "The portion of the body that lies between the thorax and the pelvis. (NCI)", "preferredTerm": "Abdomen", "submissionValue": "ABDOMINAL CAVITY", "synonyms": ["Abdomen", "Abdominal Cavity"]}, {"conceptId": "C12360", "definition": "Any lymph node within the abdomen.", "preferredTerm": "Intra-Abdominal Lymph Node", "submissionValue": "ABDOMINAL LYMPH NODE"}, {"conceptId": "C52758", "definition": "The skin or integument surrounding the abdomen. (NCI)", "preferredTerm": "Abdominal Skin", "submissionValue": "ABDOMINAL SKIN", "synonyms": ["Abdominal Skin"]}, {"conceptId": "C77608", "definition": "The tissues that surround the organs that are present within the abdominal cavity. The abdominal wall tissue is composed of layers of fat, parietal peritoneum, fascia, and muscles. (NCI)", "preferredTerm": "Abdominal Wall", "submissionValue": "ABDOMINAL WALL"}, {"conceptId": "C12665", "definition": "The sixth cranial nerve.", "preferredTerm": "Abducens Nerve", "submissionValue": "ABDUCENS NERVE"}, {"conceptId": "C116183", "definition": "An additional renal vessel originating from the aorta and entering the kidney at the proximal or distal end of the organ. Accessory renal arteries are found in 26-30% of humans.", "preferredTerm": "Accessory Renal Artery", "submissionValue": "ACCESSORY RENAL ARTERY"}, {"conceptId": "C32042", "definition": "Two cup shaped areas, one each on the lateral side of the lower pelvis that house the head of the femur to form the ball and socket joint of the hip. (NCI)", "preferredTerm": "Acetabulum", "submissionValue": "ACETABULUM", "synonyms": ["Acetabulum"]}, {"conceptId": "C32043", "definition": "The tendon that connects the heel bone to the calf muscles at the back of the lower leg. (NCI)", "preferredTerm": "Achilles Tendon", "submissionValue": "ACHILLES TENDON", "synonyms": ["Calcaneal Tendon"]}, {"conceptId": "C32047", "definition": "The junction of the upper distal end of the scapula to the distal edge of the collarbone, also known as the acromion and the clavicle. (NCI)", "preferredTerm": "Acromioclavicular Joint", "submissionValue": "ACROMIOCLAVICULAR JOINT", "synonyms": ["Acromioclavicular Joint"]}, {"conceptId": "C32048", "definition": "The upper distal process of the scapula. (NCI)", "preferredTerm": "Acromion", "submissionValue": "ACROMION", "synonyms": ["Acromion"]}, {"conceptId": "C102285", "definition": "The arteries that arise at the junction of the proximal and mid-right coronary artery conduit segments.", "preferredTerm": "Acute Marginal Artery", "submissionValue": "ACUTE MARGINAL ARTERY", "synonyms": ["ACUTE MARGINAL ARTERY SEGMENT(S)", "AMARG"]}, {"conceptId": "C12666", "definition": "Suprarenal gland. A flattened, roughly triangular body resting upon the upper end of each kidney; it is one of the ductless glands furnishing internal secretions (epinephrine and norepinephrine from the medulla and steroid hormones from the cortex). (NCI)", "preferredTerm": "Adrenal Gland", "submissionValue": "ADRENAL GLAND", "synonyms": ["Adrenal Gland"]}, {"conceptId": "C12440", "definition": "An almond-shaped group of basal nuclei anterior to the inferior horn of the lateral ventricle of the brain, within the temporal lobe. The amygdala is part of the limbic system. (MESH)", "preferredTerm": "Amygdala", "submissionValue": "AMYGDALA", "synonyms": ["Amygdaloid Nucleus"]}, {"conceptId": "C15609", "definition": "A natural or surgically-induced connection between tubular structures in the body. (NCI)", "preferredTerm": "Anastomosis", "submissionValue": "ANASTOMOSIS", "synonyms": ["Anastomosis"]}, {"conceptId": "C32078", "definition": "A gliding joint between the distal ends of the tibia and fibula and the proximal end of the talus. (NCI)", "preferredTerm": "Ankle Joint", "submissionValue": "ANKLE JOINT", "synonyms": ["Ankle", "Ankle Joint"]}, {"conceptId": "C117868", "definition": "A rectangular socket or bony arch that connects the ends of the tibia and fibula to the talus.", "preferredTerm": "Ankle Mortise", "submissionValue": "ANKLE MORTISE", "synonyms": ["Talar Mortise"]}, {"conceptId": "C12825", "definition": "An artery of the lower extremity that supplies blood to the anterior part of the leg and the foot.", "preferredTerm": "Anterior Tibial Artery", "submissionValue": "ANTERIOR TIBIAL ARTERY"}, {"conceptId": "C12259", "definition": "The initial part of the pyloric canal of the stomach. This site contains endocrine cells that produce gastrin and somatostatin. (NCI)", "preferredTerm": "Antrum Pylori", "submissionValue": "ANTRUM PYLORI", "synonyms": ["Antrum Pylori"]}, {"conceptId": "C43362", "definition": "The lower opening of the digestive tract, lying in the cleft between the buttocks, through which fecal matter is extruded. (NCI)", "preferredTerm": "Anus", "submissionValue": "ANUS", "synonyms": ["Anus"]}, {"conceptId": "C12669", "definition": "The major arterial trunk that carries oxygenated blood from the left ventricle into the ascending aorta behind the heart, the aortic arch, through the thorax as the descending aorta and through the abdomen as the abdominal aorta; it bifurcates into the left and right common iliac arteries. (NCI)", "preferredTerm": "Aorta", "submissionValue": "AORTA", "synonyms": ["Aorta"]}, {"conceptId": "C32123", "definition": "The curved segment of the aorta between the ascending and the descending segments.", "preferredTerm": "Aortic Arch", "submissionValue": "AORTIC ARCH", "synonyms": ["Aortic Arch"]}, {"conceptId": "C12670", "definition": "A valve that is located between and controls the flow of blood from the left ventricle of the heart and the aorta. (NCI)", "preferredTerm": "Aortic Valve", "submissionValue": "AORTIC VALVE"}, {"conceptId": "C127638", "definition": "The cusp of the aortic valve that overlies the left coronary ostium.", "preferredTerm": "Left Coronary Cusp of the Aortic Valve", "submissionValue": "AORTIC VALVE, LEFT CORONARY CUSP", "synonyms": ["Aortic Valve, Left Semilunar Cusp"]}, {"conceptId": "C127639", "definition": "The cusp of the aortic valve that is positioned posteriorly relative to the left and right aortic cusps.", "preferredTerm": "Non-Coronary Cusp of the Aortic Valve", "submissionValue": "AORTIC VALVE, NON-CORONARY CUSP", "synonyms": ["Aortic Valve, Posterior Semilunar Cusp"]}, {"conceptId": "C127640", "definition": "The cusp of the aortic valve that overlies the right coronary ostium.", "preferredTerm": "Right Coronary Cusp of the Aortic Valve", "submissionValue": "AORTIC VALVE, RIGHT CORONARY CUSP", "synonyms": ["Aortic Valve, Right Semilunar Cusp"]}, {"conceptId": "C116166", "definition": "The segment of the blood vessels that includes the iliac artery and its origin from the aorta.", "preferredTerm": "Aortoiliac Artery Segment", "submissionValue": "AORTO-ILIAC PERIPHERAL ARTERY"}, {"conceptId": "C116165", "definition": "A lymph node located in the aortopulmonary window.", "preferredTerm": "Aortopulmonary Window Lymph Node", "submissionValue": "AORTOPULMONARY WINDOW LYMPH NODE"}, {"conceptId": "C83470", "definition": "The distal end of the appendix. (NCI)", "preferredTerm": "Appendiceal Tip", "submissionValue": "APPENDICEAL TIP"}, {"conceptId": "C49477", "definition": "The part of the skeleton that includes the bones of the upper and lower limbs, including the shoulder and pelvic girdles", "preferredTerm": "Appendicular Skeleton", "submissionValue": "APPENDICULAR SKELETON"}, {"conceptId": "C12380", "definition": "Small tissue projection existing as a cecal diverticulum with a questionable history of vestigial versus specialized organ. (NCI)", "preferredTerm": "Appendix", "submissionValue": "APPENDIX", "synonyms": ["Appendix"]}, {"conceptId": "C32141", "definition": "The portion of the upper extremity between the shoulder and the elbow. For clinical purposes this term is also used to refer to the whole superior limb. (NCI)", "preferredTerm": "Arm", "submissionValue": "ARM", "synonyms": ["Arm"]}, {"conceptId": "C52754", "definition": "The skin or integument covering the arm. (NCI)", "preferredTerm": "Arm Skin", "submissionValue": "ARM SKIN", "synonyms": ["Arm Skin"]}, {"conceptId": "C12372", "definition": "A blood vessel that carries blood away from the heart. (NCI)", "preferredTerm": "Artery", "submissionValue": "ARTERY", "synonyms": ["Artery"]}, {"conceptId": "C12774", "definition": "Either one of two arteries arising from the pulmonary trunk that carry deoxygenated blood to the lungs.", "preferredTerm": "Pulmonary Artery", "submissionValue": "ARTERY, PULMONARY"}, {"conceptId": "C32150", "definition": "The portion of the aorta that emerges from the left ventricle and precedes the aortic arch.", "preferredTerm": "Ascending Aorta", "submissionValue": "ASCENDING AORTA"}, {"conceptId": "C127641", "definition": "The portion of the ascending aorta between the aortic annulus and the sinotubular junction.", "preferredTerm": "Aortic Root", "submissionValue": "ASCENDING AORTA, AORTIC ROOT"}, {"conceptId": "C127642", "definition": "The terminus of the aortic root; the point at which the aorta attains a tubular configuration.", "preferredTerm": "Sinotubular Junction", "submissionValue": "ASCENDING AORTA, SINOTUBULAR JUNCTION"}, {"conceptId": "C33557", "definition": "Any one of the naturally occurring sinuses of the aortic root distal to the semilunar valve.", "preferredTerm": "Sinus of Valsalva", "submissionValue": "ASCENDING AORTA, SINUS OF VALSALVA"}, {"conceptId": "C32172", "definition": "The part of the skeleton that includes the skull and spinal column and sternum and ribs. (NCI)", "preferredTerm": "Axial Skeleton", "submissionValue": "AXIAL SKELETON"}, {"conceptId": "C12674", "definition": "The underside concavity where the arm and the shoulder are joined. (NCI)", "preferredTerm": "Axilla", "submissionValue": "AXILLA", "synonyms": ["Axilla"]}, {"conceptId": "C32169", "definition": "An artery that originates from the subclavian artery at the lateral margin of the first rib. It supplies the brachial artery.", "preferredTerm": "Axillary Artery", "submissionValue": "AXILLARY ARTERY"}, {"conceptId": "C12904", "definition": "One of approximately 20-30 lymph nodes in chain formation that traverse the concavity of the underarm to the clavicle. (NCI)", "preferredTerm": "Axillary Lymph Node", "submissionValue": "AXILLARY LYMPH NODE", "synonyms": ["Axillary Lymph Node"]}, {"conceptId": "C123461", "definition": "Axillary lymph nodes located inferolateral to pectoralis minor.", "preferredTerm": "Axillary Lymph Node Level I", "submissionValue": "AXILLARY LYMPH NODE LEVEL I"}, {"conceptId": "C123462", "definition": "Axillary lymph nodes located posterior to pectoralis minor.", "preferredTerm": "Axillary Lymph Node Level II", "submissionValue": "AXILLARY LYMPH NODE LEVEL II"}, {"conceptId": "C123463", "definition": "Axillary lymph nodes located superomedial to pectoralis minor.", "preferredTerm": "Axillary Lymph Node Level III", "submissionValue": "AXILLARY LYMPH NODE LEVEL III"}, {"conceptId": "C32171", "definition": "A large blood vessel which returns blood to the heart from the lateral thorax, axilla and upper limb. Each side of the body contains one axillary vein.", "preferredTerm": "Axillary Vein", "submissionValue": "AXILLARY VEIN"}, {"conceptId": "C13062", "definition": "The dorsal area between the base of the neck and the sacrum. (NCI)", "preferredTerm": "Back", "submissionValue": "BACK", "synonyms": ["Back"]}, {"conceptId": "C12447", "definition": "Clusters of neurons comprising the globus pallidus, putamen, caudate, nucleus accumbens, substantia nigra and subthalamic nucleus. They are involved with high level aspects of inhibitory motor activity in coordination with the excitation commands issued from the cerebellum. (NCI)", "preferredTerm": "Basal Ganglia", "submissionValue": "BASAL GANGLIA", "synonyms": ["Basal Ganglia"]}, {"conceptId": "C32197", "definition": "One of the moderately large superficial veins of the forearm that transports blood from the hand and the medial aspect of the forearm to the axillary vein. (NCI)", "preferredTerm": "Basilic Vein", "submissionValue": "BASILIC VEIN", "synonyms": ["Basilic Vein"]}, {"conceptId": "C32200", "definition": "A muscle in the upper limb. Its action involves the rotation of the limb and the flexion of the humeralradial joint.", "preferredTerm": "Biceps", "submissionValue": "BICEPS BRACHII MUSCLE", "synonyms": ["Biceps"]}, {"conceptId": "C53147", "definition": "A muscle in the back of the thigh. Its action involves the knee flexion and hip extension. (NCI)", "preferredTerm": "Biceps Femoris", "submissionValue": "BICEPS FEMORIS MUSCLE"}, {"conceptId": "C12376", "definition": "Any of the ducts conveying bile between the liver and the intestine, including hepatic, cystic, and common bile duct.", "preferredTerm": "Bile Duct", "submissionValue": "BILE DUCT"}, {"conceptId": "C12678", "definition": "The duct system that transports bile from its origination by hepatocytes in the liver to the small intestine. It is comprised of the common bile duct that connects the liver and gall bladder to the small intestine and the cystic duct that connects the gall bladder to the common bile duct. (NCI)", "preferredTerm": "Biliary Tract", "submissionValue": "BILIARY TRACT", "synonyms": ["Biliary Tract"]}, {"conceptId": "C12414", "definition": "The distensible sac-like organ that functions as a reservoir of urine, collecting from the kidneys and eliminating via the urethra. (NCI)", "preferredTerm": "Bladder", "submissionValue": "BLADDER", "synonyms": ["Bladder"]}, {"conceptId": "C48941", "definition": "The tissue layers that form the urinary bladder. They include the mucosa, submucosa, smooth muscle, and serosa.", "preferredTerm": "Bladder Wall", "submissionValue": "BLADDER WALL"}, {"conceptId": "C12332", "definition": "The upper, convex surface of the bladder. (NCI)", "preferredTerm": "Dome of the Bladder", "submissionValue": "BLADDER, DOME", "synonyms": ["Dome of the Bladder"]}, {"conceptId": "C48939", "definition": "The portion of the bladder that is formed by the posterior wall and is located opposite to the bladder opening. (NCI)", "preferredTerm": "Bladder Fundus", "submissionValue": "BLADDER, FUNDUS", "synonyms": ["Fundus of the Bladder"]}, {"conceptId": "C12336", "definition": "The inferior portion of the urinary bladder which is formed as the walls of the bladder converge and become contiguous with the proximal urethra. (NCI)", "preferredTerm": "Bladder Neck", "submissionValue": "BLADDER, NECK", "synonyms": ["Neck of the Bladder"]}, {"conceptId": "C12331", "definition": "The triangular area in the bladder mucosa that is formed by the two ureteral orifices and the urethral orifice. (NCI)", "preferredTerm": "Bladder Trigone", "submissionValue": "BLADDER, TRIGONE", "synonyms": ["Trigone of the Bladder"]}, {"conceptId": "C12434", "definition": "A liquid tissue with the primary function of transporting oxygen and carbon dioxide. It supplies the tissues with nutrients, removes waste products, and contains various components of the immune system defending the body against infection.", "preferredTerm": "Blood", "submissionValue": "BLOOD", "synonyms": ["Peripheral Blood", "Whole Blood"]}, {"conceptId": "C12679", "definition": "A tubular structure through which the blood circulates in the body. Blood vessels constitute a network composed of arteries, arterioles, capillaries, venules, and veins. (NCI)", "preferredTerm": "Blood Vessel", "submissionValue": "BLOOD VESSEL", "synonyms": ["Blood Vessel"]}, {"conceptId": "C13041", "definition": "The entire physical structure of an organism. It is composed of anatomic systems, regions, cavities, and spaces. (NCI)", "preferredTerm": "Body", "submissionValue": "BODY", "synonyms": ["Body"]}, {"conceptId": "C12258", "definition": "The main section of the digestive tube that connects the esophagus to the small intestine. The body proper excludes the upper and lower sections of the fundus and pyloric portion respectively. (NCI)", "preferredTerm": "Body of Stomach", "submissionValue": "BODY OF STOMACH", "synonyms": ["Body of Stomach"]}, {"conceptId": "C12366", "definition": "Calcified connective tissue that forms the skeletal components of the body. (NCI)", "preferredTerm": "Bone", "submissionValue": "BONE", "synonyms": ["Bone"]}, {"conceptId": "C12431", "definition": "The tissue occupying the spaces of bone. It consists of blood vessel sinuses and a network of hematopoietic cells which give rise to the red cells, white cells, and megakaryocytes. (NCI)", "preferredTerm": "Bone Marrow", "submissionValue": "BONE MARROW", "synonyms": ["Bone Marrow"]}, {"conceptId": "C12681", "definition": "An artery originating at the axillary artery and branching into the radial and ulnar arteries. (NCI)", "preferredTerm": "Brachial Artery", "submissionValue": "BRACHIAL ARTERY", "synonyms": ["Brachial Artery"]}, {"conceptId": "C92221", "definition": "An axillary lymph node along the brachial vein. (NCI)", "preferredTerm": "Brachial Lymph Node", "submissionValue": "BRACHIAL LYMPH NODE"}, {"conceptId": "C12682", "definition": "A nerve network originating from C5 to T1 that supplies cutaneous and muscular innervation to the arm and hand. (NCI)", "preferredTerm": "Brachial Plexus", "submissionValue": "BRACHIAL PLEXUS", "synonyms": ["Brachial Plexus"]}, {"conceptId": "C12439", "definition": "An organ composed of grey and white matter that is the center for intelligence and reasoning. It is protected by the bony cranium.", "preferredTerm": "Brain", "submissionValue": "BRAIN", "synonyms": ["Nervous System, Brain"]}, {"conceptId": "C12441", "definition": "The part of the brain that connects the cerebral hemispheres with the spinal cord. It consists of the mesencephalon, pons, and medulla oblongata. (NCI)", "preferredTerm": "Brain Stem", "submissionValue": "BRAIN STEM", "synonyms": ["Brain Stem"]}, {"conceptId": "C12356", "definition": "The four connected cavities (hollow spaces) centrally located within the brain that connect posteriorly with the central canal of the spinal cord. (NCI)", "preferredTerm": "Brain Ventricle", "submissionValue": "BRAIN VENTRICLE", "synonyms": ["Brain Ventricle"]}, {"conceptId": "C12971", "definition": "One of two hemispheric projections of variable size situated in the subcutaneous layer over the pectoralis major muscle on either side of the chest. (NCI)", "preferredTerm": "Breast", "submissionValue": "BREAST", "synonyms": ["Breast"]}, {"conceptId": "C12683", "definition": "Tubular structure in continuation with the trachea, serving as air passage. It terminates in the lung (terminal bronchiole). (NCI)", "preferredTerm": "Bronchus", "submissionValue": "BRONCHUS", "synonyms": ["Bronchi", "Bronchus"]}, {"conceptId": "C89806", "definition": "Either of the fleshy mounds in the rear pelvic area of the human body formed by the gluteal muscles.", "preferredTerm": "Buttock", "submissionValue": "BUTTOCK", "synonyms": ["Buttock"]}, {"conceptId": "C32239", "definition": "The first of the seven cervical vertebrae. (NCI)", "preferredTerm": "C1 Vertebra", "submissionValue": "C1 VERTEBRA", "synonyms": ["C1 Vertebra"]}, {"conceptId": "C32240", "definition": "The second of the seven cervical vertebrae. (NCI)", "preferredTerm": "C2 Vertebra", "submissionValue": "C2 VERTEBRA", "synonyms": ["C2 Vertebra"]}, {"conceptId": "C32241", "definition": "The third of the seven cervical vertebrae. (NCI)", "preferredTerm": "C3 Vertebra", "submissionValue": "C3 VERTEBRA", "synonyms": ["C3 Vertebra"]}, {"conceptId": "C32242", "definition": "The fourth of the seven cervical vertebrae. (NCI)", "preferredTerm": "C4 Vertebra", "submissionValue": "C4 VERTEBRA", "synonyms": ["C4 Vertebra"]}, {"conceptId": "C32243", "definition": "The fifth of the seven cervical vertebrae. (NCI)", "preferredTerm": "C5 Vertebra", "submissionValue": "C5 VERTEBRA", "synonyms": ["C5 Vertebra"]}, {"conceptId": "C32244", "definition": "The sixth of the seven cervical vertebrae. (NCI)", "preferredTerm": "C6 Vertebra", "submissionValue": "C6 VERTEBRA", "synonyms": ["C6 Vertebra"]}, {"conceptId": "C32245", "definition": "The seventh of the seven cervical vertebrae. (NCI)", "preferredTerm": "C7 Vertebra", "submissionValue": "C7 VERTEBRA", "synonyms": ["C7 Vertebra"]}, {"conceptId": "C32252", "definition": "A cerebral fissure that originates near the occipital lobe and terminates below the corpus callosum. (NCI)", "preferredTerm": "Calcarine Sulcus", "submissionValue": "CALCARINE SULCUS"}, {"conceptId": "C93027", "definition": "The posterior aspect of the lower extremity that extends from the knee to the foot. (NCI)", "preferredTerm": "Calf", "submissionValue": "CALF"}, {"conceptId": "C32258", "definition": "A single-cusped (pointed) and usually single-rooted tooth located between the incisors and premolars. (NCI)", "preferredTerm": "Canine Tooth", "submissionValue": "CANINE TOOTH", "synonyms": ["Canine Tooth"]}, {"conceptId": "C12856", "definition": "The largest of eight carpal bones, located in the center of the hand. (NCI)", "preferredTerm": "Capitate Bone", "submissionValue": "CAPITATE BONE", "synonyms": ["Capitate Bone"]}, {"conceptId": "C12687", "definition": "One of two arteries that supply oxygenated blood to the head and neck; the left common carotid branches from the aorta and the right common carotid from the innominate (brachiocephalic artery). (NCI)", "preferredTerm": "Carotid Artery", "submissionValue": "CAROTID ARTERY", "synonyms": ["Carotid Artery"]}, {"conceptId": "C12688", "definition": "Any of the small bones of the wrist joint, located between the radius and the ulna and the metacarpus. (NCI)", "preferredTerm": "Carpal Bone", "submissionValue": "CARPAL BONE"}, {"conceptId": "C103912", "definition": "A saddle-shaped synovial joint between the metacarpal of the thumb and the trapezium. (NCI)", "preferredTerm": "Carpometacarpal Joint 1", "submissionValue": "CARPOMETACARPAL JOINT 1", "synonyms": ["CMC1"]}, {"conceptId": "C103913", "definition": "A plane joint primarily between the second metacarpal and the trapezoid, which also connects with the trapezium and capitate. (NCI)", "preferredTerm": "Carpometacarpal Joint 2", "submissionValue": "CARPOMETACARPAL JOINT 2", "synonyms": ["CMC2"]}, {"conceptId": "C103914", "definition": "A plane joint between the third metacarpal and the capitate. (NCI)", "preferredTerm": "Carpometacarpal Joint 3", "submissionValue": "CARPOMETACARPAL JOINT 3", "synonyms": ["CMC3"]}, {"conceptId": "C103915", "definition": "A plane joint between the fourth metacarpal and the hamate. (NCI)", "preferredTerm": "Carpometacarpal Joint 4", "submissionValue": "CARPOMETACARPAL JOINT 4", "synonyms": ["CMC4"]}, {"conceptId": "C103916", "definition": "A plane joint between the fifth metacarpal and the pisiform. (NCI)", "preferredTerm": "Carpometacarpal Joint 5", "submissionValue": "CARPOMETACARPAL JOINT 5", "synonyms": ["CMC5"]}, {"conceptId": "C12451", "definition": "An elongated gray mass of the neostriatum located adjacent to the lateral ventricle of the brain. (MeSH)", "preferredTerm": "Caudate Nucleus", "submissionValue": "CAUDATE NUCLEUS"}, {"conceptId": "C12381", "definition": "A blind pouch-like commencement of the colon in the right lower quadrant of the abdomen at the end of the small intestine and the start of the large intestine. (OMD)", "preferredTerm": "Cecum", "submissionValue": "CECUM", "synonyms": ["Cecal", "Cecum"]}, {"conceptId": "C65166", "definition": "A lymph node at the base of the celiac artery. (NCI)", "preferredTerm": "Celiac Lymph Node", "submissionValue": "CELIAC LYMPH NODE", "synonyms": ["Celiac Axis Lymph Node", "Celiac Lymph Node"]}, {"conceptId": "C12438", "definition": "The part of the nervous system that consists of the brain, spinal cord, and meninges. (NCI)", "preferredTerm": "Central Nervous System", "submissionValue": "CENTRAL NERVOUS SYSTEM"}, {"conceptId": "C32286", "definition": "One of five superficial veins of the upper extremity, beginning at the radial aspect of the wrist area, wrapping around the forearm and emptying into the axillary vein. (NCI)", "preferredTerm": "Cephalic Vein", "submissionValue": "CEPHALIC VEIN", "synonyms": ["Cephalic Vein", "Vena Cephalica"]}, {"conceptId": "C12445", "definition": "The portion of the brain located at the base of the skull that is responsible for balance, equilibrium and movement. (NCI)", "preferredTerm": "Cerebellum", "submissionValue": "CEREBELLUM"}, {"conceptId": "C12443", "definition": "The outer layer of the cerebrum composed of neurons and unmyelinated nerve fibers. It is responsible for memory, attention, consciousness and other higher levels of mental function.", "preferredTerm": "Cerebral Cortex", "submissionValue": "CEREBRAL CORTEX", "synonyms": ["Cerebral Cortex"]}, {"conceptId": "C32955", "definition": "The left half of the cerebrum.", "preferredTerm": "Left Cerebral Hemisphere", "submissionValue": "CEREBRAL HEMISPHERE, LEFT"}, {"conceptId": "C33472", "definition": "The right half of the cerebrum.", "preferredTerm": "Right Cerebral Hemisphere", "submissionValue": "CEREBRAL HEMISPHERE, RIGHT"}, {"conceptId": "C98712", "definition": "The layer located below the cerebral cortex that includes the forebrain, midbrain and hindbrain. (NCI)", "preferredTerm": "Cerebral Subcortex", "submissionValue": "CEREBRAL SUBCORTEX", "synonyms": ["Cerebral Subcortex"]}, {"conceptId": "C12351", "definition": "One half of the cerebrum, the part of the brain that controls muscle functions and also controls speech, thought, emotions, reading, writing, and learning. The right hemisphere controls the muscles on the left side of the body, and the left hemisphere controls the muscles on the right side of the body. (NCI)", "preferredTerm": "Cerebral Hemisphere", "submissionValue": "CEREBRUM", "synonyms": ["Cerebral Hemisphere"]}, {"conceptId": "C32298", "definition": "Any of the lymph nodes located in the neck. (NCI)", "preferredTerm": "Cervical Lymph Node", "submissionValue": "CERVICAL LYMPH NODE", "synonyms": ["Cervical Lymph Node"]}, {"conceptId": "C12693", "definition": "Any one of the vertebrae situated between the skull and the thoracic vertebrae.", "preferredTerm": "Cervical Vertebra", "submissionValue": "CERVICAL VERTEBRA"}, {"conceptId": "C12311", "definition": "The lower part of the uterus occupying the region between the isthmus of the uterus and the vagina. It is divided into supravaginal and vaginal portions. (NCI)", "preferredTerm": "Cervix Uteri", "submissionValue": "CERVIX UTERI", "synonyms": ["Cervix Uteri", "Uterine Cervix"]}, {"conceptId": "C13070", "definition": "The fleshy part of the face bounded by the eyes, nose, ear, and jaw line. (NCI)", "preferredTerm": "Cheek", "submissionValue": "CHEEK"}, {"conceptId": "C25389", "definition": "The anterior side of the thorax from the neck to the abdomen. The shape of the chest is often regarded as potential insight into a disease process, as in the case of barrel chest and respiratory dysfunction. (NCI)", "preferredTerm": "Chest", "submissionValue": "CHEST", "synonyms": ["Chest"]}, {"conceptId": "C62484", "definition": "The total system of structures outside the lungs that move as a part of breathing; it includes all structures from the skin to the parietal pleura. (NCI)", "preferredTerm": "Chest Wall", "submissionValue": "CHEST WALL", "synonyms": ["Chest Wall"]}, {"conceptId": "C12344", "definition": "A blood vessel-containing membrane of the eye that lies between the retina and the sclera. (NCI)", "preferredTerm": "Choroid", "submissionValue": "CHOROID"}, {"conceptId": "C12694", "definition": "Blood vessels forming villous structures in the third, fourth, and lateral ventricles of the brain. (NCI)", "preferredTerm": "Choroid Plexus", "submissionValue": "CHOROID PLEXUS", "synonyms": ["Choroid Plexus"]}, {"conceptId": "C52713", "definition": "Part of the medial aspect of the cerebral cortex. (NCI)", "preferredTerm": "Cingulate Cortex", "submissionValue": "CINGULATE CORTEX"}, {"conceptId": "C102287", "definition": "The segment of the left circumflex artery that is distal to the third marginal branch, located in the atrioventricular groove.", "preferredTerm": "Circumflex Artery AV Groove Continuation Artery", "submissionValue": "CIRCUMFLEX ARTERY AV GROOVE CONTINUATION ARTERY", "synonyms": ["CIRC AV", "CIRCUMFLEX ARTERY AV GROOVE CONTINUATION ARTERY SEGMENT"]}, {"conceptId": "C102286", "definition": "The left circumflex coronary artery and all of its branches.", "preferredTerm": "Circumflex Artery and its Branches", "submissionValue": "CIRCUMFLEX, OBTUSE MARGINALS, LEFT POSTEROLETERAL AND LEFT POSTERIOR DESCENDING ARTERY BRANCHES"}, {"conceptId": "C12695", "definition": "The paired bone that is situated between the sternum and the shoulder.", "preferredTerm": "Clavicle", "submissionValue": "CLAVICLE"}, {"conceptId": "C12308", "definition": "The erectile tissue in the vulva. It is composed of the corpora cavernosa and the glans clitoris.", "preferredTerm": "Clitoris", "submissionValue": "CLITORIS"}, {"conceptId": "C32334", "definition": "Four vertebral segments positioned at the base of the spine that are fused. (NCI)", "preferredTerm": "Coccygeal Vertebra", "submissionValue": "COCCYGEAL VERTEBRA", "synonyms": ["Coccygeal Vertebra"]}, {"conceptId": "C12696", "definition": "A small bone located at the bottom of the spine. The coccyx is a result of 3-5 fused rudimentary vertebrae. (NCI)", "preferredTerm": "Coccyx", "submissionValue": "COCCYX", "synonyms": ["Coccyx"]}, {"conceptId": "C12382", "definition": "The part of the large intestine measured from the cecum to the rectum consisting of ascending, transverse, descending and sigmoid portions. The purpose of the colon is to remove water from digested food prior to excretion. (NCI)", "preferredTerm": "Colon", "submissionValue": "COLON", "synonyms": ["Colon"]}, {"conceptId": "C12265", "definition": "The first part of the colon (large intestine) that starts in the right lower quadrant of the abdomen and ends at the transverse colon in the right upper quadrant of the abdomen. (NCI)", "preferredTerm": "Ascending Colon", "submissionValue": "COLON, ASCENDING", "synonyms": ["Ascending Colon"]}, {"conceptId": "C12268", "definition": "The fourth portion of the large intestine (colon) that communicates with the transverse colon in the left-upper quadrant of the abdomen and the rectum below. (NCI)", "preferredTerm": "Descending Colon", "submissionValue": "COLON, DESCENDING", "synonyms": ["Descending Colon"]}, {"conceptId": "C33929", "definition": "The portion of the large intestine that includes the descending and sigmoid colon. (NCI)", "preferredTerm": "Left Colon", "submissionValue": "COLON, LEFT", "synonyms": ["Left Colon"]}, {"conceptId": "C103438", "definition": "A portion of the large intestine that includes the descending colon, sigmoid colon and rectum.", "preferredTerm": "Rectosigmoid Colon", "submissionValue": "COLON, RECTOSIGMOID"}, {"conceptId": "C12383", "definition": "The proximal segment of the large intestine that is located in the right side of the abdominal cavity. It includes the cecum (with the attached appendix) and the ascending colon. (NCI)", "preferredTerm": "Right Colon", "submissionValue": "COLON, RIGHT", "synonyms": ["Right Colon"]}, {"conceptId": "C12384", "definition": "The portion of the colon that connects to the descending colon above and the rectum below. (NCI)", "preferredTerm": "Sigmoid Colon", "submissionValue": "COLON, SIGMOID", "synonyms": ["Sigmoid Colon"]}, {"conceptId": "C12385", "definition": "The third division of the colon (large intestine). It communicates with the ascending colon in the upper right-hand quadrant of the abdomen and the descending colon in the upper left-hand quadrant. (NCI)", "preferredTerm": "Transverse Colon", "submissionValue": "COLON, TRANSVERSE", "synonyms": ["Transverse Colon"]}, {"conceptId": "C32354", "definition": "An artery arising from the external iliac artery at the inguinal ligament which bifurcates forming the deep and superficial femoral arteries.", "preferredTerm": "Common Femoral Artery", "submissionValue": "COMMON FEMORAL ARTERY"}, {"conceptId": "C32357", "definition": "An artery arising from the bifurcation of the abdominal aorta which then bifurcates forming the internal and external iliac arteries.", "preferredTerm": "Common Iliac Artery", "submissionValue": "COMMON ILIAC ARTERY"}, {"conceptId": "C103384", "definition": "A lymph node located adjacent to the common iliac artery. (NCI)", "preferredTerm": "Common Iliac Lymph Node", "submissionValue": "COMMON ILIAC LYMPH NODE"}, {"conceptId": "C12341", "definition": "A thin, transparent tissue divided into the palpebral conjunctiva (covering the inner side of the eye lid) and the bulbar conjunctiva (covering the eyeball). (NCI)", "preferredTerm": "Conjunctiva", "submissionValue": "CONJUNCTIVA", "synonyms": ["Conjunctiva"]}, {"conceptId": "C12342", "definition": "A dome-shaped, transparent, avascular tissue covering the front of the eye. It is composed of five layers: squamous epithelium, Bowman's membrane, stroma, Descemet's membrane, and endothelium. Refraction of light contributing to eye's focusing ability is its characteristic function. It contains unmyelinated nerve endings which are responsible for the high sensitivity of the tissue. (NCI)", "preferredTerm": "Cornea", "submissionValue": "CORNEA", "synonyms": ["Cornea"]}, {"conceptId": "C12843", "definition": "A principal artery that originates in the aorta. It supplies blood to the muscular tissue of the heart. (NCI)", "preferredTerm": "Coronary Artery", "submissionValue": "CORONARY ARTERY", "synonyms": ["Coronary Artery"]}, {"conceptId": "C32089", "definition": "A left coronary artery branch that descends on the anterior portion of the heart through the anterior interventricular groove. (NCI)", "preferredTerm": "Anterior Descending Coronary Artery", "submissionValue": "CORONARY ARTERY, ANTERIOR DESCENDING", "synonyms": ["Anterior Descending Coronary Artery", "Left Anterior Descending Coronary Artery"]}, {"conceptId": "C12872", "definition": "A coronary artery that arises from the aorta and bifurcates into the left anterior descending artery and the left circumflex artery. (NCI)", "preferredTerm": "Left Coronary Artery", "submissionValue": "CORONARY ARTERY, LEFT", "synonyms": ["LM", "Left Coronary Artery", "Left Main Coronary Artery", "Left Main Coronary Artery Segment"]}, {"conceptId": "C12875", "definition": "A coronary artery that originates above the right coronary cusp and supplies blood predominantly to the right side of the heart. (NCI)", "preferredTerm": "Right Coronary Artery", "submissionValue": "CORONARY ARTERY, RIGHT", "synonyms": ["Right Coronary Artery"]}, {"conceptId": "C32378", "definition": "The coronary vein that terminates in the right atrium and transports deoxygenated blood from the coronary circulation.", "preferredTerm": "Coronary Sinus", "submissionValue": "CORONARY SINUS"}, {"conceptId": "C12882", "definition": "A blood vessel in the heart which returns coronary blood to the right atrium.", "preferredTerm": "Coronary Vein", "submissionValue": "CORONARY VEIN"}, {"conceptId": "C12446", "definition": "A white matter structure within the cleft that separates the left and right cerebral hemispheres in the mammalian brain. It is composed of a wide, flat bundle of 200-250 million axonal projections. (NCI)", "preferredTerm": "Corpus Callosum", "submissionValue": "CORPUS CALLOSUM"}, {"conceptId": "C26465", "definition": "A group of cells that remain of the Graafian follicle following ovulation. This structure is composed of endocrine tissue and produces progesterone. This is needed to prepare the uterine lining for implantation by the fertilized egg. (NCI)", "preferredTerm": "Corpus Luteum", "submissionValue": "CORPUS LUTEUM", "synonyms": ["Corpus Luteum"]}, {"conceptId": "C12448", "definition": "The portion of the brain consisting of the neostriatum and globus pallidus.", "preferredTerm": "Corpus Striatum", "submissionValue": "CORPUS STRIATUM"}, {"conceptId": "C32391", "definition": "The cartilage positioned between the anterior end of the rib and the sternum. Its elasticity allows the ribcage to expand while breathing. (NCI)", "preferredTerm": "Costal Cartilage", "submissionValue": "COSTAL CARTILAGE", "synonyms": ["Costal Cartilage"]}, {"conceptId": "C102288", "definition": "The first hyaline cartilaginous joint between the ribs and costal cartilage.", "preferredTerm": "Costochondral Joint 1", "submissionValue": "COSTOCHONDRAL JOINT 1"}, {"conceptId": "C102289", "definition": "The seventh hyaline cartilaginous joint between the ribs and costal cartilage.", "preferredTerm": "Costochondral Joint 7", "submissionValue": "COSTOCHONDRAL JOINT 7"}, {"conceptId": "C77638", "definition": "The atrium that is formed by the bones of the skull, and contains the brain.", "preferredTerm": "Cranial Cavity", "submissionValue": "CRANIAL CAVITY"}, {"conceptId": "C12700", "definition": "Any of the 12 paired nerves that originate in the brain stem. (NCI)", "preferredTerm": "Cranial Nerve", "submissionValue": "CRANIAL NERVE"}, {"conceptId": "C32414", "definition": "A bone on the lateral side of the tarsus between the calcaneus and the fourth and fifth metatarsal bones. (NCI)", "preferredTerm": "Cuboid Bone", "submissionValue": "CUBOID BONE", "synonyms": ["Cuboid Bone"]}, {"conceptId": "C32446", "definition": "The muscle that creates the rounded contour of the shoulder which originates from the lateral third of the clavicle, the superior surface of the acromion process, and the posterior border of the spine of the scapula and inserts on the lateral side of the shaft of the humerus. (NCI)", "preferredTerm": "Deltoid", "submissionValue": "DELTOID MUSCLE"}, {"conceptId": "C12702", "definition": "Fibromuscular tissue that separates the thoracic from the abdominal cavity. It increases the volume of the thoracic cavity through contractions, thus facilitating respiration.", "preferredTerm": "Diaphragm", "submissionValue": "DIAPHRAGM"}, {"conceptId": "C102290", "definition": "The segment of the left circumflex artery that is between the second and third obtuse marginal branches.", "preferredTerm": "Distal Circumflex Artery", "submissionValue": "DISTAL CIRCUMFLEX ARTERY", "synonyms": ["DCIRC", "DISTAL CIRCUMFLEX ARTERY SEGMENT"]}, {"conceptId": "C102291", "definition": "A condyloid synovial joint within the second digit of the hand or foot connecting the middle and distal phalanges. (NCI)", "preferredTerm": "Distal Interphalangeal Joint 2", "submissionValue": "DISTAL INTERPHALANGEAL JOINT 2", "synonyms": ["DIP2"]}, {"conceptId": "C114198", "definition": "A ginglymoid (hinge) synovial joint within the second digit of the foot connecting the middle and distal phalanges. (NCI)", "preferredTerm": "Distal Interphalangeal Joint 2 of the Foot", "submissionValue": "DISTAL INTERPHALANGEAL JOINT 2 OF THE FOOT", "synonyms": ["DIP2 of the Foot"]}, {"conceptId": "C114188", "definition": "A ginglymoid (hinge) synovial joint within the second digit of the hand connecting the middle and distal phalanges. (NCI)", "preferredTerm": "Distal Interphalangeal Joint 2 of the Hand", "submissionValue": "DISTAL INTERPHALANGEAL JOINT 2 OF THE HAND", "synonyms": ["DIP2 of the Hand"]}, {"conceptId": "C102292", "definition": "A condyloid synovial joint within the third digit of the hand or foot connecting the middle and distal phalanges. (NCI)", "preferredTerm": "Distal Interphalangeal Joint 3", "submissionValue": "DISTAL INTERPHALANGEAL JOINT 3", "synonyms": ["DIP3"]}, {"conceptId": "C114199", "definition": "A ginglymoid (hinge) synovial joint within the third digit of the foot connecting the middle and distal phalanges. (NCI)", "preferredTerm": "Distal Interphalangeal Joint 3 of the Foot", "submissionValue": "DISTAL INTERPHALANGEAL JOINT 3 OF THE FOOT", "synonyms": ["DIP3 of the Foot"]}, {"conceptId": "C114189", "definition": "A ginglymoid (hinge) synovial joint within the third digit of the hand connecting the middle and distal phalanges. (NCI)", "preferredTerm": "Distal Interphalangeal Joint 3 of the Hand", "submissionValue": "DISTAL INTERPHALANGEAL JOINT 3 OF THE HAND", "synonyms": ["DIP3 of the Hand"]}, {"conceptId": "C102293", "definition": "A condyloid synovial joint within the fourth digit of the hand or foot connecting the middle and distal phalanges. (NCI)", "preferredTerm": "Distal Interphalangeal Joint 4", "submissionValue": "DISTAL INTERPHALANGEAL JOINT 4", "synonyms": ["DIP4"]}, {"conceptId": "C114275", "definition": "A ginglymoid (hinge) synovial joint within the fourth digit of the foot connecting the middle and distal phalanges. (NCI)", "preferredTerm": "Distal Interphalangeal Joint 4 of the Foot", "submissionValue": "DISTAL INTERPHALANGEAL JOINT 4 OF THE FOOT", "synonyms": ["DIP4 of the Foot"]}, {"conceptId": "C114273", "definition": "A ginglymoid (hinge) synovial joint within the fourth digit of the hand connecting the middle and distal phalanges. (NCI)", "preferredTerm": "Distal Interphalangeal Joint 4 of the Hand", "submissionValue": "DISTAL INTERPHALANGEAL JOINT 4 OF THE HAND", "synonyms": ["DIP4 of the Hand"]}, {"conceptId": "C102294", "definition": "A condyloid synovial joint within the fifth digit of the hand or foot connecting the middle and distal phalanges. (NCI)", "preferredTerm": "Distal Interphalangeal Joint 5", "submissionValue": "DISTAL INTERPHALANGEAL JOINT 5", "synonyms": ["DIP5"]}, {"conceptId": "C114276", "definition": "A ginglymoid (hinge) synovial joint within the fifth digit of the foot connecting the middle and distal phalanges. (NCI)", "preferredTerm": "Distal Interphalangeal Joint 5 of the Foot", "submissionValue": "DISTAL INTERPHALANGEAL JOINT 5 OF THE FOOT", "synonyms": ["DIP5 of the Foot"]}, {"conceptId": "C114274", "definition": "A ginglymoid (hinge) synovial joint within the fifth digit of the hand connecting the middle and distal phalanges. (NCI)", "preferredTerm": "Distal Interphalangeal Joint 5 of the Hand", "submissionValue": "DISTAL INTERPHALANGEAL JOINT 5 OF THE HAND", "synonyms": ["DIP5 of the Hand"]}, {"conceptId": "C102295", "definition": "The segment of the left anterior descending (LAD) artery that is distal to the third diagonal branch.", "preferredTerm": "Distal Left Anterior Descending Artery", "submissionValue": "DISTAL LAD ARTERY", "synonyms": ["DISTAL LAD ARTERY SEGMENT", "DLAD"]}, {"conceptId": "C102296", "definition": "The section of the right coronary artery distal to the origin of the acute marginal artery.", "preferredTerm": "Distal Right Coronary Artery Conduit", "submissionValue": "DISTAL RIGHT CORONARY ARTERY CONDUIT", "synonyms": ["DISTAL RIGHT CORONARY ARTERY CONDUIT SEGMENT", "DRCA"]}, {"conceptId": "C12934", "definition": "A brain nucleus located in the medulla oblongata. (NCI)", "preferredTerm": "Dorsal Motor Nucleus", "submissionValue": "DORSAL MOTOR NUCLEUS"}, {"conceptId": "C32478", "definition": "An artery of the dorsal surface of the foot, originating from the anterior tibial artery of the lower leg. The following arterial branches originate from the dorsalis pedis artery: the arcuate artery of the foot and deep plantar artery. (NCI)", "preferredTerm": "Dorsalis Pedis Artery", "submissionValue": "DORSALIS PEDIS ARTERY", "synonyms": ["Dorsalis Pedis Artery"]}, {"conceptId": "C12263", "definition": "A jointed tube 25-30 cm long that connects the stomach to the jejunum. (NCI)", "preferredTerm": "Duodenum", "submissionValue": "DUODENUM"}, {"conceptId": "C102627", "definition": "Venous channels within the dura mater of the brain which receives both blood from blood vessels within the brain as well as cerebrospinal fluid then drains into the internal jugular vein. Unlike other blood vessels, dural venous sinuses lack valves and other vessel associated layers.", "preferredTerm": "Dural Venous Sinus", "submissionValue": "DURAL VENOUS SINUS"}, {"conceptId": "C12394", "definition": "A sense organ needed for the detection of sound and for establishing balance. The outer ear consists of the auricle, the ear canal as well as the tympanic membrane. The middle ear is made up of an air-filled cavity behind the tympanic membrane that contains the ossicles (malleus, incus and stapes). The inner ear is made up of the cochlea needed for hearing and the vestibular apparatus required for balance. (NCI)", "preferredTerm": "Ear", "submissionValue": "EAR", "synonyms": ["Ear"]}, {"conceptId": "C12499", "definition": "The portion of the ear located within the temporal bone that is involved in both hearing and balance and includes the semicircular canals, vestibule, and cochlea. (from American Heritage Dictionary online)", "preferredTerm": "Inner Ear", "submissionValue": "EAR, INNER", "synonyms": ["Cochlea", "Internal Ear", "Labyrinth"]}, {"conceptId": "C12292", "definition": "The external part of the ear. (NCI)", "preferredTerm": "External Ear", "submissionValue": "EAR, OUTER", "synonyms": ["Auricle", "External Ear"]}, {"conceptId": "C32497", "definition": "A joint involving the humerus, radius and ulna bones.", "preferredTerm": "Elbow Joint", "submissionValue": "ELBOW JOINT", "synonyms": ["Elbow Joint"]}, {"conceptId": "C13004", "definition": "The layer of endothelial cells and connective tissue lining the chambers of the heart. (NCI)", "preferredTerm": "Endocardium", "submissionValue": "ENDOCARDIUM"}, {"conceptId": "C12309", "definition": "The portion of the cervix which is lined by single columnar epithelium (mucosa). (NCI)", "preferredTerm": "Endocervix", "submissionValue": "ENDOCERVIX"}, {"conceptId": "C32514", "definition": "A space inside the uterus lined by a layer of mucus membranes called the endometrium. (NCI)", "preferredTerm": "Endometrial Cavity", "submissionValue": "ENDOMETRIAL CAVITY", "synonyms": ["Endometrial Cavity"]}, {"conceptId": "C97338", "definition": "A brain region in the medial temporal lobe near the hippocampus. (NCI)", "preferredTerm": "Entorhinal Cortex", "submissionValue": "ENTORHINAL CORTEX"}, {"conceptId": "C13164", "definition": "The outer membranous connective tissue layer of the heart tissue. (NCI)", "preferredTerm": "Epicardium", "submissionValue": "EPICARDIUM"}, {"conceptId": "C69300", "definition": "A bone prominence to which ligaments and tendons of the joints are attached. (NCI)", "preferredTerm": "Epicondyle", "submissionValue": "EPICONDYLE", "synonyms": ["Epicondyle"]}, {"conceptId": "C12328", "definition": "A crescent-like structure located in the upper and posterior surfaces of the testis. It consists of the efferent ductules and the duct of the epididymis. It facilitates the maturation of sperm that is produced in the testis. (NCI)", "preferredTerm": "Epididymis", "submissionValue": "EPIDIDYMIS"}, {"conceptId": "C12709", "definition": "A small cartilagenous flap-like valve that closes over the larynx during swallowing to prevent food entering the lungs. (NCI)", "preferredTerm": "Epiglottis", "submissionValue": "EPIGLOTTIS", "synonyms": ["Epiglottis"]}, {"conceptId": "C98182", "definition": "A lymph node located above and adjacent to the elbow. (NCI)", "preferredTerm": "Epitrochlear Lymph Node", "submissionValue": "EPITROCHLEAR LYMPH NODE"}, {"conceptId": "C12389", "definition": "The portion of the digestive tract between the pharynx and stomach.", "preferredTerm": "Esophagus", "submissionValue": "ESOPHAGUS"}, {"conceptId": "C12252", "definition": "Clinical esophageal segment composed of smooth muscle. It corresponds to the inferior part of the lower third topographic segment of the esophagus. (NCI)", "preferredTerm": "Abdominal Esophagus", "submissionValue": "ESOPHAGUS, ABDOMINAL", "synonyms": ["Abdominal Esophagus"]}, {"conceptId": "C12250", "definition": "Clinical esophageal segment composed of skeletal muscle. It corresponds to the superior part of the upper third topographic segment of the esophagus. (NCI)", "preferredTerm": "Cervical Esophagus", "submissionValue": "ESOPHAGUS, CERVICAL", "synonyms": ["Cervical Esophagus"]}, {"conceptId": "C12255", "definition": "The lower one third of the esophagus in which the muscle layer is composed of muscle cells predominantly of the smooth type. (NCI)", "preferredTerm": "Lower Third of the Esophagus", "submissionValue": "ESOPHAGUS, LOWER THIRD", "synonyms": ["Lower Third of the Esophagus"]}, {"conceptId": "C12254", "definition": "The middle one third of the esophagus in which the muscle layer is composed of muscle cells of the striated and smooth types.", "preferredTerm": "Middle Third of the Esophagus", "submissionValue": "ESOPHAGUS, MIDDLE THIRD", "synonyms": ["Middle Third of the Esophagus"]}, {"conceptId": "C12251", "definition": "Clinical esophageal segment composed of smooth muscle. It includes the middle third topographic segment, as well as parts of the upper and lower thirds. (NCI)", "preferredTerm": "Thoracic Esophagus", "submissionValue": "ESOPHAGUS, THORACIC", "synonyms": ["Thoracic Esophagus"]}, {"conceptId": "C12253", "definition": "The upper one third of esophagus in which the muscle layer is composed of muscle cells of the striated type. (NCI)", "preferredTerm": "Upper Third of the Esophagus", "submissionValue": "ESOPHAGUS, UPPER THIRD", "synonyms": ["Upper Third of the Esophagus"]}, {"conceptId": "C12711", "definition": "A light and spongy bone that is cubical in shape. This bone is positioned at the anterior part of the cranium, sitting between the two orbits, at the roof of the nose. It consists of four parts: a horizontal or cribriform plate; a perpendicular plate; and two lateral masses or labyrinths. (NCI)", "preferredTerm": "Ethmoid Bone", "submissionValue": "ETHMOID BONE", "synonyms": ["Ethmoid Bone"]}, {"conceptId": "C12276", "definition": "A sinus of the meatuses of the nasal cavity. (NCI)", "preferredTerm": "Ethmoid Sinus", "submissionValue": "ETHMOID SINUS", "synonyms": ["Ethmoid Sinus"]}, {"conceptId": "C32558", "definition": "An artery arising from the bifurcation of the common iliac artery in the lower torso. The external iliac artery becomes the femoral artery and is the main blood supply for the leg.", "preferredTerm": "External Iliac Artery", "submissionValue": "EXTERNAL ILIAC ARTERY"}, {"conceptId": "C88143", "definition": "A lymph node located along the external iliac artery. (NCI)", "preferredTerm": "External Iliac Lymph Node", "submissionValue": "EXTERNAL ILIAC LYMPH NODE"}, {"conceptId": "C32573", "definition": "The portion of the biliary tract outside the liver; the common hepatic duct joins the cystic duct to form the common bile duct. (NCI)", "preferredTerm": "Extrahepatic Bile Duct", "submissionValue": "EXTRAHEPATIC BILE DUCT"}, {"conceptId": "C12401", "definition": "The organ of sight or vision. (NCI)", "preferredTerm": "Eye", "submissionValue": "EYE", "synonyms": ["Eye", "Eyeball"]}, {"conceptId": "C12667", "definition": "The space in the eye, filled with aqueous humor, bounded anteriorly by the cornea and a small portion of the sclera and posteriorly by a small portion of the ciliary body, the iris, and that part of the crystalline lens which presents through the pupil. (Cline et al., Dictionary of Visual Science, 4th ed, p109) (NCI)", "preferredTerm": "Anterior Chamber of the Eye", "submissionValue": "EYE, ANTERIOR CHAMBER"}, {"conceptId": "C33885", "definition": "The largest space within the eye which is bounded by the lens and the retina and filled with the gelatinous vitreous humor. (NCI)", "preferredTerm": "Vitreous Chamber", "submissionValue": "EYE, VITREOUS CHAMBER", "synonyms": ["Postremal Chamber"]}, {"conceptId": "C32576", "definition": "Anyone of the short hairs that grow on the edge of the eyelid. (NCI)", "preferredTerm": "Eyelash", "submissionValue": "EYELASH"}, {"conceptId": "C12713", "definition": "A thin membrane of skin with the purpose of covering and protecting an eye. (NCI)", "preferredTerm": "Eyelid", "submissionValue": "EYELID", "synonyms": ["Eyelid", "Palpebra"]}, {"conceptId": "C13071", "definition": "The portion of the head containing the eyes, nose and mouth, cheeks and jaws.", "preferredTerm": "Face", "submissionValue": "FACE", "synonyms": ["Facial"]}, {"conceptId": "C32577", "definition": "A synovial joint between two adjacent vertebrae. The facet joint links the articular process of one vertebra and the inferior articular process of the adjacent vertebra. (NCI)", "preferredTerm": "Facet Joint", "submissionValue": "FACET JOINT", "synonyms": ["Facet Joint"]}, {"conceptId": "C63706", "definition": "Any bone that contributes to the facial structures, except those bones that are part of the braincase. (NCI)", "preferredTerm": "Facial Bone", "submissionValue": "FACIAL BONE", "synonyms": ["Facial Bone"]}, {"conceptId": "C12714", "definition": "The 7th cranial nerve. The facial nerve has two parts, the larger motor root which may be called the facial nerve proper, and the smaller intermediate or sensory root. Together they provide efferent innervation to the muscles of facial expression and to the lacrimal and salivary glands, and convey afferent information for taste from the anterior two-thirds of the tongue and for touch from the external ear. (MeSH)", "preferredTerm": "Facial Nerve", "submissionValue": "FACIAL NERVE", "synonyms": ["Seventh Cranial Nerve"]}, {"conceptId": "C12403", "definition": "One of a pair of tubes that extend from the uterus to each of the ovaries. Following ovulation the egg travels down the fallopian tube to the uterus where fertilization may or may not occur. (NCI)", "preferredTerm": "Fallopian Tube", "submissionValue": "FALLOPIAN TUBE", "synonyms": ["Fallopian Tube"]}, {"conceptId": "C13108", "definition": "A sheet or band of fibrous connective tissue enveloping, separating, or binding together muscles, organs and other soft structures of the body.", "preferredTerm": "Fascia", "submissionValue": "FASCIA"}, {"conceptId": "C61600", "definition": "Female internal and external organs of reproduction.", "preferredTerm": "Female Genitalia", "submissionValue": "FEMALE GENITALIA", "synonyms": ["Female Genitalia"]}, {"conceptId": "C12402", "definition": "The sex organs of the female.", "preferredTerm": "Female Reproductive System", "submissionValue": "FEMALE REPRODUCTIVE SYSTEM"}, {"conceptId": "C12715", "definition": "An artery that starts within the inguinal region and extends to the lower extremities. (NCI)", "preferredTerm": "Femoral Artery", "submissionValue": "FEMORAL ARTERY", "synonyms": ["Femoral Artery"]}, {"conceptId": "C114186", "definition": "The rounded bony projection at the distal end of the femur.", "preferredTerm": "Femoral Condyle", "submissionValue": "FEMORAL CONDYLE"}, {"conceptId": "C32718", "definition": "The highest portion of the femoral bone that articulates with the acetabulum. (NCI)", "preferredTerm": "Head of the Femur", "submissionValue": "FEMORAL HEAD", "synonyms": ["Femur Head"]}, {"conceptId": "C98183", "definition": "A lymph node located in the upper inner portion of the thigh. (NCI)", "preferredTerm": "Femoral Lymph Node", "submissionValue": "FEMORAL LYMPH NODE"}, {"conceptId": "C61563", "definition": "The short, constricted portion of the thigh bone between the femur head and the trochanter. (NCI)", "preferredTerm": "Femoral Neck", "submissionValue": "FEMORAL NECK", "synonyms": ["Femoral Neck"]}, {"conceptId": "C12716", "definition": "A vein that starts within the inguinal region and extends to the lower extremities. (NCI)", "preferredTerm": "Femoral Vein", "submissionValue": "FEMORAL VEIN", "synonyms": ["Femoral Vein"]}, {"conceptId": "C116167", "definition": "The segment of the blood vessels that includes the popliteal artery and its origin from the femoral artery.", "preferredTerm": "Femoropopliteal Artery Segment", "submissionValue": "FEMORO-POPLITEAL PERIPHERAL ARTERY"}, {"conceptId": "C12717", "definition": "The upper leg bone positioned between the pelvis and the knee. (NCI)", "preferredTerm": "Femur", "submissionValue": "FEMUR", "synonyms": ["Bone, Femoral", "Femur"]}, {"conceptId": "C96209", "definition": "The cylindrical body of the femur. (NCI)", "preferredTerm": "Femoral Shaft", "submissionValue": "FEMUR SHAFT"}, {"conceptId": "C12718", "definition": "The small, lateral calf bone extending from the knee to the ankle. (NCI)", "preferredTerm": "Fibula", "submissionValue": "FIBULA", "synonyms": ["Fibula"]}, {"conceptId": "C120670", "definition": "The elongated bony body of the fibula.", "preferredTerm": "Fibular Shaft", "submissionValue": "FIBULA SHAFT"}, {"conceptId": "C32608", "definition": "Any of the digits of the hand. (NCI)", "preferredTerm": "Finger", "submissionValue": "FINGER", "synonyms": ["Finger"]}, {"conceptId": "C32609", "definition": "The nail at the end of a finger. (NCI)", "preferredTerm": "Fingernail", "submissionValue": "FINGERNAIL", "synonyms": ["Fingernail"]}, {"conceptId": "C102297", "definition": "The first artery arising from the left anterior descending (LAD) artery that supplies the anterolateral wall, when counted from proximal to distal.", "preferredTerm": "First Diagonal Branch Artery", "submissionValue": "FIRST DIAGONAL BRANCH ARTERY", "synonyms": ["1ST DIAG", "FIRST DIAGONAL BRANCH ARTERY SEGMENT"]}, {"conceptId": "C102298", "definition": "In an individual with a left-dominant heart, this is the first branch that arises from the circumflex artery atrioventricular groove continuation when counted from proximal to distal. It supplies the posterolateral wall.", "preferredTerm": "First Left Posterolateral Branch Artery", "submissionValue": "FIRST LEFT POSTEROLATERAL BRANCH ARTERY", "synonyms": ["1ST LPL", "FIRST LEFT POSTEROLATERAL BRANCH ARTERY SEGMENT"]}, {"conceptId": "C102299", "definition": "The first artery arising from the left circumflex artery that supplies the lateral wall, when counted from proximal to distal.", "preferredTerm": "First Obtuse Marginal Branch Artery", "submissionValue": "FIRST OBTUSE MARGINAL BRANCH ARTERY", "synonyms": ["1ST OM", "FIRST OBTUSE MARGINAL BRANCH ARTERY SEGMENT"]}, {"conceptId": "C102300", "definition": "In an individual with a right-dominant heart, this is the first branch that arises from the right coronary artery distal to the right posterior descending artery, when counted from proximal to distal.", "preferredTerm": "First Right Posterolateral Artery", "submissionValue": "FIRST RIGHT POSTEROLATERAL ARTERY", "synonyms": ["1ST RPL", "FIRST RIGHT POSTEROLATERAL ARTERY SEGMENT"]}, {"conceptId": "C54187", "definition": "The area of the mouth under the ventral surface of the tongue.", "preferredTerm": "Floor of Mouth", "submissionValue": "FLOOR OF MOUTH"}, {"conceptId": "C32622", "definition": "The structure found below the ankle joint required for locomotion. (NCI)", "preferredTerm": "Foot", "submissionValue": "FOOT", "synonyms": ["Feet", "Foot"]}, {"conceptId": "C52839", "definition": "The largest and most medial toe of the foot. (NCI)", "preferredTerm": "Foot Digit 1", "submissionValue": "FOOT DIGIT 1", "synonyms": ["Big Toe"]}, {"conceptId": "C52840", "definition": "The second toe from the medial side of the foot. (NCI)", "preferredTerm": "Foot Digit 2", "submissionValue": "FOOT DIGIT 2", "synonyms": ["Index Toe"]}, {"conceptId": "C52841", "definition": "The middle or third toe from the medial side of the foot. (NCI)", "preferredTerm": "Foot Digit 3", "submissionValue": "FOOT DIGIT 3", "synonyms": ["Middle Toe"]}, {"conceptId": "C52842", "definition": "The fourth toe from the medial side of the foot. (NCI)", "preferredTerm": "Foot Digit 4", "submissionValue": "FOOT DIGIT 4", "synonyms": ["Fourth Toe"]}, {"conceptId": "C52843", "definition": "The smallest and most lateral toe of the foot. (NCI)", "preferredTerm": "Foot Digit 5", "submissionValue": "FOOT DIGIT 5", "synonyms": ["Little Toe"]}, {"conceptId": "C52772", "definition": "A bone of the foot. (NCI)", "preferredTerm": "Foot Phalanx", "submissionValue": "FOOT PHALANX", "synonyms": ["Foot Phalanx"]}, {"conceptId": "C32628", "definition": "The structure on the upper limb, between the elbow and the wrist. (NCI)", "preferredTerm": "Forearm", "submissionValue": "FOREARM", "synonyms": ["Forearm"]}, {"conceptId": "C40185", "definition": "The largest part of the brain composed of the cerebral hemispheres, thalamus, hypothalamus, and the limbic system. (NCI)", "preferredTerm": "Forebrain", "submissionValue": "FOREBRAIN"}, {"conceptId": "C89803", "definition": "The part of the face between the eyebrows and the normal hairline.", "preferredTerm": "Forehead", "submissionValue": "FOREHEAD", "synonyms": ["Forehead"]}, {"conceptId": "C12352", "definition": "The part of the brain located anterior to the parietal lobes at the front of each cerebral hemisphere. (NCI)", "preferredTerm": "Frontal Lobe", "submissionValue": "FRONTAL LOBE", "synonyms": ["Frontal Lobe"]}, {"conceptId": "C12277", "definition": "The paired, mucosal lined air spaces located above the orbit and communicating with the nasal passages. (NCI)", "preferredTerm": "Frontal Sinus", "submissionValue": "FRONTAL SINUS", "synonyms": ["Frontal Sinus"]}, {"conceptId": "C12257", "definition": "The portion of the stomach that lies above the cardiac notch. It allows for the accumulation of gases produced by chemical digestion. (NCI)", "preferredTerm": "Fundus of the Stomach", "submissionValue": "FUNDUS OF THE STOMACH", "synonyms": ["Fundus of the Stomach"]}, {"conceptId": "C12377", "definition": "A pear-shaped organ located under the liver that stores and concentrates bile secreted by the liver. From the gallbladder the bile is delivered through the bile ducts into the intestine thereby aiding the digestion of fat-containing foods. (NCI)", "preferredTerm": "Gallbladder", "submissionValue": "GALLBLADDER", "synonyms": ["Gallbladder"]}, {"conceptId": "C12719", "definition": "A cluster of nervous tissue principally composed of neuronal cell bodies external to the central nervous system (CNS). (NCI)", "preferredTerm": "Ganglion", "submissionValue": "GANGLION", "synonyms": ["Ganglia", "Ganglion", "Neural Ganglion"]}, {"conceptId": "C12256", "definition": "The area around the esophagogastric mucosal junction where the esophageal mucosa transitions into the gastric mucosa. (NCI)", "preferredTerm": "Gastric Cardia", "submissionValue": "GASTRIC CARDIA", "synonyms": ["Gastric Cardia"]}, {"conceptId": "C32668", "definition": "The anatomical location where the esophagus joins to the stomach. (NCI)", "preferredTerm": "Gastroesophageal Junction", "submissionValue": "GASTROESOPHAGEAL JUNCTION", "synonyms": ["Gastroesophageal Junction"]}, {"conceptId": "C12378", "definition": "The system that includes the esophagus, stomach, small and large intestine, anus, liver, biliary tract, and pancreas. (NCI)", "preferredTerm": "Digestive System", "submissionValue": "GASTROINTESTINAL SYSTEM", "synonyms": ["Gastrointestinal System"]}, {"conceptId": "C34082", "definition": "The upper gastrointestinal (GI) tract is comprised of mouth, pharynx, esophagus and stomach while the lower GI tract consists of intestines and anus. The primary function of the GI tract is to ingest, digest, absorb and ultimately excrete food stuff. (NCI)", "preferredTerm": "Gastrointestinal Tract", "submissionValue": "GASTROINTESTINAL TRACT", "synonyms": ["Gastrointestinal Tract"]}, {"conceptId": "C33010", "definition": "The lower part of the gastrointestinal tract that includes the jejunum and ileum of the small intestine and the large intestine. (NCI)", "preferredTerm": "Lower Gastrointestinal Tract", "submissionValue": "GASTROINTESTINAL TRACT, LOWER", "synonyms": ["Lower Gastrointestinal Tract"]}, {"conceptId": "C33837", "definition": "The upper part of the gastrointestinal tract that includes the esophagus, stomach, and duodenum. (NCI)", "preferredTerm": "Upper Gastrointestinal Tract", "submissionValue": "GASTROINTESTINAL TRACT, UPPER", "synonyms": ["Upper Gastrointestinal Tract"]}, {"conceptId": "C25177", "definition": "The external sex organs. (NCI)", "preferredTerm": "Genitalia", "submissionValue": "GENITALIA"}, {"conceptId": "C32677", "definition": "The soft tissue surrounding the neck of individual teeth as well as covering the alveolar bone. The tissue is fibrous and continuous with the periodontal ligament and mucosal covering. (NCI)", "preferredTerm": "Gingiva", "submissionValue": "GINGIVA", "synonyms": ["Gingiva", "Gum"]}, {"conceptId": "C32682", "definition": "The trough in the head of the scapula that receives the head of the humerus to form the shoulder joint. (NCI)", "preferredTerm": "Glenoid Fossa", "submissionValue": "GLENOID FOSSA", "synonyms": ["Glenoid Fossa"]}, {"conceptId": "C13250", "definition": "A cluster of convoluted capillaries beginning at each nephric tubule in the kidney and held together by connective tissue.", "preferredTerm": "Glomerulus", "submissionValue": "GLOMERULUS"}, {"conceptId": "C12723", "definition": "The ninth cranial nerve.", "preferredTerm": "Glossopharyngeal Nerve", "submissionValue": "GLOSSOPHARYNGEAL NERVE"}, {"conceptId": "C12724", "definition": "The space in which the vocal cords are located. (NCI)", "preferredTerm": "Glottis", "submissionValue": "GLOTTIS", "synonyms": ["Glottis"]}, {"conceptId": "C52560", "definition": "The outermost and largest muscle of the buttocks. (NCI)", "preferredTerm": "Gluteus Maximus", "submissionValue": "GLUTEUS MAXIMUS"}, {"conceptId": "C32698", "definition": "A large, irregular, quadrilateral area of bone found at the neck of the femur. (NCI)", "preferredTerm": "Great Trochanter", "submissionValue": "GREAT TROCHANTER", "synonyms": ["Great Trochanter"]}, {"conceptId": "C12262", "definition": "The lateral and inferior border of the stomach. Attached to it is the greater omentum. (NCI)", "preferredTerm": "Greater Curvature of the Stomach", "submissionValue": "GREATER CURVATURE OF THE STOMACH", "synonyms": ["Greater Curvature of the Stomach"]}, {"conceptId": "C32705", "definition": "The filamentous outgrowth of the epidermis. (NCI)", "preferredTerm": "Hair", "submissionValue": "HAIR", "synonyms": ["Hair"]}, {"conceptId": "C32706", "definition": "The lower segment of the hair that circles the dermal papilla and the hair matrix. (NCI)", "preferredTerm": "Hair Bulb", "submissionValue": "HAIR BULB"}, {"conceptId": "C13317", "definition": "A tube-like invagination of the epidermis from which the hair shaft develops and into which the sebaceous glands open; the follicle is lined by a cellular inner and outer root sheath of epidermal origin and is invested with a fibrous sheath derived from the dermis. (NCI)", "preferredTerm": "Hair Follicle", "submissionValue": "HAIR FOLLICLE"}, {"conceptId": "C32711", "definition": "The portion of the hair that is enclosed within the hair follicle. (NCI)", "preferredTerm": "Hair Root", "submissionValue": "HAIR ROOT"}, {"conceptId": "C33543", "definition": "The segment of the hair that projects above the skin surface. (NCI)", "preferredTerm": "Shaft of the Hair", "submissionValue": "HAIR SHAFT", "synonyms": ["Shaft of the Hair"]}, {"conceptId": "C12860", "definition": "The medial bone in the distal row of carpal bones. (NCI)", "preferredTerm": "Hamate Bone", "submissionValue": "HAMATE BONE", "synonyms": ["Hamate Bone"]}, {"conceptId": "C32712", "definition": "The distal portion of the upper extremity. It consists of the carpus, metacarpus, and digits. (NCI)", "preferredTerm": "Hand", "submissionValue": "HAND", "synonyms": ["Hand"]}, {"conceptId": "C52834", "definition": "The thick and short hand digit which is next to the index finger in humans. (NCI)", "preferredTerm": "Hand Digit 1", "submissionValue": "HAND DIGIT 1", "synonyms": ["Thumb"]}, {"conceptId": "C52835", "definition": "The second finger from the radial side of the hand, next to the thumb. (NCI)", "preferredTerm": "Hand Digit 2", "submissionValue": "HAND DIGIT 2", "synonyms": ["Index Finger"]}, {"conceptId": "C52836", "definition": "The middle or third finger from the radial side of the hand. (NCI)", "preferredTerm": "Hand Digit 3", "submissionValue": "HAND DIGIT 3", "synonyms": ["Middle Finger"]}, {"conceptId": "C52837", "definition": "The fourth finger from the radial side of the hand. (NCI)", "preferredTerm": "Hand Digit 4", "submissionValue": "HAND DIGIT 4", "synonyms": ["Ring Finger"]}, {"conceptId": "C52838", "definition": "The fifth and smallest finger from the radial side of the hand. (NCI)", "preferredTerm": "Hand Digit 5", "submissionValue": "HAND DIGIT 5", "synonyms": ["Little Finger"]}, {"conceptId": "C52771", "definition": "A bone of the hand. (NCI)", "preferredTerm": "Hand Phalanx", "submissionValue": "HAND PHALANX", "synonyms": ["Hand Phalanx"]}, {"conceptId": "C12230", "definition": "The bony anterior part of the roof of the mouth separating the nose from the mouth. (NCI)", "preferredTerm": "Hard Palate", "submissionValue": "HARD PALATE", "synonyms": ["Hard Palate"]}, {"conceptId": "C12419", "definition": "The anterior and superior part of a human or animal bearing the mouth, the brain and sensory organs.", "preferredTerm": "Head", "submissionValue": "HEAD", "synonyms": ["Head"]}, {"conceptId": "C12418", "definition": "The area of the body comprising the skull, facial bones and the cervical vertebrae, sinuses, orbits, salivary glands, oral cavity, oropharynx, larynx, thyroid, facial and neck musculature, soft tissue and lymph nodes draining these areas.", "preferredTerm": "Head and Neck", "submissionValue": "HEAD AND NECK"}, {"conceptId": "C32720", "definition": "The upper rounded part of the humerus that fits into the glenoid cavity of the scapula. (NCI)", "preferredTerm": "Head of the Humerus", "submissionValue": "HEAD OF THE HUMERUS", "synonyms": ["Head of the Humerus"]}, {"conceptId": "C12727", "definition": "A hollow muscular organ which receives the blood from the veins and propels it into the arteries. It is divided by a musculomembranous septum into two halves -- right or venous and left or arterial -- each of which consists of a receiving chamber (atrium) and an ejecting chamber (ventricle). (NCI)", "preferredTerm": "Heart", "submissionValue": "HEART", "synonyms": ["Cardiac", "Heart"]}, {"conceptId": "C32126", "definition": "The most outer superficial part of the heart which is situated on the left 5th intercostal space. (NCI)", "preferredTerm": "Apex of the Heart", "submissionValue": "HEART, APEX", "synonyms": ["Apex of the Heart"]}, {"conceptId": "C12728", "definition": "The smaller chamber(s) of the heart that receives blood from the peripheral circulation and/or the lungs.", "preferredTerm": "Cardiac Atrium", "submissionValue": "HEART, ATRIUM", "synonyms": ["Cardiac Atrium"]}, {"conceptId": "C48589", "definition": "The superior portion of the heart located opposite to the apical portion. It is formed mainly by the left atrium. (NCI)", "preferredTerm": "Base of the Heart", "submissionValue": "HEART, BASE", "synonyms": ["Base of the Heart"]}, {"conceptId": "C127643", "definition": "A small muscular pouch located in the wall of the left atrium.", "preferredTerm": "Left Atrial Appendage", "submissionValue": "HEART, LEFT ATRIAL APPENDAGE"}, {"conceptId": "C12869", "definition": "The smaller chamber on the left side of the heart, which receives oxygenated blood from the pulmonary veins and pumps it through the left atrioventricular valve into the left ventricle.", "preferredTerm": "Left Atrium", "submissionValue": "HEART, LEFT ATRIUM"}, {"conceptId": "C12871", "definition": "The larger chamber on the left side of the heart, which receives oxygenated blood from the left atrium and pumps it through the aortic valve into the aorta.", "preferredTerm": "Left Ventricle", "submissionValue": "HEART, LEFT VENTRICLE", "synonyms": ["Left Ventricle"]}, {"conceptId": "C127644", "definition": "The structure through which blood flows from the left ventricle into the aortic root.", "preferredTerm": "Left Ventricular Outflow Tract", "submissionValue": "HEART, LEFT VENTRICULAR OUTFLOW TRACT"}, {"conceptId": "C127645", "definition": "The wall of the left ventricle, comprising anterior, inferior, lateral, apical, basal wall; and excluding the interventricular septum.", "preferredTerm": "Left Ventricular Wall", "submissionValue": "HEART, LEFT VENTRICULAR WALL"}, {"conceptId": "C127646", "definition": "A small muscular pouch located in the wall of the right atrium.", "preferredTerm": "Right Atrial Appendage", "submissionValue": "HEART, RIGHT ATRIAL APPENDAGE"}, {"conceptId": "C12868", "definition": "The smaller chamber on the right side of the heart, which receives deoxygenated blood from the body and pumps it through the right atrioventricular valve into the right ventricle.", "preferredTerm": "Right Atrium", "submissionValue": "HEART, RIGHT ATRIUM"}, {"conceptId": "C12870", "definition": "The larger chamber on the right side of the heart, which receives deoxygenated blood from the right atrium and pumps it through the pulmonic valve into the pulmonary arteries.", "preferredTerm": "Right Ventricle", "submissionValue": "HEART, RIGHT VENTRICLE", "synonyms": ["Right Ventricle"]}, {"conceptId": "C127647", "definition": "The lateral segment of the right ventricular wall, excluding the anterior and inferior right ventricular wall.", "preferredTerm": "Right Ventricular Free Wall", "submissionValue": "HEART, RIGHT VENTRICULAR FREE WALL"}, {"conceptId": "C127648", "definition": "The structure through which blood flows from the right ventricle into the pulmonary trunk.", "preferredTerm": "Right Ventricular Outflow Tract", "submissionValue": "HEART, RIGHT VENTRICULAR OUTFLOW TRACT"}, {"conceptId": "C127649", "definition": "The wall of the right ventricle, comprising anterior, inferior, and lateral walls; and excluding the interventricular septum.", "preferredTerm": "Right Ventricular Wall", "submissionValue": "HEART, RIGHT VENTRICULAR WALL"}, {"conceptId": "C49485", "definition": "The tissue in the heart that separates the two atria (atrial septum) and the two ventricles (ventricular septum). (NCI)", "preferredTerm": "Heart Septum", "submissionValue": "HEART, SEPTUM", "synonyms": ["Cardiac Septum"]}, {"conceptId": "C12730", "definition": "The larger chamber(s) of the heart that receives blood from an atrium and pushes it out of the heart into the peripheral circulation and/or the lungs.", "preferredTerm": "Cardiac Ventricle", "submissionValue": "HEART, VENTRICLE", "synonyms": ["Cardiac Ventricle"]}, {"conceptId": "C119295", "definition": "The tissue layers that form the cardiac ventricle. They include myocardium, endocardium, and pericardium. (NCI)", "preferredTerm": "Ventricular Wall of the Heart", "submissionValue": "HEART, VENTRICULAR WALL"}, {"conceptId": "C32729", "definition": "An artery arising from the celiac trunk that supplies the liver and branches to form the cystic, gastro-duodenalis and pyloric arteries.", "preferredTerm": "Hepatic Artery", "submissionValue": "HEPATIC ARTERY"}, {"conceptId": "C77640", "definition": "Any of the lymph nodes adjacent to the stomach and duodenum. (NCI)", "preferredTerm": "Hepatic Lymph Node", "submissionValue": "HEPATIC LYMPH NODE"}, {"conceptId": "C25724", "definition": "Refers to the area associated with the hilum. (NCI)", "preferredTerm": "Hilar", "submissionValue": "HILAR", "synonyms": ["Hilar"]}, {"conceptId": "C98187", "definition": "A lymph node located in the hilum of the lung within the mediastinum.", "preferredTerm": "Pulmonary Hilar Lymph Node", "submissionValue": "HILAR LYMPH NODE"}, {"conceptId": "C64193", "definition": "The lateral prominence of the pelvis from the waist to the thigh. (NCI)", "preferredTerm": "Hip", "submissionValue": "HIP", "synonyms": ["Hip"]}, {"conceptId": "C32742", "definition": "A ball-and-socket joint between the head of the femur and the acetabulum. (NCI)", "preferredTerm": "Hip Joint", "submissionValue": "HIP JOINT", "synonyms": ["Coxofemoral Joint", "Hip Joint"]}, {"conceptId": "C12444", "definition": "A curved gray matter structure of the temporal lobe lying on the floor of the lateral ventricle of the brain. (NCI)", "preferredTerm": "Hippocampus", "submissionValue": "HIPPOCAMPUS", "synonyms": ["Hippocampus"]}, {"conceptId": "C114187", "definition": "The bone prominence at the distal end of the humerus to which ligaments and tendons of the joints are attached.", "preferredTerm": "Humeral Epicondyle", "submissionValue": "HUMERAL EPICONDYLE"}, {"conceptId": "C12731", "definition": "The upper arm bone between the shoulder and elbow. (NCI)", "preferredTerm": "Humerus", "submissionValue": "HUMERUS", "synonyms": ["Bone, Humeral", "Humerus"]}, {"conceptId": "C120671", "definition": "The cylindrical, elongated bony body of the humerus.", "preferredTerm": "Humeral Shaft", "submissionValue": "HUMERUS SHAFT"}, {"conceptId": "C32752", "definition": "A U-shaped bone supporting the tongue. This bone is located at the base of the tongue and is suspended from the tips of the styloid processes of the temporal bones by the stylohyoid ligaments. (NCI)", "preferredTerm": "Hyoid Bone", "submissionValue": "HYOID BONE", "synonyms": ["Hyoid Bone"]}, {"conceptId": "C12732", "definition": "The twelfth cranial nerve.", "preferredTerm": "Hypoglossal Nerve", "submissionValue": "HYPOGLOSSAL NERVE"}, {"conceptId": "C12246", "definition": "The lower part of the pharynx that connects to the esophagus. (NCI)", "preferredTerm": "Hypopharynx", "submissionValue": "HYPOPHARYNX", "synonyms": ["Hypopharynx"]}, {"conceptId": "C12458", "definition": "The supervisory center in the brain, rich in ganglia, nerve fibers, and synaptic connections. It is composed of several sections called nuclei, each of which controls a specific function.", "preferredTerm": "Hypothalamus", "submissionValue": "HYPOTHALAMUS", "synonyms": ["Hypothalamus"]}, {"conceptId": "C12387", "definition": "The final section of the small intestine. (NCI)", "preferredTerm": "Ileum", "submissionValue": "ILEUM", "synonyms": ["Ileum"]}, {"conceptId": "C33757", "definition": "The most distal section of the ileum that is continuous with the cecum. (NCI)", "preferredTerm": "Terminal Ileum", "submissionValue": "ILEUM, TERMINAL", "synonyms": ["Terminal Ileum"]}, {"conceptId": "C103818", "definition": "A predominate bone structure which borders the ilium wing stretching from the anterior superior iliac spine to the posterior superior iliac spine.", "preferredTerm": "Iliac Crest", "submissionValue": "ILIAC CREST"}, {"conceptId": "C103454", "definition": "The large smooth and concave surface of the ilium. (NCI)", "preferredTerm": "Iliac Fossa", "submissionValue": "ILIAC FOSSA"}, {"conceptId": "C32761", "definition": "One of the three lymph nodes of the pelvis: the superior gluteal, interior gluteal or sacral. (NCI)", "preferredTerm": "Iliac Lymph Node", "submissionValue": "ILIAC LYMPH NODE", "synonyms": ["Iliac Lymph Node"]}, {"conceptId": "C32765", "definition": "The broad, dorsal, upper, and widest of the three principal bones composing either half of the pelvis. (NCI)", "preferredTerm": "Ilium", "submissionValue": "ILIUM", "synonyms": ["Ilium"]}, {"conceptId": "C32769", "definition": "One of the teeth in front of the canines in either jaw designed for cutting or gnawing. (NCI)", "preferredTerm": "Incisor", "submissionValue": "INCISOR", "synonyms": ["Incisor"]}, {"conceptId": "C32770", "definition": "One of the three bones comprising the middle ear. This anvil-shaped bone is positioned between the malleus and the stapes. (NCI)", "preferredTerm": "Incus", "submissionValue": "INCUS", "synonyms": ["Incus"]}, {"conceptId": "C12815", "definition": "A large vein that returns blood from the lower half of the body to the heart.", "preferredTerm": "Inferior Vena Cava", "submissionValue": "INFERIOR VENA CAVA"}, {"conceptId": "C63705", "definition": "A lymph node located in the area below the clavicle. (NCI)", "preferredTerm": "Infraclavicular Lymph Node", "submissionValue": "INFRACLAVICULAR LYMPH NODE", "synonyms": ["Infraclavicular Lymph Node", "Subclavicular Lymph Node"]}, {"conceptId": "C116179", "definition": "The portion of the abdominal aorta that lies below the kidneys.", "preferredTerm": "Infrarenal Aortic Segment", "submissionValue": "INFRARENAL AORTA"}, {"conceptId": "C12509", "definition": "The part of the brain below the tentorium cerebellum. (NCI)", "preferredTerm": "Infratentorial Brain", "submissionValue": "INFRATENTORIAL BRAIN"}, {"conceptId": "C32801", "definition": "A superficial or deep lymph node located in the inguinal area. (NCI)", "preferredTerm": "Inguinal Lymph Node", "submissionValue": "INGUINAL LYMPH NODE", "synonyms": ["Inguinal Lymph Node"]}, {"conceptId": "C12726", "definition": "The lower region of the anterior abdominal wall located laterally to the pubic region. (NCI)", "preferredTerm": "Inguinal Region", "submissionValue": "INGUINAL REGION", "synonyms": ["Groin"]}, {"conceptId": "C32845", "definition": "A short thick blood vessel arising from the bifurcation of the common iliac artery with numerous branches that supply the organs, walls and viscera of the pelvis as well as the inner thigh.", "preferredTerm": "Internal Iliac Artery", "submissionValue": "INTERNAL ILIAC ARTERY"}, {"conceptId": "C88142", "definition": "A lymph node located along the internal iliac artery. (NCI)", "preferredTerm": "Internal Iliac Lymph Node", "submissionValue": "INTERNAL ILIAC LYMPH NODE"}, {"conceptId": "C52941", "definition": "The blood vessel that supplies the breast and the anterior chest wall with arterial blood. It is located in the chest wall. (NCI)", "preferredTerm": "Internal Mammary Artery", "submissionValue": "INTERNAL MAMMARY ARTERY"}, {"conceptId": "C32853", "definition": "Any of the lymph nodes of the breast located under the ribcage, near the sternum. (NCI)", "preferredTerm": "Internal Mammary Lymph Node", "submissionValue": "INTERNAL MAMMARY LYMPH NODE"}, {"conceptId": "C102301", "definition": "A ginglymoid (hinge) synovial joint within the first digit of the hand or foot connecting the proximal and distal phalanges. (NCI)", "preferredTerm": "Interphalangeal Joint 1", "submissionValue": "INTERPHALANGEAL JOINT 1", "synonyms": ["IP1"]}, {"conceptId": "C114200", "definition": "A ginglymoid (hinge) synovial joint within the first digit of the foot connecting the proximal and distal phalanges. (NCI)", "preferredTerm": "Interphalangeal Joint 1 of the Foot", "submissionValue": "INTERPHALANGEAL JOINT 1 OF THE FOOT", "synonyms": ["IP1 of the Foot"]}, {"conceptId": "C102302", "definition": "A ginglymoid (hinge) synovial joint between the phalanges of the second digit of the hand or foot. (NCI)", "preferredTerm": "Interphalangeal Joint 2", "submissionValue": "INTERPHALANGEAL JOINT 2", "synonyms": ["IP2"]}, {"conceptId": "C114201", "definition": "A ginglymoid (hinge) synovial joint between the phalanges of the second digit of the foot. (NCI)", "preferredTerm": "Interphalangeal Joint 2 of the Foot", "submissionValue": "INTERPHALANGEAL JOINT 2 OF THE FOOT", "synonyms": ["IP2 of the Foot"]}, {"conceptId": "C114190", "definition": "A ginglymoid (hinge) synovial joint between the phalanges of the second digit of the hand. (NCI)", "preferredTerm": "Interphalangeal Joint 2 of the Hand", "submissionValue": "INTERPHALANGEAL JOINT 2 OF THE HAND", "synonyms": ["IP2 of the Hand"]}, {"conceptId": "C102303", "definition": "A ginglymoid (hinge) synovial joint between the phalanges of the third digit of the hand or foot. (NCI)", "preferredTerm": "Interphalangeal Joint 3", "submissionValue": "INTERPHALANGEAL JOINT 3", "synonyms": ["IP3"]}, {"conceptId": "C114202", "definition": "A ginglymoid (hinge) synovial joint between the phalanges of the third digit of the foot. (NCI)", "preferredTerm": "Interphalangeal Joint 3 of the Foot", "submissionValue": "INTERPHALANGEAL JOINT 3 OF THE FOOT", "synonyms": ["IP3 of the Foot"]}, {"conceptId": "C114191", "definition": "A ginglymoid (hinge) synovial joint between the phalanges of the third digit of the hand. (NCI)", "preferredTerm": "Interphalangeal Joint 3 of the Hand", "submissionValue": "INTERPHALANGEAL JOINT 3 OF THE HAND", "synonyms": ["IP3 of the Hand"]}, {"conceptId": "C102304", "definition": "A ginglymoid (hinge) synovial joint between the phalanges of the fourth digit of the hand or foot. (NCI)", "preferredTerm": "Interphalangeal Joint 4", "submissionValue": "INTERPHALANGEAL JOINT 4", "synonyms": ["IP4"]}, {"conceptId": "C114203", "definition": "A ginglymoid (hinge) synovial joint between the phalanges of the fourth digit of the foot. (NCI)", "preferredTerm": "Interphalangeal Joint 4 of the Foot", "submissionValue": "INTERPHALANGEAL JOINT 4 OF THE FOOT", "synonyms": ["IP4 of the Foot"]}, {"conceptId": "C114192", "definition": "A ginglymoid (hinge) synovial joint between the phalanges of the fourth digit of the hand. (NCI)", "preferredTerm": "Interphalangeal Joint 4 of the Hand", "submissionValue": "INTERPHALANGEAL JOINT 4 OF THE HAND", "synonyms": ["IP4 of the Hand"]}, {"conceptId": "C102305", "definition": "A ginglymoid (hinge) synovial joint between the phalanges of the fifth digit of the hand or foot. (NCI)", "preferredTerm": "Interphalangeal Joint 5", "submissionValue": "INTERPHALANGEAL JOINT 5", "synonyms": ["IP5"]}, {"conceptId": "C114204", "definition": "A ginglymoid (hinge) synovial joint between the phalanges of the fifth digit of the foot. (NCI)", "preferredTerm": "Interphalangeal Joint 5 of the Foot", "submissionValue": "INTERPHALANGEAL JOINT 5 OF THE FOOT", "synonyms": ["IP5 of the Foot"]}, {"conceptId": "C114193", "definition": "A ginglymoid (hinge) synovial joint between the phalanges of the fifth digit of the hand. (NCI)", "preferredTerm": "Interphalangeal Joint 5 of the Hand", "submissionValue": "INTERPHALANGEAL JOINT 5 OF THE HAND", "synonyms": ["IP5 of the Hand"]}, {"conceptId": "C32868", "definition": "The hinge synovial joints between the phalanges of the fingers. (NCI)", "preferredTerm": "Interphalangeal Joint of the Hand", "submissionValue": "INTERPHALANGEAL JOINT OF THE HAND", "synonyms": ["Interphalangeal Joint of the Hand"]}, {"conceptId": "C32867", "definition": "The hinge synovial joints between the bones of the toes. (NCI)", "preferredTerm": "Interphalangeal Joint of the Foot", "submissionValue": "INTERPHALANGEAL OF THE FOOT", "synonyms": ["IP of the Foot"]}, {"conceptId": "C102306", "definition": "A condyloid synovial joint within the thumb connecting the proximal and distal phalanges.", "preferredTerm": "Interphalangeal Thumb Joint", "submissionValue": "INTERPHALANGEAL THUMB JOINT", "synonyms": ["IP THUMB", "IP1 of the Hand", "Interphalangeal Joint 1 of the Hand"]}, {"conceptId": "C120672", "definition": "The bony region in the proximal portion of the femur between the greater, lesser and sub- (also called the third) trochanters.", "preferredTerm": "Intertrochanteric Region", "submissionValue": "INTERTROCHANTERIC REGION"}, {"conceptId": "C32874", "definition": "The wall that separates the left and right ventricles of the heart. (NCI)", "preferredTerm": "Interventricular Septum", "submissionValue": "INTERVENTRICULAR SEPTUM", "synonyms": ["Interventricular Septal Wall"]}, {"conceptId": "C12736", "definition": "The portion of the gastrointestinal tract between the stomach and the anus. It includes the small intestine and large intestine. (NCI)", "preferredTerm": "Intestine", "submissionValue": "INTESTINE", "synonyms": ["Intestine"]}, {"conceptId": "C12677", "definition": "The bile ducts that pass through and drain bile from the liver. (NCI)", "preferredTerm": "Intrahepatic Bile Duct", "submissionValue": "INTRAHEPATIC BILE DUCT"}, {"conceptId": "C12359", "definition": "Any lymph node within the thoracic cavity.", "preferredTerm": "Intrathoracic Lymph Node", "submissionValue": "INTRATHORACIC LYMPH NODE"}, {"conceptId": "C12737", "definition": "The colored disc of the eye composed of connective tissue, epithelium, and endothelium. It separates the anterior chamber from the posterior chamber. (NCI)", "preferredTerm": "Iris", "submissionValue": "IRIS"}, {"conceptId": "C105446", "definition": "The bony prominence of the lower part of the ischium. (NCI)", "preferredTerm": "Ischial Tuberosity", "submissionValue": "ISCHIAL TUBEROSITY"}, {"conceptId": "C103455", "definition": "A tetrahedral region of adipose tissue located in the ischiorectal region with its base between the tuberosity of the ischium and the lower end of the rectum and its apex at the point where the obturator fascia and the Levator ani membrane divide.", "preferredTerm": "Ischiorectal Fossa", "submissionValue": "ISCHIORECTAL FOSSA"}, {"conceptId": "C32884", "definition": "The most posterior and ventral bone making up the pelvis. (NCI)", "preferredTerm": "Ischium", "submissionValue": "ISCHIUM", "synonyms": ["Ischium"]}, {"conceptId": "C12388", "definition": "The portion of the small intestine that extends from the duodenum to the ileum. (NCI)", "preferredTerm": "Jejunum", "submissionValue": "JEJUNUM", "synonyms": ["Jejunum"]}, {"conceptId": "C13044", "definition": "The connection point between two bones or skeletal elements. The joint may be fixed or movable. (NCI)", "preferredTerm": "Joint", "submissionValue": "JOINT", "synonyms": ["Articulation", "Joint"]}, {"conceptId": "C12738", "definition": "Veins in the neck which drain the brain, face, and neck into the brachiocephalic or subclavian veins. (NCI)", "preferredTerm": "Jugular Vein", "submissionValue": "JUGULAR VEIN", "synonyms": ["Vena Jugularis"]}, {"conceptId": "C12415", "definition": "One of the two bean-shaped organs located on each side of the spine in the retroperitoneum. The right kidney is located below the liver and the left kidney below the diaphragm. The kidneys filter and secret the metabolic products and minerals from the blood, thus maintaining the homeostasis. On the superior pole of each kidney there is an adrenal gland. Each kidney and adrenal gland is surrounded by fat. (NCI)", "preferredTerm": "Kidney", "submissionValue": "KIDNEY", "synonyms": ["Kidney"]}, {"conceptId": "C12739", "definition": "The outer zone of the KIDNEY, beneath the capsule, consisting of KIDNEY GLOMERULUS; KIDNEY TUBULES, DISTAL; and KIDNEY TUBULES, PROXIMAL. (MSH2001)", "preferredTerm": "Renal Cortex", "submissionValue": "KIDNEY, CORTEX", "synonyms": ["Renal Cortex"]}, {"conceptId": "C32740", "definition": "The concave area of the kidney through which the renal artery enters and the renal vein and ureter exit the organ. (NCI)", "preferredTerm": "Hilar Area of the Kidney", "submissionValue": "KIDNEY, HILUM", "synonyms": ["Hilar Area of the Kidney"]}, {"conceptId": "C93180", "definition": "The lobe of the kidney located in the lowest portion of the kidney. (NCI)", "preferredTerm": "Lower Lobe of Kidney", "submissionValue": "KIDNEY, LOWER LOBE", "synonyms": ["Lower Lobe of the Kidney"]}, {"conceptId": "C12740", "definition": "The internal portion of the kidney, consisting of striated conical masses, the renal pyramids, whose bases are adjacent to the cortex and whose apices form prominent papillae projecting into the lumen of the minor calyces. (MSH2001)", "preferredTerm": "Renal Medulla", "submissionValue": "KIDNEY, MEDULLA", "synonyms": ["Renal Medulla"]}, {"conceptId": "C93179", "definition": "The lobe of the kidney located in the uppermost region of the kidney. (NCI)", "preferredTerm": "Upper Lobe of Kidney", "submissionValue": "KIDNEY, UPPER LOBE", "synonyms": ["Upper Lobe of the Kidney"]}, {"conceptId": "C32898", "definition": "A joint connecting the lower part of the femur with the upper part of the tibia. The lower part of the femur and the upper part of the tibia are attached to each other by ligaments. Other structures of the knee joint include the upper part of the fibula, located below and parallel to the tibia, and the patella which moves as the knee bends. (NCI)", "preferredTerm": "Knee Joint", "submissionValue": "KNEE JOINT", "synonyms": ["Knee", "Tibiofemoral Joint"]}, {"conceptId": "C32899", "definition": "The first lumbar vertebra counting from the top down. (NCI)", "preferredTerm": "L1 Vertebra", "submissionValue": "L1 VERTEBRA", "synonyms": ["L1 Vertebra"]}, {"conceptId": "C32900", "definition": "The second lumbar vertebra counting from the top down. (NCI)", "preferredTerm": "L2 Vertebra", "submissionValue": "L2 VERTEBRA", "synonyms": ["L2 Vertebra"]}, {"conceptId": "C112327", "definition": "The space between the L2 and L3 vertebrae.", "preferredTerm": "L2-L3 Intervertebral Space", "submissionValue": "L2-L3 INTERVERTEBRAL SPACE"}, {"conceptId": "C32901", "definition": "The third lumbar vertebra counting from the top down. (NCI)", "preferredTerm": "L3 Vertebra", "submissionValue": "L3 VERTEBRA", "synonyms": ["L3 Vertebra"]}, {"conceptId": "C112328", "definition": "The space between the L3 and L4 vertebrae.", "preferredTerm": "L3-L4 Intervertebral Space", "submissionValue": "L3-L4 INTERVERTEBRAL SPACE"}, {"conceptId": "C32902", "definition": "The fourth lumbar vertebra counting from the top down. (NCI)", "preferredTerm": "L4 Vertebra", "submissionValue": "L4 VERTEBRA", "synonyms": ["L4 Vertebra"]}, {"conceptId": "C32903", "definition": "The fifth lumbar vertebra counting from the top down. (NCI)", "preferredTerm": "L5 Vertebra", "submissionValue": "L5 VERTEBRA", "synonyms": ["L5 Vertebra"]}, {"conceptId": "C120673", "definition": "A congenital anomaly of the spine, where an extra or supernumerary lumbar vertebra arises from below the 5th lumbar vertebra.", "preferredTerm": "Extra Lumbar Vertebra", "submissionValue": "L6 VERTEBRA"}, {"conceptId": "C32906", "definition": "A small rectangular thin plate forming part of the medial orbit wall. It is located posterior to the frontal process of the maxilla and articulates with the inferior nasal concha, ethmoid, frontal, and maxillary bones. (NCI)", "preferredTerm": "Lacrimal Bone", "submissionValue": "LACRIMAL BONE", "synonyms": ["Lacrimal Bone"]}, {"conceptId": "C12346", "definition": "Paired, almond-shaped exocrine glands situated superior and posterior to each orbit of the eye that produce and secrete the watery serous component of tears. (NCI)", "preferredTerm": "Lacrimal Gland", "submissionValue": "LACRIMAL GLAND"}, {"conceptId": "C102313", "definition": "The arteries that arise from the left anterior descending (LAD) artery that supply the interventricular septum.", "preferredTerm": "Left Anterior Descending Septal Perforator Artery", "submissionValue": "LAD SEPTAL PERFORATOR ARTERY", "synonyms": ["LAD SEPTAL PERFORATOR ARTERY SEGMENTS", "LAD SP"]}, {"conceptId": "C12379", "definition": "A muscular tube that extends from the end of the small intestine to the anus. (NCI)", "preferredTerm": "Large Intestine", "submissionValue": "LARGE INTESTINE", "synonyms": ["Large Intestine"]}, {"conceptId": "C12420", "definition": "The cartilaginous structure of the respiratory tract between the pharynx and the trachea. It contains elastic vocal cords required for sound production. (NCI)", "preferredTerm": "Larynx", "submissionValue": "LARYNX", "synonyms": ["Larynx"]}, {"conceptId": "C102307", "definition": "The lateral branch distal to a bifurcation of the first diagonal artery.", "preferredTerm": "Lateral First Diagonal Branch Artery", "submissionValue": "LATERAL FIRST DIAGONAL BRANCH ARTERY", "synonyms": ["LAT 1ST DIAG", "LATERAL FIRST DIAGONAL BRANCH ARTERY SEGMENT"]}, {"conceptId": "C102308", "definition": "The lateral branch distal to a bifurcation of the first obtuse marginal artery.", "preferredTerm": "Lateral First Obtuse Marginal Branch Artery", "submissionValue": "LATERAL FIRST OBTUSE MARGINAL BRANCH ARTERY", "synonyms": ["First Obtuse Marginal Lateral Branch", "LAT 1ST OM", "LATERAL FIRST OBTUSE MARGINAL BRANCH ARTERY SEGMENT"]}, {"conceptId": "C102309", "definition": "The lateral branch distal to a bifurcation of the ramus intermedius artery.", "preferredTerm": "Lateral Ramus Intermedius Artery", "submissionValue": "LATERAL RAMUS INTERMEDIUS ARTERY", "synonyms": ["LAT RAMUS", "LATERAL RAMUS INTERMEDIUS ARTERY SEGMENT"]}, {"conceptId": "C102310", "definition": "The lateral branch distal to a bifurcation of the second diagonal artery.", "preferredTerm": "Lateral Second Diagonal Branch Artery", "submissionValue": "LATERAL SECOND DIAGONAL BRANCH ARTERY", "synonyms": ["LAT 2ND DIAG", "LATERAL SECOND DIAGONAL BRANCH ARTERY SEGMENT"]}, {"conceptId": "C102311", "definition": "The lateral branch distal to a bifurcation of the second obtuse marginal artery.", "preferredTerm": "Lateral Second Obtuse Marginal Branch Artery", "submissionValue": "LATERAL SECOND OBTUSE MARGINAL BRANCH ARTERY", "synonyms": ["LAT 2ND OM", "LATERAL SECOND OBTUSE MARGINAL BRANCH ARTERY SEGMENT", "Second Obtuse Marginal Lateral Branch"]}, {"conceptId": "C102312", "definition": "The lateral branch distal to a bifurcation of the third diagonal artery.", "preferredTerm": "Lateral Third Diagonal Branch Artery", "submissionValue": "LATERAL THIRD DIAGONAL BRANCH ARTERY", "synonyms": ["LAT 3RD DIAG", "LATERAL THIRD DIAGONAL BRANCH ARTERY SEGMENT"]}, {"conceptId": "C102425", "definition": "The lateral branch distal to a bifurcation of the third obtuse marginal artery.", "preferredTerm": "Lateral Third Obtuse Marginal Branch Artery", "submissionValue": "LATERAL THIRD OBTUSE MARGINAL BRANCH ARTERY", "synonyms": ["LAT 3RD OM", "LATERAL THIRD OBTUSE MARGINAL BRANCH ARTERY SEGMENT", "Third Obtuse Marginal Lateral Branch"]}, {"conceptId": "C116175", "definition": "The opening of the left anterior descending coronary artery at its origin.", "preferredTerm": "Left Anterior Descending Artery Ostium", "submissionValue": "LEFT ANTERIOR DESCENDING ARTERY OSTIUM"}, {"conceptId": "C116177", "definition": "The first posterolateral branch originating from the posterior atrioventricular left circumflex artery in left dominant and mixed circulations.", "preferredTerm": "Left Atrioventricular Artery", "submissionValue": "LEFT ATRIOVENTRICULAR ARTERY"}, {"conceptId": "C116176", "definition": "The opening of the left circumflex artery at its origin.", "preferredTerm": "Left Circumflex Artery Ostium", "submissionValue": "LEFT CIRCUMFLEX ARTERY OSTIUM"}, {"conceptId": "C12874", "definition": "An artery arising from the bifurcation of the left coronary artery that runs along the coronary groove.", "preferredTerm": "Circumflex Branch of the Left Coronary Artery", "submissionValue": "LEFT CIRCUMFLEX CORONARY ARTERY"}, {"conceptId": "C116174", "definition": "The portion of the distal end of the left main coronary artery that branches into the left anterior descending artery and the left circumflex artery.", "preferredTerm": "Left Main Coronary Artery Bifurcation", "submissionValue": "LEFT MAIN CORONARY ARTERY BIFURCATION"}, {"conceptId": "C116173", "definition": "The segment of the left main coronary artery that is bounded by its ostium and bifurcation.", "preferredTerm": "Left Main Coronary Artery Body", "submissionValue": "LEFT MAIN CORONARY ARTERY BODY"}, {"conceptId": "C116172", "definition": "The opening of the left coronary artery at its origin.", "preferredTerm": "Left Main Coronary Artery Ostium", "submissionValue": "LEFT MAIN CORONARY ARTERY OSTIUM"}, {"conceptId": "C116178", "definition": "The second posterolateral branch originating from the posterior atrioventricular left circumflex artery in left dominant and mixed circulations.", "preferredTerm": "Left Posterior Descending Artery", "submissionValue": "LEFT POSTERIOR DESCENDING ARTERY"}, {"conceptId": "C102314", "definition": "In an individual with a left-dominant heart, this branch arises from the circumflex artery atrioventricular groove continuation and supplies the inferior apex of the heart.", "preferredTerm": "Left Posterolateral Descending Artery", "submissionValue": "LEFT POSTEROLATERAL DESCENDING ARTERY", "synonyms": ["LEFT POSTEROLATERAL DESCENDING ARTERY SEGMENT", "LPDA"]}, {"conceptId": "C127650", "definition": "The apical cap division of the left ventricular myocardium as determined using the AHA 17-Segment Model (Cerqueira MD, Weissman NJ, Dilsizian V, Jacobs AK, Kaul S, Laskey WK, Pennell DJ, Rumberger JA, Ryan T, Verani MS; American Heart Association Writing Group on Myocardial Segmentation and Registration for Cardiac Imaging. Standardized myocardial segmentation and nomenclature for tomographic imaging of the heart. A statement for healthcare professionals from the Cardiac Imaging Committee of the Council on Clinical Cardiology of the American Heart Association. Circulation. 2002 Jan 29;105(4):539-42.).", "preferredTerm": "Left Ventricular Apex Segment", "submissionValue": "LEFT VENTRICULAR APEX SEGMENT"}, {"conceptId": "C127651", "definition": "The anterior portion of the apical division of the left ventricular myocardium as determined using the AHA 17-Segment Model (Cerqueira MD, Weissman NJ, Dilsizian V, Jacobs AK, Kaul S, Laskey WK, Pennell DJ, Rumberger JA, Ryan T, Verani MS; American Heart Association Writing Group on Myocardial Segmentation and Registration for Cardiac Imaging. Standardized myocardial segmentation and nomenclature for tomographic imaging of the heart. A statement for healthcare professionals from the Cardiac Imaging Committee of the Council on Clinical Cardiology of the American Heart Association. Circulation. 2002 Jan 29;105(4):539-42.).", "preferredTerm": "Left Ventricular Apical Anterior Segment", "submissionValue": "LEFT VENTRICULAR APICAL ANTERIOR SEGMENT"}, {"conceptId": "C127652", "definition": "The inferior portion of the apical division of the left ventricular myocardium as determined using the AHA 17-Segment Model (Cerqueira MD, Weissman NJ, Dilsizian V, Jacobs AK, Kaul S, Laskey WK, Pennell DJ, Rumberger JA, Ryan T, Verani MS; American Heart Association Writing Group on Myocardial Segmentation and Registration for Cardiac Imaging. Standardized myocardial segmentation and nomenclature for tomographic imaging of the heart. A statement for healthcare professionals from the Cardiac Imaging Committee of the Council on Clinical Cardiology of the American Heart Association. Circulation. 2002 Jan 29;105(4):539-42.).", "preferredTerm": "Left Ventricular Apical Inferior Segment", "submissionValue": "LEFT VENTRICULAR APICAL INFERIOR SEGMENT"}, {"conceptId": "C127653", "definition": "The lateral portion of the apical division of the left ventricular myocardium as determined using the AHA 17-Segment Model (Cerqueira MD, Weissman NJ, Dilsizian V, Jacobs AK, Kaul S, Laskey WK, Pennell DJ, Rumberger JA, Ryan T, Verani MS; American Heart Association Writing Group on Myocardial Segmentation and Registration for Cardiac Imaging. Standardized myocardial segmentation and nomenclature for tomographic imaging of the heart. A statement for healthcare professionals from the Cardiac Imaging Committee of the Council on Clinical Cardiology of the American Heart Association. Circulation. 2002 Jan 29;105(4):539-42.).", "preferredTerm": "Left Ventricular Apical Lateral Segment", "submissionValue": "LEFT VENTRICULAR APICAL LATERAL SEGMENT"}, {"conceptId": "C127654", "definition": "The septal portion of the apical division of the left ventricular myocardium as determined using the AHA 17-Segment Model (Cerqueira MD, Weissman NJ, Dilsizian V, Jacobs AK, Kaul S, Laskey WK, Pennell DJ, Rumberger JA, Ryan T, Verani MS; American Heart Association Writing Group on Myocardial Segmentation and Registration for Cardiac Imaging. Standardized myocardial segmentation and nomenclature for tomographic imaging of the heart. A statement for healthcare professionals from the Cardiac Imaging Committee of the Council on Clinical Cardiology of the American Heart Association. Circulation. 2002 Jan 29;105(4):539-42.).", "preferredTerm": "Left Ventricular Apical Septal Segment", "submissionValue": "LEFT VENTRICULAR APICAL SEPTAL SEGMENT"}, {"conceptId": "C127655", "definition": "The anterior portion of the basal division of the left ventricular myocardium as determined using the AHA 17-Segment Model (Cerqueira MD, Weissman NJ, Dilsizian V, Jacobs AK, Kaul S, Laskey WK, Pennell DJ, Rumberger JA, Ryan T, Verani MS; American Heart Association Writing Group on Myocardial Segmentation and Registration for Cardiac Imaging. Standardized myocardial segmentation and nomenclature for tomographic imaging of the heart. A statement for healthcare professionals from the Cardiac Imaging Committee of the Council on Clinical Cardiology of the American Heart Association. Circulation. 2002 Jan 29;105(4):539-42.).", "preferredTerm": "Left Ventricular Basal Anterior Segment", "submissionValue": "LEFT VENTRICULAR BASAL ANTERIOR SEGMENT"}, {"conceptId": "C127656", "definition": "The anterolateral portion of the basal division of the left ventricular myocardium as determined using the AHA 17-Segment Model (Cerqueira MD, Weissman NJ, Dilsizian V, Jacobs AK, Kaul S, Laskey WK, Pennell DJ, Rumberger JA, Ryan T, Verani MS; American Heart Association Writing Group on Myocardial Segmentation and Registration for Cardiac Imaging. Standardized myocardial segmentation and nomenclature for tomographic imaging of the heart. A statement for healthcare professionals from the Cardiac Imaging Committee of the Council on Clinical Cardiology of the American Heart Association. Circulation. 2002 Jan 29;105(4):539-42.).", "preferredTerm": "Left Ventricular Basal Anterolateral Segment", "submissionValue": "LEFT VENTRICULAR BASAL ANTEROLATERAL SEGMENT"}, {"conceptId": "C127657", "definition": "The anteroseptal portion of the basal division of the left ventricular myocardium as determined using the AHA 17-Segment Model (Cerqueira MD, Weissman NJ, Dilsizian V, Jacobs AK, Kaul S, Laskey WK, Pennell DJ, Rumberger JA, Ryan T, Verani MS; American Heart Association Writing Group on Myocardial Segmentation and Registration for Cardiac Imaging. Standardized myocardial segmentation and nomenclature for tomographic imaging of the heart. A statement for healthcare professionals from the Cardiac Imaging Committee of the Council on Clinical Cardiology of the American Heart Association. Circulation. 2002 Jan 29;105(4):539-42.).", "preferredTerm": "Left Ventricular Basal Anteroseptal Segment", "submissionValue": "LEFT VENTRICULAR BASAL ANTEROSEPTAL SEGMENT"}, {"conceptId": "C127658", "definition": "The inferior portion of the basal division of the left ventricular myocardium as determined using the AHA 17-Segment Model (Cerqueira MD, Weissman NJ, Dilsizian V, Jacobs AK, Kaul S, Laskey WK, Pennell DJ, Rumberger JA, Ryan T, Verani MS; American Heart Association Writing Group on Myocardial Segmentation and Registration for Cardiac Imaging. Standardized myocardial segmentation and nomenclature for tomographic imaging of the heart. A statement for healthcare professionals from the Cardiac Imaging Committee of the Council on Clinical Cardiology of the American Heart Association. Circulation. 2002 Jan 29;105(4):539-42.).", "preferredTerm": "Left Ventricular Basal Inferior Segment", "submissionValue": "LEFT VENTRICULAR BASAL INFERIOR SEGMENT"}, {"conceptId": "C127659", "definition": "The inferolateral portion of the basal division of the left ventricular myocardium as determined using the AHA 17-Segment Model (Cerqueira MD, Weissman NJ, Dilsizian V, Jacobs AK, Kaul S, Laskey WK, Pennell DJ, Rumberger JA, Ryan T, Verani MS; American Heart Association Writing Group on Myocardial Segmentation and Registration for Cardiac Imaging. Standardized myocardial segmentation and nomenclature for tomographic imaging of the heart. A statement for healthcare professionals from the Cardiac Imaging Committee of the Council on Clinical Cardiology of the American Heart Association. Circulation. 2002 Jan 29;105(4):539-42.).", "preferredTerm": "Left Ventricular Basal Inferolateral Segment", "submissionValue": "LEFT VENTRICULAR BASAL INFEROLATERAL SEGMENT"}, {"conceptId": "C127660", "definition": "The inferoseptal portion of the basal division of the left ventricular myocardium as determined using the AHA 17-Segment Model (Cerqueira MD, Weissman NJ, Dilsizian V, Jacobs AK, Kaul S, Laskey WK, Pennell DJ, Rumberger JA, Ryan T, Verani MS; American Heart Association Writing Group on Myocardial Segmentation and Registration for Cardiac Imaging. Standardized myocardial segmentation and nomenclature for tomographic imaging of the heart. A statement for healthcare professionals from the Cardiac Imaging Committee of the Council on Clinical Cardiology of the American Heart Association. Circulation. 2002 Jan 29;105(4):539-42.).", "preferredTerm": "Left Ventricular Basal Inferoseptal Segment", "submissionValue": "LEFT VENTRICULAR BASAL INFEROSEPTAL SEGMENT"}, {"conceptId": "C102315", "definition": "The outermost layer of cardiac tissue lining of the left ventricle.", "preferredTerm": "Left Ventricular Epicardium", "submissionValue": "LEFT VENTRICULAR EPICARDIUM"}, {"conceptId": "C127661", "definition": "The anterior portion of the mid-cavity division of the left ventricular myocardium as determined using the AHA 17-Segment Model (Cerqueira MD, Weissman NJ, Dilsizian V, Jacobs AK, Kaul S, Laskey WK, Pennell DJ, Rumberger JA, Ryan T, Verani MS; American Heart Association Writing Group on Myocardial Segmentation and Registration for Cardiac Imaging. Standardized myocardial segmentation and nomenclature for tomographic imaging of the heart. A statement for healthcare professionals from the Cardiac Imaging Committee of the Council on Clinical Cardiology of the American Heart Association. Circulation. 2002 Jan 29;105(4):539-42.).", "preferredTerm": "Left Ventricular Mid Anterior Segment", "submissionValue": "LEFT VENTRICULAR MID ANTERIOR SEGMENT"}, {"conceptId": "C127662", "definition": "The anterolateral portion of the mid-cavity division of the left ventricular myocardium as determined using the AHA 17-Segment Model (Cerqueira MD, Weissman NJ, Dilsizian V, Jacobs AK, Kaul S, Laskey WK, Pennell DJ, Rumberger JA, Ryan T, Verani MS; American Heart Association Writing Group on Myocardial Segmentation and Registration for Cardiac Imaging. Standardized myocardial segmentation and nomenclature for tomographic imaging of the heart. A statement for healthcare professionals from the Cardiac Imaging Committee of the Council on Clinical Cardiology of the American Heart Association. Circulation. 2002 Jan 29;105(4):539-42.).", "preferredTerm": "Left Ventricular Mid Anterolateral Segment", "submissionValue": "LEFT VENTRICULAR MID ANTEROLATERAL SEGMENT"}, {"conceptId": "C127663", "definition": "The anteroseptal portion of the mid-cavity division of the left ventricular myocardium as determined using the AHA 17-Segment Model (Cerqueira MD, Weissman NJ, Dilsizian V, Jacobs AK, Kaul S, Laskey WK, Pennell DJ, Rumberger JA, Ryan T, Verani MS; American Heart Association Writing Group on Myocardial Segmentation and Registration for Cardiac Imaging. Standardized myocardial segmentation and nomenclature for tomographic imaging of the heart. A statement for healthcare professionals from the Cardiac Imaging Committee of the Council on Clinical Cardiology of the American Heart Association. Circulation. 2002 Jan 29;105(4):539-42.).", "preferredTerm": "Left Ventricular Mid Anteroseptal Segment", "submissionValue": "LEFT VENTRICULAR MID ANTEROSEPTAL SEGMENT"}, {"conceptId": "C127664", "definition": "The inferior portion of the mid-cavity division of the left ventricular myocardium as determined using the AHA 17-Segment Model (Cerqueira MD, Weissman NJ, Dilsizian V, Jacobs AK, Kaul S, Laskey WK, Pennell DJ, Rumberger JA, Ryan T, Verani MS; American Heart Association Writing Group on Myocardial Segmentation and Registration for Cardiac Imaging. Standardized myocardial segmentation and nomenclature for tomographic imaging of the heart. A statement for healthcare professionals from the Cardiac Imaging Committee of the Council on Clinical Cardiology of the American Heart Association. Circulation. 2002 Jan 29;105(4):539-42.).", "preferredTerm": "Left Ventricular Mid Inferior Segment", "submissionValue": "LEFT VENTRICULAR MID INFERIOR SEGMENT"}, {"conceptId": "C127665", "definition": "The inferolateral portion of the mid-cavity division of the left ventricular myocardium as determined using the AHA 17-Segment Model (Cerqueira MD, Weissman NJ, Dilsizian V, Jacobs AK, Kaul S, Laskey WK, Pennell DJ, Rumberger JA, Ryan T, Verani MS; American Heart Association Writing Group on Myocardial Segmentation and Registration for Cardiac Imaging. Standardized myocardial segmentation and nomenclature for tomographic imaging of the heart. A statement for healthcare professionals from the Cardiac Imaging Committee of the Council on Clinical Cardiology of the American Heart Association. Circulation. 2002 Jan 29;105(4):539-42.).", "preferredTerm": "Left Ventricular Mid Inferolateral Segment", "submissionValue": "LEFT VENTRICULAR MID INFEROLATERAL SEGMENT"}, {"conceptId": "C127666", "definition": "The inferoseptal portion of the mid-cavity division of the left ventricular myocardium as determined using the AHA 17-Segment Model (Cerqueira MD, Weissman NJ, Dilsizian V, Jacobs AK, Kaul S, Laskey WK, Pennell DJ, Rumberger JA, Ryan T, Verani MS; American Heart Association Writing Group on Myocardial Segmentation and Registration for Cardiac Imaging. Standardized myocardial segmentation and nomenclature for tomographic imaging of the heart. A statement for healthcare professionals from the Cardiac Imaging Committee of the Council on Clinical Cardiology of the American Heart Association. Circulation. 2002 Jan 29;105(4):539-42.).", "preferredTerm": "Left Ventricular Mid Inferoseptal Segment", "submissionValue": "LEFT VENTRICULAR MID INFEROSEPTAL SEGMENT"}, {"conceptId": "C32974", "definition": "One of the two lower extremities in humans used for locomotion and support. (NCI)", "preferredTerm": "Leg", "submissionValue": "LEG", "synonyms": ["Leg"]}, {"conceptId": "C52749", "definition": "The skin or integument surrounding the leg. (NCI)", "preferredTerm": "Leg Skin", "submissionValue": "LEG SKIN", "synonyms": ["Leg Skin"]}, {"conceptId": "C12743", "definition": "A biconvex transparent structure of the eye through which light is focused on the retina. The lens sits behind the iris and is supported by the zonule, which connects it to the ciliary body. The lens is an avascular structure. (NCI)", "preferredTerm": "Lens", "submissionValue": "LENS", "synonyms": ["Crystalline Lens", "Lens", "Lens Of Eye", "Ocular Lens"]}, {"conceptId": "C32979", "definition": "The two innermost layers of tissue that cover the brain and spinal cord, the arachnoid mater and the pia mater. (NCI)", "preferredTerm": "Leptomeninges", "submissionValue": "LEPTOMENINGES"}, {"conceptId": "C32982", "definition": "A cone-shaped projection in the shaft of the femur in which the iliopsoas muscle is attached. (NCI)", "preferredTerm": "Lesser Trochanter", "submissionValue": "LESSER TROCHANTER"}, {"conceptId": "C13046", "definition": "Band of fibrous tissue connecting bone to bone or cartilage to bone thereby supporting or strengthening a joint. (NCI)", "preferredTerm": "Ligament", "submissionValue": "LIGAMENT", "synonyms": ["Ligament"]}, {"conceptId": "C12429", "definition": "A body region referring to an upper or lower extremity. (NCI)", "preferredTerm": "Limb", "submissionValue": "LIMB", "synonyms": ["Extremities", "Limb"]}, {"conceptId": "C12742", "definition": "The limb that is composed of the hip, thigh, leg and foot. (NCI)", "preferredTerm": "Lower Extremity", "submissionValue": "LIMB, LOWER", "synonyms": ["Lower Extremity"]}, {"conceptId": "C12671", "definition": "The region of the body that extends distal to the scapulohumeral joint.", "preferredTerm": "Upper Extremity", "submissionValue": "LIMB, UPPER", "synonyms": ["Upper Extremity"]}, {"conceptId": "C40373", "definition": "A small tongue-like projection from the lower portion of the upper lobe of the left lung.", "preferredTerm": "Lingula of the Lung", "submissionValue": "LINGULA OF THE LUNG"}, {"conceptId": "C12220", "definition": "Fleshy fold which surrounds the opening of the mouth. (NCI)", "preferredTerm": "Lip", "submissionValue": "LIP", "synonyms": ["Lip"]}, {"conceptId": "C12222", "definition": "The external surface of the lower lip. (NCI)", "preferredTerm": "External Lower Lip", "submissionValue": "LIP, LOWER", "synonyms": ["External Lower Lip"]}, {"conceptId": "C12221", "definition": "The external surface of the upper lip. (NCI)", "preferredTerm": "External Upper Lip", "submissionValue": "LIP, UPPER", "synonyms": ["External Upper Lip"]}, {"conceptId": "C12392", "definition": "An abdominal organ that has variable lobation which are composed of hepatic lobules.", "preferredTerm": "Liver", "submissionValue": "LIVER"}, {"conceptId": "C32996", "definition": "A groove on the surface of the liver.", "preferredTerm": "Liver Fissure", "submissionValue": "LIVER FISSURE", "synonyms": ["Liver Fissure"]}, {"conceptId": "C33000", "definition": "The lobe of the liver situated posteriorly located between the left lobe and the inferior vena cava.", "preferredTerm": "Caudate Lobe", "submissionValue": "LIVER, CAUDATE LOBE"}, {"conceptId": "C32965", "definition": "The smaller lobe of the liver extending into the left side of the body.", "preferredTerm": "Left Lobe of the Liver", "submissionValue": "LIVER, LEFT LOBE"}, {"conceptId": "C112404", "definition": "An oblong shaped area of the liver that is situated inferior to the right lobe, bounded by the anterior margin of the liver and the porta hepatis.", "preferredTerm": "Quadrate Lobe of Liver", "submissionValue": "LIVER, QUADRATE LOBE"}, {"conceptId": "C33481", "definition": "The larger lobe of the liver extending into the right side of the body.", "preferredTerm": "Right Lobe of the Liver", "submissionValue": "LIVER, RIGHT LOBE"}, {"conceptId": "C97333", "definition": "A brainstem nucleus. It is the major brain site for the synthesis and secretion of norepinephrine. (NCI)", "preferredTerm": "Locus Coeruleus", "submissionValue": "LOCUS CERULEUS"}, {"conceptId": "C33012", "definition": "The part of the respiratory system below the bifurcation of the trachea. It includes the lungs and the parts of the lungs such as the bronchi, bronchioles and alveoli.", "preferredTerm": "Lower Respiratory System", "submissionValue": "LOWER RESPIRATORY SYSTEM"}, {"conceptId": "C34004", "definition": "The area of the body below the ribs and above the hipbones. (NCI)", "preferredTerm": "Lumbar Region", "submissionValue": "LUMBAR REGION"}, {"conceptId": "C69314", "definition": "The vertebrae located below the thoracic and above the sacral vertebrae.", "preferredTerm": "Lumbar Spine", "submissionValue": "LUMBAR SPINE"}, {"conceptId": "C12744", "definition": "Any of the vertebrae situated between the thoracic vertebrae and the sacrum in the lower part of the spine.", "preferredTerm": "Lumbar Vertebra", "submissionValue": "LUMBAR VERTEBRA", "synonyms": ["Lumbar Vertebra"]}, {"conceptId": "C12786", "definition": "The bone in the proximal row of carpal bones that lies between the scaphoid and triquetral bones. (NCI)", "preferredTerm": "Lunate Bone", "submissionValue": "LUNATE BONE", "synonyms": ["Lunate Bone"]}, {"conceptId": "C12468", "definition": "An organ of respiration occupying the pulmonary cavity of the thorax, in which aeration of the blood takes place.", "preferredTerm": "Lung", "submissionValue": "LUNG"}, {"conceptId": "C49282", "definition": "The wedge-shaped area at the central portion of the lung through which the bronchi, vessels and nerves enter or exit the organ. (NCI)", "preferredTerm": "Hilar Area of the Lung", "submissionValue": "LUNG, HILUM", "synonyms": ["Hilar Area of the Lung"]}, {"conceptId": "C32967", "definition": "The 2-lobed lung located on the left side of the body. (NCI)", "preferredTerm": "Left Lung", "submissionValue": "LUNG, LEFT", "synonyms": ["Left Lung"]}, {"conceptId": "C33020", "definition": "The larger lobe of the left lung, situated below and behind the oblique fissure. (NCI)", "preferredTerm": "Lower Lobe of the Left Lung", "submissionValue": "LUNG, LEFT LOWER LOBE", "synonyms": ["Lower Lobe of the Left Lung"]}, {"conceptId": "C33021", "definition": "The smaller lobe of the left lung, situated above and in front the oblique fissure, which includes the apex. (NCI)", "preferredTerm": "Upper Lobe of the Left Lung", "submissionValue": "LUNG, LEFT UPPER LOBE", "synonyms": ["Upper Lobe of the Left Lung"]}, {"conceptId": "C33483", "definition": "The 3-lobed lung located on the right side of the body. (NCI)", "preferredTerm": "Right Lung", "submissionValue": "LUNG, RIGHT", "synonyms": ["Right Lung"]}, {"conceptId": "C33022", "definition": "The lobe of the right lung situated below the oblique fissure. (NCI)", "preferredTerm": "Lower Lobe of the Right Lung", "submissionValue": "LUNG, RIGHT LOWER LOBE", "synonyms": ["Lower Lobe of the Right Lung"]}, {"conceptId": "C12286", "definition": "The smallest lobe of the right lung, situated above the oblique fissure and below the horizontal fissure. (NCI)", "preferredTerm": "Middle Lobe of the Right Lung", "submissionValue": "LUNG, RIGHT MIDDLE LOBE", "synonyms": ["Middle Lobe of the Right Lung"]}, {"conceptId": "C33023", "definition": "The lobe of the right lung, situated above the horizontal fissure, which includes the apex. (NCI)", "preferredTerm": "Upper Lobe of the Right Lung", "submissionValue": "LUNG, RIGHT UPPER LOBE", "synonyms": ["Upper Lobe of the Right Lung"]}, {"conceptId": "C12745", "definition": "A bean-shaped organ surrounded by a connective tissue capsule. It is part of the lymphatic system and is found through out the body. It is composed predominantly of lymphocytes and its main function is immune protection. (NCI)", "preferredTerm": "Lymph Node", "submissionValue": "LYMPH NODE", "synonyms": ["Lymph Node", "Lymphatic Gland"]}, {"conceptId": "C33031", "definition": "The concave side of the lymph node. (NCI)", "preferredTerm": "Lymph Node Hilum", "submissionValue": "LYMPH NODE HILUM", "synonyms": ["Lymph Node Hilum"]}, {"conceptId": "C32968", "definition": "One of the two main bronchi. It is narrower but longer than the right main bronchus and connects to the left lung. (NCI)", "preferredTerm": "Left Main Bronchus", "submissionValue": "MAIN BRONCHUS, LEFT", "synonyms": ["Left Main Bronchus"]}, {"conceptId": "C33486", "definition": "One of the two main bronchi. It is wider but shorter than the left main bronchus and connects to the right lung. (NCI)", "preferredTerm": "Right Main Bronchus", "submissionValue": "MAIN BRONCHUS, RIGHT", "synonyms": ["Right Main Bronchus"]}, {"conceptId": "C61599", "definition": "Male internal and external organs of reproduction.", "preferredTerm": "Male Genitalia", "submissionValue": "MALE GENITALIA", "synonyms": ["Male Genitalia"]}, {"conceptId": "C12722", "definition": "The sex organs of the male.", "preferredTerm": "Male Reproductive System", "submissionValue": "MALE REPRODUCTIVE SYSTEM"}, {"conceptId": "C33051", "definition": "A hammer-shaped bone, part of three interconnected small bones located in the middle ear. It is attached to the inner surface of the tympanic membrane and its function is to transmit sound vibrations. (NCI)", "preferredTerm": "Malleus", "submissionValue": "MALLEUS", "synonyms": ["Malleus"]}, {"conceptId": "C12367", "definition": "Lactiferous glands consisting of fibrous tissue connecting the lobes and fatty tissue in between the lobes.", "preferredTerm": "Mammary Gland", "submissionValue": "MAMMARY GLAND"}, {"conceptId": "C12290", "definition": "The lower jaw bone holding the lower teeth. (NCI)", "preferredTerm": "Mandible", "submissionValue": "MANDIBLE", "synonyms": ["Bone, Mandibular", "Inferior Maxillary Bone", "Lower Jaw", "Mandible"]}, {"conceptId": "C12503", "definition": "A honeycombed section of bone located near the base of the skull, protruding behind the outer ear. It is connected to the middle ear. (NCI)", "preferredTerm": "Mastoid Process", "submissionValue": "MASTOID PROCESS", "synonyms": ["Mastoid Process"]}, {"conceptId": "C26470", "definition": "The upper jawbone in vertebrates: it is fused to the cranium. (NCI)", "preferredTerm": "Maxilla", "submissionValue": "MAXILLA", "synonyms": ["Maxilla"]}, {"conceptId": "C12275", "definition": "A pyramidal-shaped, thin-walled, air-filled cavity located in the maxilla. It is lined by mucus membrane and periosteum (mucoperiosteum) which contains cilia. It is adjacent to the nasal cavity and communicates with the middle meatus of the nose. It is the largest paranasal sinus and is composed of three recesses: alveolar, zygomatic, and infraorbital. (NCI)", "preferredTerm": "Maxillary Sinus", "submissionValue": "MAXILLARY SINUS", "synonyms": ["Maxillary Sinus"]}, {"conceptId": "C103417", "definition": "A lymph node located in the median or lower region of the neck. (NCI)", "preferredTerm": "Median Or Lower Cervical Lymph Node", "submissionValue": "MEDIAN OR LOWER CERVICAL LYMPH NODE"}, {"conceptId": "C33073", "definition": "A lymph node located in the mediastinum. Mediastinal lymph nodes are arranged in three groups, one on the lateral, another on the medial, and a third on the anterior aspect of the vessels; the third group is, however, sometimes absent. (NCI)", "preferredTerm": "Mediastinal Lymph Node", "submissionValue": "MEDIASTINAL LYMPH NODE", "synonyms": ["Mediastinal Lymph Node"]}, {"conceptId": "C12748", "definition": "A group of organs surrounded by loose connective tissue, separating the two pleural sacs, between the sternum anteriorly and the vertebral column posteriorly as well as from the thoracic inlet superiorly to the diaphragm inferiorly. The mediastinum contains the heart and pericardium, the bases of the great vessels, the trachea and bronchi, esophagus, thymus, lymph nodes, thoracic duct, phrenic and vagus nerves, and other structures and tissues. (NCI)", "preferredTerm": "Mediastinum", "submissionValue": "MEDIASTINUM", "synonyms": ["Mediastinum"]}, {"conceptId": "C32098", "definition": "The area between the lungs; it contains the thymus, some lymph nodes, and vessels and branches of the internal thoracic artery. (NCI)", "preferredTerm": "Anterior Mediastinum", "submissionValue": "MEDIASTINUM, ANTERIOR", "synonyms": ["Anterior Mediastinum"]}, {"conceptId": "C33123", "definition": "The broadest part of the lower portion of the mediastinum. It contains the heart and the great vessels. (NCI)", "preferredTerm": "Middle Mediastinum", "submissionValue": "MEDIASTINUM, MIDDLE", "synonyms": ["Middle Mediastinum"]}, {"conceptId": "C33368", "definition": "The part of the lower portion of the mediastinum that is located behind the pericardium. (NCI)", "preferredTerm": "Posterior Mediastinum", "submissionValue": "MEDIASTINUM, POSTERIOR", "synonyms": ["Posterior Mediastinum"]}, {"conceptId": "C33684", "definition": "The part of the mediastinum that is located between the upper part of the sternum in the front and the upper thoracic vertebrae in the back. (NCI)", "preferredTerm": "Superior Mediastinum", "submissionValue": "MEDIASTINUM, SUPERIOR", "synonyms": ["Superior Mediastinum"]}, {"conceptId": "C12442", "definition": "The lower portion of the brainstem located between the pons and brainstem. This structure contains several descending and ascending tracts, lower cranial nerve nuclei, a significant proportion of the reticular system of the brainstem and other structures. (NCI)", "preferredTerm": "Medulla Oblongata", "submissionValue": "MEDULLA OBLONGATA", "synonyms": ["Medulla Oblongata"]}, {"conceptId": "C12348", "definition": "Any one of three membranes that surround the brain and spinal cord. (NCI)", "preferredTerm": "Meninges", "submissionValue": "MENINGES"}, {"conceptId": "C52975", "definition": "A branch of the abdominal aorta that supplies blood to the intestines. (NCI)", "preferredTerm": "Mesenteric Artery", "submissionValue": "MESENTERIC ARTERY"}, {"conceptId": "C77641", "definition": "A lymph node located in the mesentery. (NCI)", "preferredTerm": "Mesenteric Lymph Node", "submissionValue": "MESENTERIC LYMPH NODE"}, {"conceptId": "C33103", "definition": "A double layer of peritoneum that attaches to the back wall of the abdominal cavity and supports the small intestines. (NCI)", "preferredTerm": "Mesentery", "submissionValue": "MESENTERY"}, {"conceptId": "C127667", "definition": "The proximal end of the first metacarpal bone.", "preferredTerm": "Metacarpal 1 Base", "submissionValue": "METACARPAL 1 BASE"}, {"conceptId": "C12751", "definition": "Any of the five bones between the wrist and the fingers that form the skeleton of the palm. (NCI)", "preferredTerm": "Metacarpal Bone", "submissionValue": "METACARPAL BONE"}, {"conceptId": "C102316", "definition": "A condyloid synovial joint within the first digit of the hand connecting the metacarpal to the proximal phalanx.", "preferredTerm": "Metacarpophalangeal Joint 1", "submissionValue": "METACARPOPHALANGEAL JOINT 1", "synonyms": ["MCP1"]}, {"conceptId": "C102317", "definition": "A condyloid synovial joint within the second digit of the hand connecting the metacarpal to the proximal phalanx.", "preferredTerm": "Metacarpophalangeal Joint 2", "submissionValue": "METACARPOPHALANGEAL JOINT 2", "synonyms": ["MCP2"]}, {"conceptId": "C102318", "definition": "A condyloid synovial joint within the third digit of the hand connecting the metacarpal to the proximal phalanx.", "preferredTerm": "Metacarpophalangeal Joint 3", "submissionValue": "METACARPOPHALANGEAL JOINT 3", "synonyms": ["MCP3"]}, {"conceptId": "C102319", "definition": "A condyloid synovial joint within the fourth digit of the hand connecting the metacarpal to the proximal phalanx.", "preferredTerm": "Metacarpophalangeal Joint 4", "submissionValue": "METACARPOPHALANGEAL JOINT 4", "synonyms": ["MCP4"]}, {"conceptId": "C102320", "definition": "A condyloid synovial joint within the fifth digit of the hand connecting the metacarpal to the proximal phalanx.", "preferredTerm": "Metacarpophalangeal Joint 5", "submissionValue": "METACARPOPHALANGEAL JOINT 5", "synonyms": ["MCP5"]}, {"conceptId": "C12752", "definition": "A bone belonging to the middle part of the foot located between toes and ankle. There are 5 metatarsal bones and they are numbered from the medial side. (NCI)", "preferredTerm": "Metatarsal Bone", "submissionValue": "METATARSAL BONE", "synonyms": ["Metatarsal Bone"]}, {"conceptId": "C33108", "definition": "A spheroid joint located between the heads of the metatarsal bone and the base of the proximal phalanx of the toe. (NCI)", "preferredTerm": "Metatarsophalangeal Joint", "submissionValue": "METATARSOPHALANGEAL JOINT", "synonyms": ["Metatarsophalangeal Joint"]}, {"conceptId": "C102321", "definition": "A condyloid synovial joint within the first digit of the foot connecting metatarsal with the proximal phalanx.", "preferredTerm": "Metatarsophalangeal Joint 1", "submissionValue": "METATARSOPHALANGEAL JOINT 1", "synonyms": ["MTP1"]}, {"conceptId": "C102322", "definition": "A condyloid synovial joint within the second digit of the foot connecting metatarsal with the proximal phalanx.", "preferredTerm": "Metatarsophalangeal Joint 2", "submissionValue": "METATARSOPHALANGEAL JOINT 2", "synonyms": ["MTP2"]}, {"conceptId": "C102323", "definition": "A condyloid synovial joint within the third digit of the foot connecting metatarsal with the proximal phalanx.", "preferredTerm": "Metatarsophalangeal Joint 3", "submissionValue": "METATARSOPHALANGEAL JOINT 3", "synonyms": ["MTP3"]}, {"conceptId": "C102324", "definition": "A condyloid synovial joint within the fourth digit of the foot connecting metatarsal with the proximal phalanx.", "preferredTerm": "Metatarsophalangeal Joint 4", "submissionValue": "METATARSOPHALANGEAL JOINT 4", "synonyms": ["MTP4"]}, {"conceptId": "C102325", "definition": "A condyloid synovial joint within the fifth digit of the foot connecting metatarsal with the proximal phalanx.", "preferredTerm": "Metatarsophalangeal Joint 5", "submissionValue": "METATARSOPHALANGEAL JOINT 5", "synonyms": ["MTP5"]}, {"conceptId": "C102326", "definition": "The segment of the left circumflex artery between the first and second marginal branches.", "preferredTerm": "Mid-Circumflex Artery", "submissionValue": "MID-CIRCUMFLEX ARTERY", "synonyms": ["MCIRC", "MID-CIRCUMFLEX ARTERY SEGMENT"]}, {"conceptId": "C102328", "definition": "The segment of the left anterior descending (LAD) artery between the first and third diagonal branches.", "preferredTerm": "Mid-Left Anterior Descending Artery", "submissionValue": "MID-LAD ARTERY", "synonyms": ["MID-LAD ARTERY SEGMENT", "MLAD"]}, {"conceptId": "C102329", "definition": "The section of the right coronary artery between the right ventricular artery and the acute marginal artery.", "preferredTerm": "Mid-Right Coronary Artery Conduit", "submissionValue": "MID-RIGHT CORONARY ARTERY CONDUIT", "synonyms": ["MID-RIGHT CORONARY ARTERY CONDUIT SEGMENT", "MRCA", "Mid-right Coronary Artery"]}, {"conceptId": "C102327", "definition": "All of the arterial branches distal to the proximal left anterior descending coronary artery.", "preferredTerm": "Mid-Distal Left Anterior Descending Coronary Artery and All Diagonal Coronary Branches", "submissionValue": "MID/DISTAL LEFT ANTERIOR DESCENDING CORONARY ARTERY AND ALL DIAGONAL CORONARY BRANCHES"}, {"conceptId": "C12510", "definition": "The uppermost portion of the brainstem located between the pons and the diencephalon. The midbrain contains the cerebral peduncles, oculomotor, trochlear and red nuclei, substantia nigra and various other nuclei and tracts. (NCI)", "preferredTerm": "Mesencephalon", "submissionValue": "MIDBRAIN", "synonyms": ["Mesencephalon", "Midbrain"]}, {"conceptId": "C12274", "definition": "The part of the ear including the eardrum and ossicles. The middle ear leads to the inner ear. (NCI)", "preferredTerm": "Middle Ear", "submissionValue": "MIDDLE EAR", "synonyms": ["Middle Ear"]}, {"conceptId": "C12753", "definition": "A dual-flap valve of the heart that regulates the flow of blood between the left atrium and the left ventricle of the heart. (NCI)", "preferredTerm": "Mitral Valve", "submissionValue": "MITRAL VALVE"}, {"conceptId": "C127306", "definition": "A fibrous membrane that attaches to, and provides support for, the mitral valve leaflets.", "preferredTerm": "Mitral Valve Annulus", "submissionValue": "MITRAL VALVE ANNULUS"}, {"conceptId": "C127668", "definition": "The portion of the mitral valve annulus that attaches to the anterior mitral valve leaflet.", "preferredTerm": "Anterior Annulus of the Mitral Valve", "submissionValue": "MITRAL VALVE, ANTERIOR ANNULUS", "synonyms": ["Mitral Valve, Anteroseptal Annulus"]}, {"conceptId": "C127669", "definition": "The cusp of the mitral valve that is anchored to the aortic-mitral curtain.", "preferredTerm": "Anterior Cusp of the Mitral Valve", "submissionValue": "MITRAL VALVE, ANTERIOR CUSP"}, {"conceptId": "C127670", "definition": "The portion of the mitral valve annulus that attaches to the posterior mitral valve leaflet.", "preferredTerm": "Posterior Annulus of the Mitral Valve", "submissionValue": "MITRAL VALVE, POSTERIOR ANNULUS", "synonyms": ["Mitral Valve, Posterolateral Annulus"]}, {"conceptId": "C127671", "definition": "The cusp of the mitral valve that is located posterior to the two commissures, and which has no attachment to the aortic root.", "preferredTerm": "Posterior Cusp of the Mitral Valve", "submissionValue": "MITRAL VALVE, POSTERIOR CUSP"}, {"conceptId": "C97339", "definition": "A brain region that is located in the dorsal part of the precentral gyrus. (NCI)", "preferredTerm": "Primary Motor Cortex", "submissionValue": "MOTOR CORTEX"}, {"conceptId": "C13166", "definition": "The moist, inner lining of some organs and body cavities (such as the nose, mouth, lungs, and stomach). Glands in the mucosa make mucus (a thick, slippery fluid).", "preferredTerm": "Mucosa", "submissionValue": "MUCOSA", "synonyms": ["Mucosa", "Mucous Membrane"]}, {"conceptId": "C12226", "definition": "The lining of the fleshy folds surrounding the mouth. It is comprised of the epithelium, basement membrane, lamina propria mucosae, and lamina muscularis mucosae. (NCI)", "preferredTerm": "Mucosa of the Lip", "submissionValue": "MUCOSA OF THE LIP"}, {"conceptId": "C13056", "definition": "A fibrous soft tissue with the ability to contract to produce force and motion.", "preferredTerm": "Muscle", "submissionValue": "MUSCLE"}, {"conceptId": "C12314", "definition": "The smooth muscle lining the uterus. (NCI)", "preferredTerm": "Myometrium", "submissionValue": "MYOMETRIUM", "synonyms": ["Myometrium"]}, {"conceptId": "C33156", "definition": "The cutaneous plate on the dorsal surface of the distal end of a finger or toe. (NCI)", "preferredTerm": "Nail", "submissionValue": "NAIL", "synonyms": ["Nail"]}, {"conceptId": "C33157", "definition": "One of two small oblong bones placed side by side at the middle and upper part of the face. (NCI)", "preferredTerm": "Nasal Bone", "submissionValue": "NASAL BONE", "synonyms": ["Nasal Bone"]}, {"conceptId": "C12424", "definition": "The proximal portion of the respiratory passages on either side of the nasal septum lying between the floor of the cranium and the roof of the mouth and extending from the face to the pharynx. The nasal cavity is lined with ciliated mucosa, extending from the nares to the pharynx. (NCI)", "preferredTerm": "Nasal Cavity", "submissionValue": "NASAL CAVITY", "synonyms": ["Nasal Cavity"]}, {"conceptId": "C33160", "definition": "The thin wall between the two nasal cavities. (NCI)", "preferredTerm": "Nasal Septum", "submissionValue": "NASAL SEPTUM", "synonyms": ["Nasal Septum"]}, {"conceptId": "C12423", "definition": "The part of the pharynx in the back of the throat, at and above the soft palate. The nasopharynx is continuous with the nasal passages. (NCI)", "preferredTerm": "Nasopharynx", "submissionValue": "NASOPHARYNX", "synonyms": ["Nasopharynx"]}, {"conceptId": "C33162", "definition": "An oval-shaped bone of the tarsus found on the medial side of the foot. (NCI)", "preferredTerm": "Navicular Bone", "submissionValue": "NAVICULAR BONE", "synonyms": ["Navicular Bone"]}, {"conceptId": "C13063", "definition": "The region that connects the head to the rest of the body. (NCI)", "preferredTerm": "Neck", "submissionValue": "NECK", "synonyms": ["Neck"]}, {"conceptId": "C12466", "definition": "A bundle of fibers that transmits electrochemical impulses encoding sensory and motor information from one body part to another.", "preferredTerm": "Nerve", "submissionValue": "NERVE"}, {"conceptId": "C12299", "definition": "The pigmented protuberance on the surface of the breast through which milk is drawn from the breast. (NCI)", "preferredTerm": "Nipple", "submissionValue": "NIPPLE", "synonyms": ["Nipple"]}, {"conceptId": "C12756", "definition": "A structure of special sense serving as an organ of the sense of smell and as an entrance to the respiratory tract. (NCI)", "preferredTerm": "Nose", "submissionValue": "NOSE", "synonyms": ["Nose"]}, {"conceptId": "C33178", "definition": "One of the two channels of the nose, from the point where they divide to the external opening. (NCI)", "preferredTerm": "Nostril", "submissionValue": "NOSTRIL", "synonyms": ["Nostril"]}, {"conceptId": "C97342", "definition": "A brain structure that is part of the septal nuclear complex. It is connected with the hippocampus, hypothalamus and amygdala.", "preferredTerm": "Nucleus of Diagonal Band", "submissionValue": "NUCLEUS OF DIAGONAL BAND", "synonyms": ["BASAL NUCLEUS/DIAGONAL BAND"]}, {"conceptId": "C12355", "definition": "The posterior part of the cerebral hemisphere. (MeSH)", "preferredTerm": "Occipital Lobe", "submissionValue": "OCCIPITAL LOBE"}, {"conceptId": "C98188", "definition": "A lymph node located in the back of the head adjacent to the trapezius muscle.", "preferredTerm": "Occipital Lymph Node", "submissionValue": "OCCIPITAL LYMPH NODE"}, {"conceptId": "C103456", "definition": "The occipital region of the skin that covers the top of the head. (NCI)", "preferredTerm": "Occipital Scalp", "submissionValue": "OCCIPITAL SCALP"}, {"conceptId": "C12758", "definition": "The third cranial nerve.", "preferredTerm": "Oculomotor Nerve", "submissionValue": "OCULOMOTOR NERVE"}, {"conceptId": "C33794", "definition": "The tissue that forms the tooth. It consists of the dental pulp, dentin, enamel, cementum, odontogenic epithelium, and periodontium. (NCI)", "preferredTerm": "Odontogenic Tissue", "submissionValue": "ODONTOGENIC TISSUE", "synonyms": ["Teeth"]}, {"conceptId": "C33200", "definition": "A prominence at the proximal end of the ulna. It forms the tip of the elbow. (NCI)", "preferredTerm": "Olecranon", "submissionValue": "OLECRANON", "synonyms": ["Olecranon"]}, {"conceptId": "C28401", "definition": "Anatomical structure located in the vertebral forebrain that receives neural input regarding odors that have been detected by cells within the nasal cavity. The axons of olfactory receptor cells extend into the olfactory bulb. (NCI)", "preferredTerm": "Olfactory Bulb", "submissionValue": "OLFACTORY BULB", "synonyms": ["Olfactory Bulb"]}, {"conceptId": "C33205", "definition": "The part of the nasal mucosa composed of neuroepithelial tissue and mucus-producing Bowman's glands. The mucus moistens the epithelium and helps dissolve odor-containing gases. (NCI)", "preferredTerm": "Olfactory Mucosa", "submissionValue": "OLFACTORY MUCOSA", "synonyms": ["Olfactory Mucosa"]}, {"conceptId": "C12759", "definition": "The first cranial nerve.", "preferredTerm": "Olfactory Nerve", "submissionValue": "OLFACTORY NERVE"}, {"conceptId": "C33209", "definition": "A fold of peritoneum originating at the stomach and supporting the viscera. (NCI)", "preferredTerm": "Omentum", "submissionValue": "OMENTUM", "synonyms": ["Omental Fat"]}, {"conceptId": "C33216", "definition": "An artery arising from the internal carotid artery that branches into two groups of vessels; the orbital group that supplies the orbit and surrounding parts and the ocular group that supplies the globe and muscles of the eye.", "preferredTerm": "Ophthalmic Artery", "submissionValue": "OPHTHALMIC ARTERY"}, {"conceptId": "C12760", "definition": "A portion of the retina at which the axons of the ganglion cells exit the eyeball to form the optic nerve. No light-sensitive photoreceptors are contained within this portion of the retina. (NCI)", "preferredTerm": "Optic Disc", "submissionValue": "OPTIC DISC", "synonyms": ["Optic Nerve Head", "Optic Papilla", "Second Cranial Nerve"]}, {"conceptId": "C12761", "definition": "The second cranial nerve. (NCI)", "preferredTerm": "Optic Nerve", "submissionValue": "OPTIC NERVE", "synonyms": ["Optic Nerve"]}, {"conceptId": "C12421", "definition": "The cavity located at the upper end of the alimentary canal, behind the teeth and gums that is bounded on the outside by the lips, above by the hard and soft palates and below by the tongue. (NCI)", "preferredTerm": "Oral Cavity", "submissionValue": "ORAL CAVITY", "synonyms": ["Mouth", "Oral Cavity"]}, {"conceptId": "C77637", "definition": "Moist tissue lining the oral cavity, containing mucus secreting glands.", "preferredTerm": "Oral Mucosa", "submissionValue": "ORAL MUCOSA"}, {"conceptId": "C12347", "definition": "The bony cavity of the skull which contains the eye, anterior portion of the optic nerve, ocular muscles and ocular adnexa. Seven bones contribute to the structure of the orbit: the frontal, maxillary, zygomatic, sphenoid, lacrimal, ethmoid, and palatine bones. (NCI)", "preferredTerm": "Orbit", "submissionValue": "ORBIT", "synonyms": ["Eye Socket", "Ocular Orbit", "Orbit", "Orbital Cavity"]}, {"conceptId": "C12762", "definition": "The part of the pharynx between the soft palate and the upper portion of the epiglottis. (NCI)", "preferredTerm": "Oropharynx", "submissionValue": "OROPHARYNX"}, {"conceptId": "C12404", "definition": "One of the paired female reproductive glands containing the ova or germ cells; the ovary's stroma is a vascular connective tissue containing numbers of ovarian follicles enclosing the ova. (NCI)", "preferredTerm": "Ovary", "submissionValue": "OVARY", "synonyms": ["Ovary"]}, {"conceptId": "C52745", "definition": "An irregularly shaped bone positioned at the back part of the nasal cavity between the maxilla and the pterygoid process of the sphenoid. It forms the posterior part of the hard palate and the lateral wall of the nasal fossa and helps to form the floor of the orbit as well as several adjoining parts. (NCI)", "preferredTerm": "Palatine Bone", "submissionValue": "PALATINE BONE", "synonyms": ["Palatine Bone"]}, {"conceptId": "C33252", "definition": "The undersurface of the hand. (NCI)", "preferredTerm": "Palmar Region", "submissionValue": "PALM"}, {"conceptId": "C12393", "definition": "An organ located adjacent to the stomach that contains both exocrine and endocrine tissue.", "preferredTerm": "Pancreas", "submissionValue": "PANCREAS"}, {"conceptId": "C12270", "definition": "The part of the pancreas from the point where it crosses the portal vein to the point where it enters the lienorenal ligament. (NCI)", "preferredTerm": "Body of the Pancreas", "submissionValue": "PANCREAS, BODY", "synonyms": ["Body of the Pancreas"]}, {"conceptId": "C12608", "definition": "The pancreatic tissue that contains the islets of Langerhans. It is responsible for the production and secretions of the pancreatic hormones. (NCI)", "preferredTerm": "Islet of Langerhans", "submissionValue": "PANCREAS, ENDOCRINE", "synonyms": ["Endocrine Pancreas"]}, {"conceptId": "C32546", "definition": "An enzyme producing region of the pancreatic tissue containing the pancreatic acini and exocrine intralobular ducts which collectively secrete the digestive enzymes into the main pancreatic duct to drain into the duodenal part of the small intestine. (NCI)", "preferredTerm": "Exocrine Pancreas", "submissionValue": "PANCREAS, EXOCRINE", "synonyms": ["Exocrine Pancreas"]}, {"conceptId": "C12269", "definition": "That portion of the pancreas lying in the concavity of the duodenum. (NCI)", "preferredTerm": "Head of the Pancreas", "submissionValue": "PANCREAS, HEAD", "synonyms": ["Head of the Pancreas"]}, {"conceptId": "C12271", "definition": "The left extremity of the pancreas within the lienorenal ligament. (NCI)", "preferredTerm": "Tail of the Pancreas", "submissionValue": "PANCREAS, TAIL", "synonyms": ["Tail of the Pancreas"]}, {"conceptId": "C77643", "definition": "A lymph node located adjacent to the lumbar region of the spine. (NCI)", "preferredTerm": "Paraaortic Lymph Node", "submissionValue": "PARA-AORTIC LYMPH NODE", "synonyms": ["Lymph Node, Para-Aortic"]}, {"conceptId": "C117869", "definition": "A lymph node located adjacent to the lumbar region of the spine, along the right lateral aspect of the inferior vena cava. (NCI)", "preferredTerm": "Paracaval Lymph Node", "submissionValue": "PARACAVAL LYMPH NODE"}, {"conceptId": "C12320", "definition": "The subserous connective tissue of the pelvic floor of the supracervical portion of the uterus. The parametrium extends laterally between the layers of the broad ligament. (NCI)", "preferredTerm": "Parametrium", "submissionValue": "PARAMETRIUM", "synonyms": ["Parametrium"]}, {"conceptId": "C12763", "definition": "An air-filled cavity adjacent to the nasal cavity lined by a mucous membrane and located in the bones of the skull. There are four paranasal sinuses on each side of the face: ethmoid, frontal, maxillary, and sphenoid sinus. (NCI)", "preferredTerm": "Paranasal Sinus", "submissionValue": "PARANASAL SINUS", "synonyms": ["Accessory Sinuses", "Nasal Cavity", "Nasal Sinuses", "Paranasal Sinus"]}, {"conceptId": "C52557", "definition": "A usually small autonomic ganglion of the parasympathetic nervous system. The majority are located near or in the organs that they innervate. (NCI)", "preferredTerm": "Parasympathetic Ganglion", "submissionValue": "PARASYMPATHETIC GANGLIA"}, {"conceptId": "C12765", "definition": "One of two small paired endocrine glands, superior and inferior, usually found embedded in the connective tissue capsule on the posterior surface of the thyroid gland; these glands secrete parathyroid hormone that regulates the metabolism of calcium and phosphorus. The parenchyma is composed of chief and oxyphilic cells arranged in anastomosing cords. (NCI)", "preferredTerm": "Parathyroid Gland", "submissionValue": "PARATHYROID GLAND"}, {"conceptId": "C103426", "definition": "A lymph node located adjacent to the trachea within the mediastinum. (NCI)", "preferredTerm": "Paratracheal Lymph Node", "submissionValue": "PARATRACHEAL LYMPH NODE"}, {"conceptId": "C97925", "definition": "A cluster of neuronal cell bodies and their dendrites located just ventral and lateral to the spinal cord that give rise to the sympathetic nervous system.", "preferredTerm": "Para-Spinal Ganglion", "submissionValue": "PARAVERTEBRAL GANGLIA"}, {"conceptId": "C12354", "definition": "One of the lobes of the cerebral hemisphere located superiorly to the occipital lobe and posteriorly to the frontal lobe. Cognition and visuospatial processing are its main function. (NCI)", "preferredTerm": "Parietal Lobe", "submissionValue": "PARIETAL LOBE", "synonyms": ["Parietal Lobe"]}, {"conceptId": "C12427", "definition": "The largest of the three paired salivary glands, located in front of the ear. (NCI)", "preferredTerm": "Parotid Gland", "submissionValue": "PAROTID GLAND", "synonyms": ["Parotid Gland"]}, {"conceptId": "C33278", "definition": "A lymph node located close to, on, or within the parotid gland. (NCI)", "preferredTerm": "Parotid Gland Lymph Node", "submissionValue": "PAROTID GLAND LYMPH NODE", "synonyms": ["Parotid Gland Lymph Node"]}, {"conceptId": "C97341", "definition": "A part of the substantia nigra. The pars compacta nerve cells contain melanin and are involved in motor control. (NCI)", "preferredTerm": "Pars Compacta", "submissionValue": "PARS COMPACTA"}, {"conceptId": "C33282", "definition": "A small flat triangular bone in front of the knee that articulates with the femur and protects the knee joint. (NCI)", "preferredTerm": "Patella", "submissionValue": "PATELLA", "synonyms": ["Patella"]}, {"conceptId": "C33287", "definition": "The caudal portion of the trunk, bounded anteriorly and laterally by the two hip bones incorporating the socket portion of the hip joint for each leg. Posteriorly it is bounded by the sacrum and coccyx. (NCI)", "preferredTerm": "Pelvic Bone", "submissionValue": "PELVIC BONE", "synonyms": ["Pelvic Bone", "Pelvis Bone"]}, {"conceptId": "C12363", "definition": "Any lymph node within the pelvic region. (NCI)", "preferredTerm": "Pelvic Lymph Node", "submissionValue": "PELVIC LYMPH NODE", "synonyms": ["Pelvic Lymph Node"]}, {"conceptId": "C12767", "definition": "The bony, basin-shaped structure formed by the hipbones and the base of the backbone supporting the lower limbs in humans. (NCI)", "preferredTerm": "Pelvis", "submissionValue": "PELVIS", "synonyms": ["Pelvic Cavity", "Pelvic Region", "Pelvis"]}, {"conceptId": "C12409", "definition": "The male organ of urination and copulation. (NCI)", "preferredTerm": "Penis", "submissionValue": "PENIS", "synonyms": ["Penis"]}, {"conceptId": "C12325", "definition": "The portion of the penis between the glans penis and the radix penis.", "preferredTerm": "Body of the Penis", "submissionValue": "PENIS, BODY"}, {"conceptId": "C12324", "definition": "The most distal portion of the penis covered by the foreskin.", "preferredTerm": "Glans Penis", "submissionValue": "PENIS, GLANS"}, {"conceptId": "C124350", "definition": "The portion of the penis between the descending portion of the pubic bone and the body of the penis.", "preferredTerm": "Radix Penis", "submissionValue": "PENIS, RADIX"}, {"conceptId": "C99148", "definition": "The skin area around the anus. (NCI)", "preferredTerm": "Perianal Region", "submissionValue": "PERIANAL REGION"}, {"conceptId": "C38662", "definition": "The potential body space formed between the parietal and visceral layers of the pericardial sac. (NCI)", "preferredTerm": "Pericardial Cavity", "submissionValue": "PERICARDIAL CAVITY", "synonyms": ["Pericardial Cavity"]}, {"conceptId": "C117870", "definition": "A lymph node located anterior to the pericardium, posterior to the xiphoid process, and in the right and left cardiophrenic fat. (NCI)", "preferredTerm": "Pericardial Lymph Node", "submissionValue": "PERICARDIAL LYMPH NODE"}, {"conceptId": "C127672", "definition": "The tissue layers that form the pericardium of the heart, including the fibrous pericardium, and the parietal and visceral layers of the serous pericardium.", "preferredTerm": "Pericardial Wall", "submissionValue": "PERICARDIAL WALL"}, {"conceptId": "C13005", "definition": "A conical membranous sac filled with serous fluid in which the heart as well as the roots of the aorta and other large blood vessels are contained. (NCI)", "preferredTerm": "Pericardium", "submissionValue": "PERICARDIUM", "synonyms": ["Pericardium"]}, {"conceptId": "C102330", "definition": "A lymph node located in the area around the hilum.", "preferredTerm": "Perihilar Lymph Node", "submissionValue": "PERIHILAR LYMPH NODE"}, {"conceptId": "C33301", "definition": "The area located between the anus and vulva in females, and anus and scrotum in males. (NCI)", "preferredTerm": "Perineum", "submissionValue": "PERINEUM", "synonyms": ["Perineum"]}, {"conceptId": "C77642", "definition": "A lymph node of the pancreas. (NCI)", "preferredTerm": "Pancreatic Lymph Node", "submissionValue": "PERIPANCREATIC LYMPH NODE"}, {"conceptId": "C12768", "definition": "Any nerve outside the brain or spinal cord that connects with peripheral receptors or effectors. (NCI)", "preferredTerm": "Peripheral Nerve", "submissionValue": "PERIPHERAL NERVE", "synonyms": ["Peripheral Nerve"]}, {"conceptId": "C12769", "definition": "The lower part of the abdomen that contains the intestines (the last part of the digestive tract), the stomach, and the liver. It is bound by thin membranes. (NCI)", "preferredTerm": "Peritoneal Cavity", "submissionValue": "PERITONEAL CAVITY", "synonyms": ["Peritoneal Cavity"]}, {"conceptId": "C12770", "definition": "The tissue that lines the wall of the abdominal cavity, intestine, and mesentery. It consists of the parietal peritoneum that covers the inside of the abdominal wall and the visceral peritoneum that covers the surface of the intestine and mesentery. (NCI)", "preferredTerm": "Peritoneum", "submissionValue": "PERITONEUM", "synonyms": ["Peritoneum"]}, {"conceptId": "C111287", "definition": "The tissue surrounding the urethra.", "preferredTerm": "Periurethral Region", "submissionValue": "PERIURETHRAL REGION"}, {"conceptId": "C33314", "definition": "An artery arising from the posterior tibial artery that supplies the muscles on the lateral side of the lower leg.", "preferredTerm": "Peroneal Artery", "submissionValue": "PERONEAL ARTERY"}, {"conceptId": "C33318", "definition": "A fold of lymphatic tissue covered by ciliated epithelium at the very back of the nose, in the roof of the nasopharynx. (NCI)", "preferredTerm": "Pharyngeal Tonsil", "submissionValue": "PHARYNGEAL TONSIL", "synonyms": ["Adenoid", "Pharyngeal Tonsil"]}, {"conceptId": "C12425", "definition": "A hollow tube that starts posterior to the mouth and nasal cavity and ends superior to the trachea and esophagus. (NCI)", "preferredTerm": "Pharynx", "submissionValue": "PHARYNX", "synonyms": ["Pharynx"]}, {"conceptId": "C12398", "definition": "A small endocrine gland within the diencephalon of the brain, situated beneath the back part of the corpus callosum, that secretes melatonin.", "preferredTerm": "Pineal Gland", "submissionValue": "PINEAL GLAND"}, {"conceptId": "C12855", "definition": "The medial bone of the proximal row of carpal bones. (NCI)", "preferredTerm": "Pisiform Bone", "submissionValue": "PISIFORM BONE", "synonyms": ["Pisiform Bone"]}, {"conceptId": "C12399", "definition": "Pea-sized endocrine gland located at the base of the brain in the pituitary fossa. It produces and secretes hormones such as oxytocin and vasopressin, to regulate the activities of the hypothalamus. (NCI)", "preferredTerm": "Pituitary Gland", "submissionValue": "PITUITARY GLAND", "synonyms": ["Hypophysis", "Hypophysis Cerebri"]}, {"conceptId": "C12469", "definition": "The tissue that lines the wall of the thoracic cavity and the surface of the lungs. (NCI)", "preferredTerm": "Pleura", "submissionValue": "PLEURA", "synonyms": ["Pleural Tissue"]}, {"conceptId": "C12840", "definition": "The cavity lined by the pleura, located in the thorax and contains heart and lungs. (NCI)", "preferredTerm": "Pleural Cavity", "submissionValue": "PLEURAL CAVITY", "synonyms": ["Pleural Cavity"]}, {"conceptId": "C12511", "definition": "The middle portion of the brainstem located between the midbrain and the medulla oblongata.", "preferredTerm": "Pons Varolii", "submissionValue": "PONS VAROLII", "synonyms": ["Pons Varolii"]}, {"conceptId": "C116180", "definition": "The segment of the popliteal artery that is located above the knee.", "preferredTerm": "Popliteal Artery Above the Knee", "submissionValue": "POPLITEAL ARTERY ABOVE KNEE"}, {"conceptId": "C116181", "definition": "The segment of the popliteal artery that is located below the knee.", "preferredTerm": "Popliteal Artery Below the Knee", "submissionValue": "POPLITEAL ARTERY BELOW KNEE"}, {"conceptId": "C53146", "definition": "Lymph node located within the fat layer of the knee joint. (NCI)", "preferredTerm": "Popliteal Lymph Node", "submissionValue": "POPLITEAL LYMPH NODE"}, {"conceptId": "C117871", "definition": "A lymph node located in the transverse fissure of the liver. (NCI)", "preferredTerm": "Porta Hepatis Lymph Node", "submissionValue": "PORTA HEPATIS LYMPH NODE"}, {"conceptId": "C117872", "definition": "A lymph node located in the space between the portal vein and inferior vena cava, along the hepatoduodenal ligament. (NCI)", "preferredTerm": "Portacaval Lymph Node", "submissionValue": "PORTACAVAL LYMPH NODE", "synonyms": ["Portocaval Lymph Node"]}, {"conceptId": "C77645", "definition": "Lymph nodes surrounding the portal vein. (NCI)", "preferredTerm": "Portal Lymph Node", "submissionValue": "PORTAL LYMPH NODE", "synonyms": ["Periportal Lymph Node"]}, {"conceptId": "C33343", "definition": "A short thick trunk vein that transports blood containing the absorbed products of digestion from the intestine directly to the liver. (NCI)", "preferredTerm": "Portal Vein", "submissionValue": "PORTAL VEIN", "synonyms": ["Hepatic Portal Vein", "Portal Vein"]}, {"conceptId": "C103428", "definition": "A lymph node located in the posterior region of the neck. (NCI)", "preferredTerm": "Posterior Cervical Lymph Node", "submissionValue": "POSTERIOR CERVICAL LYMPH NODE"}, {"conceptId": "C102348", "definition": "The arteries arising from the right posterior descending artery that supply the interventricular septum.", "preferredTerm": "Septal Perforator Artery", "submissionValue": "POSTERIOR DESCENDING SEPTAL PERFORATORS ARTERY", "synonyms": ["PDSP", "POSTERIOR DESCENDING SEPTAL PERFORATORS ARTERY SEGMENT"]}, {"conceptId": "C12826", "definition": "A terminal branch of the popliteal artery that runs along the tibia from the lower portion of the popliteus muscle to the lower ankle with numerous branches supplying the lower leg and foot.", "preferredTerm": "Posterior Tibial Artery", "submissionValue": "POSTERIOR TIBIAL ARTERY"}, {"conceptId": "C116170", "definition": "In an individual with a right-dominant heart, the arterial branch that arises from the distal right coronary artery in the posterior atrioventricular groove after the origin of the right posterior descending artery.", "preferredTerm": "Posterolateral Coronary Artery", "submissionValue": "POSTEROLATERAL SEGMENTAL ARTERY"}, {"conceptId": "C103429", "definition": "A lymph node located anterior to the auricle of the ear. (NCI)", "preferredTerm": "Preauricular Lymph Node", "submissionValue": "PREAURICULAR LYMPH NODE"}, {"conceptId": "C112399", "definition": "The posteromedial region of the parietal lobe bounded by the marginal branch of the cingulate sulcus anteriorly, by the medial portion of the parieto-occipital fissure posteriorly and by the subparietal sulcus inferiorly.", "preferredTerm": "Precuneus", "submissionValue": "PRECUNEUS"}, {"conceptId": "C79432", "definition": "Exocrine glands located at the anterior aspect of the genitals of some mammals, such as mice and rats, that produce and secrete pheromones. (NCI)", "preferredTerm": "Preputial Gland", "submissionValue": "PREPUTIAL GLAND"}, {"conceptId": "C97340", "definition": "A brain region in the occipital cortex that receives visual stimuli from the retina. (NCI)", "preferredTerm": "Primary Visual Cortex", "submissionValue": "PRIMARY VISUAL CORTEX"}, {"conceptId": "C32436", "definition": "An artery arising from the common femoral artery just below the inguinal ligament running close to the femur and ending in the lower third of the thigh with branches supplying the thigh muscles.", "preferredTerm": "Deep Femoral Artery", "submissionValue": "PROFUNDA FEMORIS ARTERY"}, {"conceptId": "C12410", "definition": "The walnut shaped accessory sex gland of the male reproductive system. It is located in the pelvis just below the bladder, surrounding the prostatic part of the urethra. The prostate gland secretes a fluid which is part of the semen. (NCI)", "preferredTerm": "Prostate Gland", "submissionValue": "PROSTATE GLAND", "synonyms": ["Prostate Gland"]}, {"conceptId": "C13092", "definition": "The prostate gland lobe that is located on the lateral side of the organ. (NCI)", "preferredTerm": "Lateral Lobe of the Prostate", "submissionValue": "PROSTATE GLAND, LATERAL LOBE", "synonyms": ["Lateral Lobe of the Prostate"]}, {"conceptId": "C13094", "definition": "The upper, smaller part of the prostate between the ejaculatory ducts and the urethra. (NCI)", "preferredTerm": "Middle Lobe of the Prostate", "submissionValue": "PROSTATE GLAND, MIDDLE LOBE", "synonyms": ["Middle Lobe of the Prostate"]}, {"conceptId": "C13093", "definition": "The prostate gland lobe that is located on the posterior side of the organ. (NCI)", "preferredTerm": "Posterior Lobe of the Prostate", "submissionValue": "PROSTATE GLAND, POSTERIOR LOBE", "synonyms": ["Posterior Lobe of the Prostate"]}, {"conceptId": "C102331", "definition": "The section of the left circumflex coronary artery that arises from the left main coronary artery and extends to the first marginal branch.", "preferredTerm": "Proximal Circumflex Artery", "submissionValue": "PROXIMAL CIRCUMFLEX ARTERY", "synonyms": ["PCIRC", "PROXIMAL CIRCUMFLEX ARTERY SEGMENT"]}, {"conceptId": "C102332", "definition": "A condyloid synovial joint within the second digit of the hand or foot connecting the proximal and middle phalanges. (NCI)", "preferredTerm": "Proximal Interphalangeal Joint 2", "submissionValue": "PROXIMAL INTERPHALANGEAL JOINT 2", "synonyms": ["PIP2"]}, {"conceptId": "C114205", "definition": "A ginglymoid (hinge) synovial joint within the second digit of the foot connecting the proximal and middle phalanges. (NCI)", "preferredTerm": "Proximal Interphalangeal Joint 2 of the Foot", "submissionValue": "PROXIMAL INTERPHALANGEAL JOINT 2 OF THE FOOT", "synonyms": ["PIP2 of the Foot"]}, {"conceptId": "C114194", "definition": "A ginglymoid (hinge) synovial joint within the second digit of the hand connecting the proximal and middle phalanges. (NCI)", "preferredTerm": "Proximal Interphalangeal Joint 2 of the Hand", "submissionValue": "PROXIMAL INTERPHALANGEAL JOINT 2 OF THE HAND", "synonyms": ["PIP2 of the Hand"]}, {"conceptId": "C102333", "definition": "A condyloid synovial joint within the third digit of the hand or foot connecting the proximal and middle phalanges. (NCI)", "preferredTerm": "Proximal Interphalangeal Joint 3", "submissionValue": "PROXIMAL INTERPHALANGEAL JOINT 3", "synonyms": ["PIP3"]}, {"conceptId": "C114206", "definition": "A ginglymoid (hinge) synovial joint within the third digit of the foot connecting the proximal and middle phalanges. (NCI)", "preferredTerm": "Proximal Interphalangeal Joint 3 of the Foot", "submissionValue": "PROXIMAL INTERPHALANGEAL JOINT 3 OF THE FOOT", "synonyms": ["PIP3 of the Foot"]}, {"conceptId": "C114195", "definition": "A ginglymoid (hinge) synovial joint within the third digit of the hand connecting the proximal and middle phalanges. (NCI)", "preferredTerm": "Proximal Interphalangeal Joint 3 of the Hand", "submissionValue": "PROXIMAL INTERPHALANGEAL JOINT 3 OF THE HAND", "synonyms": ["PIP3 of the Hand"]}, {"conceptId": "C102334", "definition": "A condyloid synovial joint within the fourth digit of the hand or foot connecting the proximal and middle phalanges. (NCI)", "preferredTerm": "Proximal Interphalangeal Joint 4", "submissionValue": "PROXIMAL INTERPHALANGEAL JOINT 4", "synonyms": ["PIP4"]}, {"conceptId": "C114207", "definition": "A ginglymoid (hinge) synovial joint within the fourth digit of the foot connecting the proximal and middle phalanges. (NCI)", "preferredTerm": "Proximal Interphalangeal Joint 4 of the Foot", "submissionValue": "PROXIMAL INTERPHALANGEAL JOINT 4 OF THE FOOT", "synonyms": ["PIP4 of the Foot"]}, {"conceptId": "C114196", "definition": "A ginglymoid (hinge) synovial joint within the fourth digit of the hand connecting the proximal and middle phalanges. (NCI)", "preferredTerm": "Proximal Interphalangeal Joint 4 of the Hand", "submissionValue": "PROXIMAL INTERPHALANGEAL JOINT 4 OF THE HAND", "synonyms": ["PIP4 of the Hand"]}, {"conceptId": "C102335", "definition": "A condyloid synovial joint within the fifth digit of the hand or foot connecting the proximal and middle phalanges. (NCI)", "preferredTerm": "Proximal Interphalangeal Joint 5", "submissionValue": "PROXIMAL INTERPHALANGEAL JOINT 5", "synonyms": ["PIP5"]}, {"conceptId": "C114208", "definition": "A ginglymoid (hinge) synovial joint within the fifth digit of the foot connecting the proximal and middle phalanges. (NCI)", "preferredTerm": "Proximal Interphalangeal Joint 5 of the Foot", "submissionValue": "PROXIMAL INTERPHALANGEAL JOINT 5 OF THE FOOT", "synonyms": ["PIP5 of the Foot"]}, {"conceptId": "C114197", "definition": "A ginglymoid (hinge) synovial joint within the fifth digit of the hand connecting the proximal and middle phalanges. (NCI)", "preferredTerm": "Proximal Interphalangeal Joint 5 of the Hand", "submissionValue": "PROXIMAL INTERPHALANGEAL JOINT 5 OF THE HAND", "synonyms": ["PIP5 of the Hand"]}, {"conceptId": "C102336", "definition": "The section of the left anterior descending coronary artery that arises from the left main coronary artery and extends to the first diagonal branch.", "preferredTerm": "Proximal Left Anterior Descending Artery", "submissionValue": "PROXIMAL LAD ARTERY", "synonyms": ["PLAD", "PROXIMAL LAD ARTERY SEGMENT"]}, {"conceptId": "C102337", "definition": "The section of the right coronary artery proximal to the origin of the right ventricular artery.", "preferredTerm": "Proximal Right Coronary Artery Conduit", "submissionValue": "PROXIMAL RIGHT CORONARY ARTERY CONDUIT", "synonyms": ["PRCA", "PROXIMAL RIGHT CORONARY ARTERY CONDUIT SEGMENT"]}, {"conceptId": "C115335", "definition": "The part of the urethra that is close to the bladder.", "preferredTerm": "Proximal Urethra", "submissionValue": "PROXIMAL URETHRA"}, {"conceptId": "C33423", "definition": "Either of the two bones (left and right) that form the front of the pelvis. (NCI)", "preferredTerm": "Pubic Bone", "submissionValue": "PUBIC BONE"}, {"conceptId": "C116918", "definition": "The artery arising from the right ventricle of the heart that bifurcates into the left and right pulmonary arteries.", "preferredTerm": "Pulmonary Trunk", "submissionValue": "PULMONARY TRUNK", "synonyms": ["Main Pulmonary Artery"]}, {"conceptId": "C12775", "definition": "A valve that is located between and controls the flow of blood from the right ventricle of the heart and the pulmonary artery. (NCI)", "preferredTerm": "Pulmonary Valve", "submissionValue": "PULMONARY VALVE"}, {"conceptId": "C127673", "definition": "The cusp of the pulmonic valve that has no attachment to the cardiac septum.", "preferredTerm": "Anterior Cusp of the Pulmonary Valve", "submissionValue": "PULMONARY VALVE, ANTERIOR CUSP", "synonyms": ["Pulmonary Valve, Anterior Semilunar Cusp"]}, {"conceptId": "C127674", "definition": "The cusp of the pulmonic valve attached to the left side of the cardiac septum.", "preferredTerm": "Left Cusp of the Pulmonary Valve", "submissionValue": "PULMONARY VALVE, LEFT CUSP", "synonyms": ["Pulmonary Valve, Left Semilunar Cusp"]}, {"conceptId": "C127675", "definition": "The cusp of the pulmonic valve attached to the right side of the cardiac septum.", "preferredTerm": "Right Cusp of the Pulmonary Valve", "submissionValue": "PULMONARY VALVE, RIGHT CUSP", "synonyms": ["Pulmonary Valve, Right Semilunar Cusp"]}, {"conceptId": "C33429", "definition": "The round opening in the center of the iris in the eye.", "preferredTerm": "Pupil", "submissionValue": "PUPIL"}, {"conceptId": "C12452", "definition": "The largest and most lateral of the basal ganglia lying between the lateral medullary lamina of the globus pallidus and the external capsule. It is part of the neostriatum and forms part of the lentiform nucleus along with the globus pallidus. (MeSH)", "preferredTerm": "Putamen", "submissionValue": "PUTAMEN", "synonyms": ["Putamen"]}, {"conceptId": "C33433", "definition": "The muscular structure at the distal portion of the stomach, opening into the duodenum. (NCI)", "preferredTerm": "Pyloric Sphincter", "submissionValue": "PYLORIC SPHINCTER", "synonyms": ["Pyloric Sphincter"]}, {"conceptId": "C33441", "definition": "A group of four powerful muscles in the front of the thigh. Their actions involve the extension of the knee joint. (NCI)", "preferredTerm": "Quadriceps Muscle of the Thigh", "submissionValue": "QUADRICEPS MUSCLE", "synonyms": ["Muscle, Quadriceps", "Muscle, Thigh"]}, {"conceptId": "C12838", "definition": "The branch of the brachial artery that passes down the forearm. (NCI)", "preferredTerm": "Radial Artery", "submissionValue": "RADIAL ARTERY", "synonyms": ["Radial Artery"]}, {"conceptId": "C12777", "definition": "The long bone that extends from the lateral aspect of the elbow to the medial side of the carpus.", "preferredTerm": "Radius Bone", "submissionValue": "RADIUS", "synonyms": ["Radius", "Radius Bone"]}, {"conceptId": "C120674", "definition": "The slightly curved, prismoid, elongated bony body of the radius.", "preferredTerm": "Radius Shaft", "submissionValue": "RADIUS SHAFT"}, {"conceptId": "C102338", "definition": "An artery that arises from the left main coronary artery and is positioned between the left anterior descending coronary artery and the circumflex artery.", "preferredTerm": "Ramus Intermedius Artery", "submissionValue": "RAMUS INTERMEDIUS ARTERY", "synonyms": ["RAMUS", "RAMUS ARTERY", "RAMUS INTERMEDIUS ARTERY SEGMENT"]}, {"conceptId": "C97335", "definition": "A group of nuclei that are located in the midline of the brainstem and release serotonin. (NCI)", "preferredTerm": "Raphe Nuclei", "submissionValue": "RAPHE"}, {"conceptId": "C54188", "definition": "The area where the sigmoid colon joins the rectum.", "preferredTerm": "Rectosigmoid Region", "submissionValue": "RECTOSIGMOID JUNCTION"}, {"conceptId": "C12390", "definition": "The terminal portion of the gastrointestinal tract, extending from the rectosigmoid junction to the anal canal. (NCI)", "preferredTerm": "Rectum", "submissionValue": "RECTUM"}, {"conceptId": "C53175", "definition": "One of the four quadriceps muscles, located in the middle of the front of the thigh. Its actions involve the extension of the knee joint and flexion of the hip. (NCI)", "preferredTerm": "Rectus Femoris", "submissionValue": "RECTUS FEMORIS MUSCLE"}, {"conceptId": "C49018", "definition": "A lymph node that drains lymph from a region of interest. (NCI)", "preferredTerm": "Regional Lymph Node", "submissionValue": "REGIONAL LYMPH NODE", "synonyms": ["Regional Lymph Node"]}, {"conceptId": "C12778", "definition": "Either of two arteries (right or left) that arise from the aorta to supply the kidneys.", "preferredTerm": "Renal Artery", "submissionValue": "RENAL ARTERY"}, {"conceptId": "C12887", "definition": "The funnel-shaped proximal portion of the ureter located within the kidney into which urine is secreted, from the collecting duct system of the kidney. (NCI)", "preferredTerm": "Renal Pelvis", "submissionValue": "RENAL PELVIS"}, {"conceptId": "C12779", "definition": "The organs and anatomic structures involved in inspiration and expiration of air and the exchange of carbon dioxide and oxygen.", "preferredTerm": "Respiratory System", "submissionValue": "RESPIRATORY SYSTEM"}, {"conceptId": "C12343", "definition": "A light-sensitive membrane that lines the back wall of the eyeball. The retina is continuous with the optic nerve and this way transmits optical images to the brain. (NCI)", "preferredTerm": "Retina", "submissionValue": "RETINA", "synonyms": ["Retina"]}, {"conceptId": "C52997", "definition": "An artery arising from the ophthalmic artery that supplies the retina.", "preferredTerm": "Retinal Artery", "submissionValue": "RETINAL ARTERY"}, {"conceptId": "C32953", "definition": "A retina layer that contains the axons of ganglion cells. It collects the visual impulses. (NCI)", "preferredTerm": "Layer of the Ophthalmic Nerve Fibers", "submissionValue": "RETINAL NERVE FIBER LAYER"}, {"conceptId": "C33470", "definition": "A continuous, insulating monolayer of cuboidal/columnar epithelium which extends from the margins of the optic nerve head to the ora serrata where it is continuous with the pigment epithelium of the pars plana. (NCI)", "preferredTerm": "Retinal Pigment Epithelium", "submissionValue": "RETINAL PIGMENTED EPITHELIAL LAYER"}, {"conceptId": "C103439", "definition": "A lymph node located within the most inferior portion of the posterior mediastinum. (NCI)", "preferredTerm": "Retrocrural Lymph Node", "submissionValue": "RETROCRURAL LYMPH NODE"}, {"conceptId": "C98189", "definition": "A lymph node located in the retroperitoneal space. (NCI)", "preferredTerm": "Retroperitoneal Lymph Node", "submissionValue": "RETROPERITONEAL LYMPH NODE"}, {"conceptId": "C12298", "definition": "The back of the abdomen where the kidneys lie and the great blood vessels run. (NCI)", "preferredTerm": "Retroperitoneum", "submissionValue": "RETROPERITONEUM", "synonyms": ["RETROPERITONEAL CAVITY"]}, {"conceptId": "C12782", "definition": "Any one of the paired bones, extending from the thoracic vertebrae toward the median line on the ventral aspect of the trunk.", "preferredTerm": "Rib", "submissionValue": "RIB"}, {"conceptId": "C52770", "definition": "The first rib counting from the top of the rib cage down. (NCI)", "preferredTerm": "Rib 1", "submissionValue": "RIB 1", "synonyms": ["Rib 1"]}, {"conceptId": "C52769", "definition": "The tenth rib counting from the top of the rib cage down. (NCI)", "preferredTerm": "Rib 10", "submissionValue": "RIB 10", "synonyms": ["Rib 10"]}, {"conceptId": "C52768", "definition": "The eleventh rib counting from the top of the rib cage down. (NCI)", "preferredTerm": "Rib 11", "submissionValue": "RIB 11", "synonyms": ["Rib 11"]}, {"conceptId": "C52767", "definition": "The twelfth rib counting from the top of the rib cage down. (NCI)", "preferredTerm": "Rib 12", "submissionValue": "RIB 12", "synonyms": ["Rib 12"]}, {"conceptId": "C52766", "definition": "The second rib counting from the top of the rib cage down. (NCI)", "preferredTerm": "Rib 2", "submissionValue": "RIB 2", "synonyms": ["Rib 2"]}, {"conceptId": "C52765", "definition": "The third rib counting from the top of the rib cage down. (NCI)", "preferredTerm": "Rib 3", "submissionValue": "RIB 3", "synonyms": ["Rib 3"]}, {"conceptId": "C52764", "definition": "The fourth rib counting from the top of the rib cage down. (NCI)", "preferredTerm": "Rib 4", "submissionValue": "RIB 4", "synonyms": ["Rib 4"]}, {"conceptId": "C52763", "definition": "The fifth rib counting from the top of the rib cage down. (NCI)", "preferredTerm": "Rib 5", "submissionValue": "RIB 5", "synonyms": ["Rib 5"]}, {"conceptId": "C52762", "definition": "The sixth rib counting from the top of the rib cage down. (NCI)", "preferredTerm": "Rib 6", "submissionValue": "RIB 6", "synonyms": ["Rib 6"]}, {"conceptId": "C52761", "definition": "The seventh rib counting from the top of the rib cage down. (NCI)", "preferredTerm": "Rib 7", "submissionValue": "RIB 7", "synonyms": ["Rib 7"]}, {"conceptId": "C52760", "definition": "The eighth rib counting from the top of the rib cage down. (NCI)", "preferredTerm": "Rib 8", "submissionValue": "RIB 8", "synonyms": ["Rib 8"]}, {"conceptId": "C52759", "definition": "The ninth rib counting from the top of the rib cage down. (NCI)", "preferredTerm": "Rib 9", "submissionValue": "RIB 9", "synonyms": ["Rib 9"]}, {"conceptId": "C102339", "definition": "The innermost layer of endothelial cells and connective tissue that lines the right atrium.", "preferredTerm": "Right Atrial Endocardium", "submissionValue": "RIGHT ATRIAL ENDOCARDIUM"}, {"conceptId": "C116169", "definition": "The opening of the right coronary artery at its origin.", "preferredTerm": "Right Coronary Artery Ostium", "submissionValue": "RIGHT CORONARY ARTERY OSTIUM"}, {"conceptId": "C102340", "definition": "The right coronary artery and all of its branches.", "preferredTerm": "Right Coronary Artery and its Branches", "submissionValue": "RIGHT CORONARY ARTERY, RIGHT POSTERIOR DESCENDING, RIGHT POSTERIOLATERAL AND ACUTE MARGINAL BRANCHES"}, {"conceptId": "C102341", "definition": "The arterial branch between the right posterior descending artery segment and the first right posterolateral segment.", "preferredTerm": "Right Posterior Atrioventricular Artery", "submissionValue": "RIGHT POSTERIOR ATRIOVENTRICULAR ARTERY", "synonyms": ["RIGHT POSTERIOR ATRIOVENTRICULAR ARTERY SEGMENT", "RPAV"]}, {"conceptId": "C102342", "definition": "In an individual with a right-dominant heart, the arterial branch that arises from the distal right coronary artery between the acute marginal artery and the first right posterolateral segment. It supplies the inferior apex of the heart.", "preferredTerm": "Right Posterior Descending Artery", "submissionValue": "RIGHT POSTERIOR DESCENDING ARTERY", "synonyms": ["RIGHT POSTERIOR DESCENDING ARTERY SEGMENT", "RPDA"]}, {"conceptId": "C116171", "definition": "The branch of the right coronary artery that supplies blood to the right ventricular wall.", "preferredTerm": "Right Ventricular Branch of Right Coronary Artery", "submissionValue": "RIGHT VENTRICULAR BRANCH"}, {"conceptId": "C102343", "definition": "The innermost layer of endothelial cells and connective tissue that lines the right ventricle.", "preferredTerm": "Right Ventricular Endocardium", "submissionValue": "RIGHT VENTRICULAR ENDOCARDIUM"}, {"conceptId": "C105447", "definition": "The prominence on the lateral surface of the sacrum, posterior to the auricular surface of the sacrum. (NCI)", "preferredTerm": "Sacral Tuberosity", "submissionValue": "SACRAL TUBEROSITY"}, {"conceptId": "C12853", "definition": "Any one of the vertebrae situated between the lumbar vertebrae and the caudal vertebrae or coccyx.", "preferredTerm": "Sacral Vertebra", "submissionValue": "SACRAL VERTEBRA"}, {"conceptId": "C33507", "definition": "The joint located between the sacrum and the ilium. (NCI)", "preferredTerm": "Sacroiliac Joint", "submissionValue": "SACROILIAC JOINT", "synonyms": ["Sacroiliac Joint"]}, {"conceptId": "C33508", "definition": "The triangular bone, made up of 5 fused bones of the spine, located in the lower area of the spine between the fifth lumbar vertebra and the coccyx. (NCI)", "preferredTerm": "Sacrum", "submissionValue": "SACRUM", "synonyms": ["Sacrum"]}, {"conceptId": "C12426", "definition": "An exocrine gland that secretes saliva. Salivary glands are mostly located in and around the oral cavity.", "preferredTerm": "Salivary Gland", "submissionValue": "SALIVARY GLAND"}, {"conceptId": "C33511", "definition": "One of two (Greater, Small) superficial veins of the leg and thigh. (NCI)", "preferredTerm": "Saphenous Vein", "submissionValue": "SAPHENOUS VEIN", "synonyms": ["Saphenous Vein"]}, {"conceptId": "C89807", "definition": "The skin which covers the top of the head and which is usually covered by hair. (NCI)", "preferredTerm": "Scalp", "submissionValue": "SCALP"}, {"conceptId": "C12854", "definition": "A nut-shaped bone of the wrist located in the radial site of the hand. It is one of the eight carpal bones. (NCI)", "preferredTerm": "Scaphoid Bone", "submissionValue": "SCAPHOID BONE", "synonyms": ["Scaphoid Bone"]}, {"conceptId": "C127676", "definition": "A condyloid synovial joint within the wrist connecting the scaphoid bone to the capitate bone.", "preferredTerm": "Scaphoid-Capitate Joint", "submissionValue": "SCAPHOID-CAPITATE JOINT"}, {"conceptId": "C127677", "definition": "A condyloid synovial joint within the wrist connecting the scaphoid, lunate, and capitate bones.", "preferredTerm": "Scaphoid-Lunate-Capitate Joint", "submissionValue": "SCAPHOID-LUNATE-CAPITATE JOINT"}, {"conceptId": "C127678", "definition": "A condyloid synovial joint within the wrist connecting the scaphoid bone to the trapezium bone.", "preferredTerm": "Scaphoid-Trapezium Joint", "submissionValue": "SCAPHOID-TRAPEZIUM JOINT"}, {"conceptId": "C12783", "definition": "The flat triangle-shaped bone that connects the humerus with the clavicle in the back of the shoulder. (NCI)", "preferredTerm": "Scapula", "submissionValue": "SCAPULA", "synonyms": ["Scapula", "Shoulder Blade"]}, {"conceptId": "C52810", "definition": "The longest single nerve that is formed by the merging of the ventral rami of the L4, L5, and S1 in the pelvis and passes down the lower limb where it divides into the common peroneal and tibial nerves. (NCI)", "preferredTerm": "Sciatic Nerve", "submissionValue": "SCIATIC NERVE", "synonyms": ["Sciatic Nerve"]}, {"conceptId": "C12784", "definition": "The white, opaque, fibrous, outer tunic of the eyeball, covering it entirely excepting the segment covered anteriorly by the cornea. It is essentially avascular but contains apertures for vessels, lymphatics, and nerves. It receives the tendons of insertion of the extraocular muscles and at the corneoscleral junction contains the canal of Schlemm. (From Cline et al., Dictionary of Visual Science, 4th ed)", "preferredTerm": "Sclera", "submissionValue": "SCLERA"}, {"conceptId": "C12785", "definition": "The musculocutaneous pouch that encloses the testicles. (NCI)", "preferredTerm": "Scrotum", "submissionValue": "SCROTUM", "synonyms": ["Scrotum"]}, {"conceptId": "C33519", "definition": "Small glands located within the epidermis, and associated with the hair follicle, that produce and secrete an oily substance that lubricates the skin and hair. (NCI)", "preferredTerm": "Sebaceous Gland", "submissionValue": "SEBACEOUS GLAND"}, {"conceptId": "C102344", "definition": "The second artery arising from the left anterior descending (LAD) artery that supplies the anterolateral wall, when counted from proximal to distal.", "preferredTerm": "Second Diagonal Branch Artery", "submissionValue": "SECOND DIAGONAL BRANCH ARTERY", "synonyms": ["2ND DIAG", "SECOND DIAGONAL BRANCH ARTERY SEGMENT"]}, {"conceptId": "C102345", "definition": "In an individual with a left-dominant heart, this is the second branch that arises from the circumflex artery atrioventricular groove continuation when counted from proximal to distal. It supplies the posterolateral wall.", "preferredTerm": "Second Left Posterolateral Branch Artery", "submissionValue": "SECOND LEFT POSTEROLATERAL BRANCH ARTERY", "synonyms": ["2ND LPL", "SECOND LEFT POSTEROLATERAL BRANCH ARTERY SEGMENT"]}, {"conceptId": "C102346", "definition": "The second artery arising from the left circumflex artery that supplies the lateral wall, when counted from proximal to distal.", "preferredTerm": "Second Obtuse Marginal Branch Artery", "submissionValue": "SECOND OBTUSE MARGINAL BRANCH ARTERY", "synonyms": ["2ND OM", "SECOND OBTUSE MARGINAL BRANCH ARTERY SEGMENT"]}, {"conceptId": "C102347", "definition": "In an individual with a right-dominant heart, this is the second branch that arises from the right coronary artery distal to the right posterior descending artery, when counted from proximal to distal.", "preferredTerm": "Second Right Posterolateral Artery", "submissionValue": "SECOND RIGHT POSTEROLATERAL ARTERY", "synonyms": ["2ND RPL", "SECOND RIGHT POSTEROLATERAL ARTERY SEGMENT"]}, {"conceptId": "C12787", "definition": "One of the two paired glands in the male genitourinary system, posterior to the bladder and superior to the prostate gland, that produces fructose-rich seminal fluid which is a component of semen. These glands join the ipsilateral ductus deferens to form the ejaculatory duct. (NCI)", "preferredTerm": "Seminal Vesicle", "submissionValue": "SEMINAL VESICLE", "synonyms": ["Seminal Sacs"]}, {"conceptId": "C53176", "definition": "A muscle located at the posterior and medial aspect of the thigh that extends the hip joint, flexes the knee joint and assists in medially rotating the knee.", "preferredTerm": "Semitendinosus", "submissionValue": "SEMITENDINOSUS MUSCLE"}, {"conceptId": "C25203", "definition": "The region of the body between the neck and the upper arm. (NCI)", "preferredTerm": "Shoulder", "submissionValue": "SHOULDER", "synonyms": ["Shoulder"]}, {"conceptId": "C33548", "definition": "A ball-and-socket joint at the upper end of the humerus, located at the junction of humerus and scapula. (NCI)", "preferredTerm": "Shoulder Joint", "submissionValue": "SHOULDER JOINT", "synonyms": ["Shoulder Joint"]}, {"conceptId": "C33556", "definition": "A recess, cavity, or channel. (NCI)", "preferredTerm": "Sinus", "submissionValue": "SINUS", "synonyms": ["Sinus"]}, {"conceptId": "C12470", "definition": "An organ that constitutes the external surface of the body. It consists of the epidermis, dermis, and skin appendages. (NCI)", "preferredTerm": "Skin", "submissionValue": "SKIN", "synonyms": ["Integument", "Skin"]}, {"conceptId": "C116164", "definition": "The skin or integument surrounding the axilla, or underarm.", "preferredTerm": "Skin Of The Axilla", "submissionValue": "SKIN OF THE AXILLA"}, {"conceptId": "C52757", "definition": "The skin or integument surrounding the head.", "preferredTerm": "Head Skin", "submissionValue": "SKIN OF THE HEAD"}, {"conceptId": "C12291", "definition": "The skin portion of the lip that contains hair.", "preferredTerm": "Skin of the Lip", "submissionValue": "SKIN OF THE LIP"}, {"conceptId": "C52756", "definition": "The skin or integument surrounding the neck.", "preferredTerm": "Neck Skin", "submissionValue": "SKIN OF THE NECK"}, {"conceptId": "C12295", "definition": "The skin or integument surrounding the trunk of the body. (NCI)", "preferredTerm": "Skin of the Trunk", "submissionValue": "SKIN OF THE TRUNK", "synonyms": ["Skin of the Trunk"]}, {"conceptId": "C12789", "definition": "The bones that form the head, made up of the bones of the braincase and face. (NCI)", "preferredTerm": "Skull", "submissionValue": "SKULL", "synonyms": ["Cranium"]}, {"conceptId": "C12386", "definition": "The section of the intestines between the pylorus and cecum. The small intestine consists of the duodenum, the jejunum, and the ileum.", "preferredTerm": "Small Intestine", "submissionValue": "SMALL INTESTINE"}, {"conceptId": "C12231", "definition": "A movable fold suspended from the posterior border of the hard palate. (MeSH)", "preferredTerm": "Soft Palate", "submissionValue": "SOFT PALATE"}, {"conceptId": "C33326", "definition": "The undersurface of the foot. (NCI)", "preferredTerm": "Plantar Region", "submissionValue": "SOLE"}, {"conceptId": "C32041", "definition": "The eleventh cranial nerve.", "preferredTerm": "Accessory Nerve", "submissionValue": "SPINAL ACCESSORY NERVE", "synonyms": ["ACCESSORY NERVE", "CRANIAL ACCESSORY NERVE"]}, {"conceptId": "C12464", "definition": "The elongated, approximately cylindrical part of the central nervous system of vertebrates that lies in the vertebral canal and from which the spinal nerves emerge. (NCI)", "preferredTerm": "Spinal Cord", "submissionValue": "SPINAL CORD", "synonyms": ["Medulla Spinalis"]}, {"conceptId": "C116112", "definition": "A bony projection arising from the posterior vertebral arch that serves for the attachment of muscles and ligaments.", "preferredTerm": "Spinous Process", "submissionValue": "SPINOUS PROCESS"}, {"conceptId": "C12432", "definition": "An abdominal organ that is part of the hematopoietic and immune systems. It is composed of the white pulp and the red pulp and is surrounded by a capsule.", "preferredTerm": "Spleen", "submissionValue": "SPLEEN"}, {"conceptId": "C33601", "definition": "The area of the spleen through which the vessels and nerves enter or exit the organ. (NCI)", "preferredTerm": "Splenic Hilum", "submissionValue": "SPLEEN, HILUM", "synonyms": ["Splenic Hilum"]}, {"conceptId": "C33597", "definition": "An artery arising from the celiac trunk with four main branches that supply the spleen, stomach and pancreas.", "preferredTerm": "Splenic Artery", "submissionValue": "SPLENIC ARTERY"}, {"conceptId": "C33600", "definition": "A lymph node located in the hilar region of the spleen. (NCI)", "preferredTerm": "Splenic Hilar Lymph Node", "submissionValue": "SPLENIC HILAR LYMPH NODE"}, {"conceptId": "C52730", "definition": "The upper segment of the sternum, quadrangular in shape, as well as wider superiorly and narrower inferiorly. The sternal manubrium articulates with the clavicle and first two ribs. (NCI)", "preferredTerm": "Sternal Manubrium", "submissionValue": "STERNAL MANUBRIUM", "synonyms": ["Sternal Manubrium"]}, {"conceptId": "C33615", "definition": "The synovial juncture between the medial end of the clavicle and the anterior segment of the sternum. (NCI)", "preferredTerm": "Sternoclavicular Joint", "submissionValue": "STERNOCLAVICULAR JOINT", "synonyms": ["Sternoclavicular Joint"]}, {"conceptId": "C12793", "definition": "The long, flat bone connecting with the cartilages of the first seven ribs and the clavicle. (NCI)", "preferredTerm": "Sternum", "submissionValue": "STERNUM", "synonyms": ["Sterna", "Sternum"]}, {"conceptId": "C12391", "definition": "An organ located under the diaphragm, between the liver and the spleen as well as between the esophagus and the small intestine. The stomach is the primary organ of food digestion. (NCI)", "preferredTerm": "Stomach", "submissionValue": "STOMACH", "synonyms": ["Stomach"]}, {"conceptId": "C117873", "definition": "A lymph node located in the thoracic cavity between the lungs. It is bordered by the carina of the trachea, lower lobe bronchus on the left and the bronchus intermedius on the right. (NCI)", "preferredTerm": "Subcarinal Lymph Node", "submissionValue": "SUBCARINAL LYMPH NODE"}, {"conceptId": "C12794", "definition": "The vein that drains the axillary vein and joins the internal jugular vein to form the brachiocephalic vein. It runs parallel to the subclavian artery.", "preferredTerm": "Subclavian Vein", "submissionValue": "SUBCLAVIAN VEIN"}, {"conceptId": "C33645", "definition": "Adipose tissue located under the dermis. It binds underlying structures with the skin. The subcutis is important in the regulation of temperature of the skin itself and the body. The size of this layer varies throughout the body and from subject to subject.", "preferredTerm": "Subcutis", "submissionValue": "SUBCUTIS", "synonyms": ["Subcutaneous Adipose Tissue", "Subcutaneous Tissue"]}, {"conceptId": "C12280", "definition": "The area of the larynx below the vocal cords down to the trachea. (NCI)", "preferredTerm": "Subglottis", "submissionValue": "SUBGLOTTIS", "synonyms": ["Subglottis"]}, {"conceptId": "C102349", "definition": "A body region relating to the area under or adjacent to the tongue.", "preferredTerm": "Sublingual Region", "submissionValue": "SUBLINGUAL REGION"}, {"conceptId": "C77650", "definition": "A lymph node located beneath the floor of the oral cavity. (NCI)", "preferredTerm": "Submandibular Lymph Node", "submissionValue": "SUBMANDIBULAR LYMPH NODE", "synonyms": ["Lymph Node, Submandibular"]}, {"conceptId": "C12453", "definition": "A large cell mass extending forward, over the dorsal surface of the crus cerebri, from the rostral border of the pons into the subthalamic region. It is composed of a dorsal stratum of closely spaced pigmented cells, the pars compacta, and a larger ventral region of widely scattered cells, the pars reticulata. The pars compacta includes numerous cells that project forward to the striatum (caudate nucleus and putamen) and contain dopamine, which acts as the primary neurotransmitter at the synaptic endings. Other, apparently non-dopaminergic cells project to portions of the ventral nucleus of thalamus, the superior colliculus and reticular formation. The nigrostriatal projection is reciprocated by a striatonigral fiber system with multiple neurotransmitters, chief among which is gamma-aminobutyric acid (GABA). The substantia nigra is involved in the metabolic disturbances associated with Parkinson's disease and Huntington's disease. (NCI)", "preferredTerm": "Substantia Nigra", "submissionValue": "SUBSTANTIA NIGRA", "synonyms": ["Substantia Nigra"]}, {"conceptId": "C33653", "definition": "The plane synovial joint between the talus and calcaneus bones of the foot.", "preferredTerm": "Subtalar Joint", "submissionValue": "SUBTALAR JOINT", "synonyms": ["Talocalcaneal Joint"]}, {"conceptId": "C33712", "definition": "The small coiled tubular glands in the skin that produce and secrete sweat.", "preferredTerm": "Sweat Gland", "submissionValue": "SUDORIFEROUS GLAND", "synonyms": ["Sweat Gland"]}, {"conceptId": "C33661", "definition": "The portion of the femoral artery distal to the branching of the deep femoral artery that runs close to the skin.", "preferredTerm": "Superficial Femoral Artery", "submissionValue": "SUPERFICIAL FEMORAL ARTERY"}, {"conceptId": "C102716", "definition": "A lymph node located in a superficial part of the body.", "preferredTerm": "Superficial Lymph Node", "submissionValue": "SUPERFICIAL LYMPH NODE"}, {"conceptId": "C12816", "definition": "The large vein that terminates in the right atrium and transports deoxygenated blood from the head, neck, arms, and chest to the heart.", "preferredTerm": "Superior Vena Cava", "submissionValue": "SUPERIOR VENA CAVA"}, {"conceptId": "C12903", "definition": "A lymph node which is located above the clavicle. (NCI)", "preferredTerm": "Supraclavicular Lymph Node", "submissionValue": "SUPRACLAVICULAR LYMPH NODE", "synonyms": ["Supraclavicular Lymph Node"]}, {"conceptId": "C12512", "definition": "The part of the brain above the tentorium cerebellum. (NCI)", "preferredTerm": "Supratentorial Brain", "submissionValue": "SUPRATENTORIAL BRAIN"}, {"conceptId": "C12467", "definition": "A mass containing the cell bodies of sympathetic nerves. Sympathetic ganglia exist as paravertebral ganglia (located bilaterally adjacent to the spinal cord) or prevertebral ganglia (located close to the target organ).", "preferredTerm": "Sympathetic Ganglion", "submissionValue": "SYMPATHETIC GANGLIA"}, {"conceptId": "C33718", "definition": "A viscid fluid secreted by the synovial membrane, serving as a lubricant. (NCI)", "preferredTerm": "Synovial Fluid", "submissionValue": "SYNOVIAL FLUID", "synonyms": ["Synovia", "Synovial Fluid"]}, {"conceptId": "C33720", "definition": "The first thoracic vertebra counting from the top down. (NCI)", "preferredTerm": "T1 Vertebra", "submissionValue": "T1 VERTEBRA", "synonyms": ["T1 Vertebra"]}, {"conceptId": "C33721", "definition": "The tenth thoracic vertebra counting from the top down. (NCI)", "preferredTerm": "T10 Vertebra", "submissionValue": "T10 VERTEBRA", "synonyms": ["T10 Vertebra"]}, {"conceptId": "C33722", "definition": "The eleventh thoracic vertebra counting from the top down. (NCI)", "preferredTerm": "T11 Vertebra", "submissionValue": "T11 VERTEBRA", "synonyms": ["T11 Vertebra"]}, {"conceptId": "C33723", "definition": "The twelfth thoracic vertebra counting from the top down. (NCI)", "preferredTerm": "T12 Vertebra", "submissionValue": "T12 VERTEBRA", "synonyms": ["T12 Vertebra"]}, {"conceptId": "C33724", "definition": "The second thoracic vertebra counting from the top down. (NCI)", "preferredTerm": "T2 Vertebra", "submissionValue": "T2 VERTEBRA", "synonyms": ["T2 Vertebra"]}, {"conceptId": "C33725", "definition": "The third thoracic vertebra counting from the top down. (NCI)", "preferredTerm": "T3 Vertebra", "submissionValue": "T3 VERTEBRA", "synonyms": ["T3 Vertebra"]}, {"conceptId": "C33726", "definition": "The fourth thoracic vertebra counting from the top down. (NCI)", "preferredTerm": "T4 Vertebra", "submissionValue": "T4 VERTEBRA", "synonyms": ["T4 Vertebra"]}, {"conceptId": "C33727", "definition": "The fifth thoracic vertebra counting from the top down. (NCI)", "preferredTerm": "T5 Vertebra", "submissionValue": "T5 VERTEBRA", "synonyms": ["T5 Vertebra"]}, {"conceptId": "C33728", "definition": "The sixth thoracic vertebra counting from the top down. (NCI)", "preferredTerm": "T6 Vertebra", "submissionValue": "T6 VERTEBRA", "synonym