{"name": "SEND CT 2019-06-28", "label": "SEND Controlled Terminology Package 38 Effective 2019-06-28", "description": "CDISC Controlled Terminology for SEND is the set of CDISC-developed or CDISC-adopted standard expressions (values) used with data items within CDISC-defined SEND datasets.", "source": "SEND Controlled Terminology developed by the CDISC Terminology Team in collaboration with the National Cancer Institute's Enterprise Vocabulary Services (EVS)", "effectiveDate": "2019-06-28", "registrationStatus": "Final", "version": "2019-06-28", "_links": {"self": {"href": "/mdr/ct/packages/sendct-2019-06-28", "title": "SEND Controlled Terminology Package 38 Effective 2019-06-28", "type": "Terminology"}, "priorVersion": {"href": "/mdr/ct/packages/sendct-2019-03-29", "title": "SEND Controlled Terminology Package 37 Effective 2019-03-29", "type": "Terminology"}}, "codelists": [{"conceptId": "C158118", "extensible": "true", "name": "Age Estimation Method Response", "submissionValue": "AGESMETH", "definition": "Terminology related to the method by which the age of an individual is determined through estimation.", "preferredTerm": "CDISC SEND Age Estimation Method Response Terminology", "synonyms": ["Age Estimation Method Response"], "terms": [{"conceptId": "C158324", "submissionValue": "ANIMAL RECORDS", "definition": "Information obtained from medical records, acquisition records, or other official documentation associated with the animal.", "preferredTerm": "Animal Record Information"}, {"conceptId": "C158323", "submissionValue": "DENTAL EXAM", "definition": "A systematic evaluation of the mouth, face, and neck, which may include tooth counting, cleaning and visual assessment.", "preferredTerm": "Dental Examination"}, {"conceptId": "C20989", "submissionValue": "PHYSICAL EXAMINATION", "definition": "A systemic evaluation of the body and its functions using visual inspection, palpation, percussion and auscultation. The purpose is to determine the presence or absence of physical signs of disease or abnormality for an individual's health assessment.", "preferredTerm": "Physical Examination", "synonyms": ["Physical Exam"]}, {"conceptId": "C128940", "submissionValue": "RADIOGRAPHY", "definition": "A radiographic procedure using the emission of penetrating energy waves to form an image of the structure.", "preferredTerm": "Radiographic Examination", "synonyms": ["Radiographic Exam"]}, {"conceptId": "C17998", "submissionValue": "UNKNOWN", "definition": "Not known, not observed, not recorded, or refused. (NCI)", "preferredTerm": "Unknown", "synonyms": ["U", "UNK", "Unknown"]}]}, {"conceptId": "C66781", "extensible": "false", "name": "Age Unit", "submissionValue": "AGEU", "definition": "Those units of time that are routinely used to express the age of a subject.", "preferredTerm": "CDISC SDTM Age Unit Terminology", "synonyms": ["Age Unit"], "terms": [{"conceptId": "C25301", "submissionValue": "DAYS", "definition": "A unit of measurement of time equal to 24 hours.", "preferredTerm": "Day"}, {"conceptId": "C25529", "submissionValue": "HOURS", "definition": "A unit of measurement of time equal to 60 minutes.", "preferredTerm": "Hour", "synonyms": ["Hours", "h", "hr"]}, {"conceptId": "C29846", "submissionValue": "MONTHS", "definition": "One of the 12 divisions of a year as determined by a calendar. It corresponds to the unit of time of approximately to one cycle of the moon's phases, about 30 days or 4 weeks. (NCI)", "preferredTerm": "Month", "synonyms": ["Month"]}, {"conceptId": "C29844", "submissionValue": "WEEKS", "definition": "Any period of seven consecutive days. (NCI)", "preferredTerm": "Week", "synonyms": ["Week"]}, {"conceptId": "C29848", "submissionValue": "YEARS", "definition": "The period of time that it takes for Earth to make a complete revolution around the sun, approximately 365 days; a specific one year period. (NCI)", "preferredTerm": "Year", "synonyms": ["Year"]}]}, {"conceptId": "C74456", "extensible": "true", "name": "Anatomical Location", "submissionValue": "LOC", "definition": "Terminology codelist used for anatomical location within CDISC.", "preferredTerm": "CDISC SDTM Anatomical Location Terminology", "synonyms": ["Anatomical Location"], "terms": [{"conceptId": "C116163", "submissionValue": "5TH LUMBAR SPINOUS PROCESS", "definition": "The spinous process of the 5th lumbar vertebra.", "preferredTerm": "Fifth Lumbar Spinous Process"}, {"conceptId": "C32038", "submissionValue": "ABDOMINAL AORTA", "definition": "The portion of the descending aorta that lies within the abdomen, beginning below the diaphragm and ending at its division into the right and left common iliac arteries. (NCI)", "preferredTerm": "Abdominal Aorta"}, {"conceptId": "C12664", "submissionValue": "ABDOMINAL CAVITY", "definition": "The body cavity between the thoracic and pelvic cavities in mammals.", "preferredTerm": "Abdomen", "synonyms": ["Abdomen"]}, {"conceptId": "C12360", "submissionValue": "ABDOMINAL LYMPH NODE", "definition": "Any lymph node within the abdomen.", "preferredTerm": "Intra-Abdominal Lymph Node"}, {"conceptId": "C139186", "submissionValue": "ABDOMINAL REGION", "definition": "Any portion of the body that lies within the boundary, either internally or externally, of the abdomen: superior margin, the thorax; inferior margin, the pelvis; lateral margins, the ribs.", "preferredTerm": "Abdominal Region"}, {"conceptId": "C52758", "submissionValue": "ABDOMINAL SKIN", "definition": "The integument that covers the abdomen.", "preferredTerm": "Abdominal Skin", "synonyms": ["Abdominal Skin"]}, {"conceptId": "C77608", "submissionValue": "ABDOMINAL WALL", "definition": "The tissue that surrounds the organs present in the abdominal cavity.", "preferredTerm": "Abdominal Wall"}, {"conceptId": "C12665", "submissionValue": "ABDUCENS NERVE", "definition": "The sixth cranial nerve.", "preferredTerm": "Abducens Nerve"}, {"conceptId": "C116183", "submissionValue": "ACCESSORY RENAL ARTERY", "definition": "An additional renal vessel originating from the aorta and entering the kidney at the proximal or distal end of the organ. Accessory renal arteries are found in 26-30% of humans.", "preferredTerm": "Accessory Renal Artery"}, {"conceptId": "C32042", "submissionValue": "ACETABULUM", "definition": "Two cup shaped areas, one each on the lateral side of the lower pelvis that house the head of the femur to form the ball and socket joint of the hip. (NCI)", "preferredTerm": "Acetabulum", "synonyms": ["Acetabulum"]}, {"conceptId": "C32043", "submissionValue": "ACHILLES TENDON", "definition": "The tendon that, in general, attaches the gastrocnemius muscle to the calcaneous bone in the tarsus.", "preferredTerm": "Achilles Tendon"}, {"conceptId": "C32047", "submissionValue": "ACROMIOCLAVICULAR JOINT", "definition": "The junction of the upper distal end of the scapula to the distal edge of the collarbone, also known as the acromion and the clavicle. (NCI)", "preferredTerm": "Acromioclavicular Joint", "synonyms": ["Acromioclavicular Joint"]}, {"conceptId": "C32048", "submissionValue": "ACROMION", "definition": "The upper distal process of the scapula. (NCI)", "preferredTerm": "Acromion", "synonyms": ["Acromion"]}, {"conceptId": "C102285", "submissionValue": "ACUTE MARGINAL ARTERY", "definition": "The arteries that arise at the junction of the proximal and mid-right coronary artery conduit segments.", "preferredTerm": "Acute Marginal Artery", "synonyms": ["ACUTE MARGINAL ARTERY SEGMENT(S)", "AMARG"]}, {"conceptId": "C52888", "submissionValue": "ADDUCTOR POLLICIS MUSCLE", "definition": "A skeletal muscle of the forearm originating from the posterior surfaces of the ulna and radius and the interosseous membrane. (NCI)", "preferredTerm": "Abductor Pollicis Longus"}, {"conceptId": "C12666", "submissionValue": "ADRENAL GLAND", "definition": "The endocrine glands adjacent to the kidneys that consist of the outer adrenal cortex and the inner adrenal medulla in mammals.", "preferredTerm": "Adrenal Gland"}, {"conceptId": "C12986", "submissionValue": "ALVEOLUS", "definition": "Any of the terminal sacs in the lungs through which gas exchange takes place with the pulmonary capillary blood.", "preferredTerm": "Alveolus", "synonyms": ["Alveoli"]}, {"conceptId": "C12440", "submissionValue": "AMYGDALA", "definition": "A group of nuclei adjacent to the lateral ventricle of the brain within the temporal lobe, and is part of the limbic system.", "preferredTerm": "Amygdala", "synonyms": ["Amygdala", "Amygdaloid Body", "Amygdaloid Nucleus"]}, {"conceptId": "C12375", "submissionValue": "ANAL CANAL", "definition": "The terminal section of the alimentary canal, which extends from the anorectal junction and ends at the anal opening. (NCI)", "preferredTerm": "Anal Canal"}, {"conceptId": "C25419", "submissionValue": "ANAL VERGE", "definition": "The transitional zone between the moist, hairless, modified skin of the anal canal and the perianal skin.", "preferredTerm": "Anal Margin"}, {"conceptId": "C15609", "submissionValue": "ANASTOMOSIS", "definition": "A natural or surgically-induced connection between tubular structures in the body. (NCI)", "preferredTerm": "Anastomosis", "synonyms": ["Anastomosis"]}, {"conceptId": "C32078", "submissionValue": "ANKLE JOINT", "definition": "A gliding joint between the distal ends of the tibia and fibula and the proximal end of the talus. (NCI)", "preferredTerm": "Ankle Joint", "synonyms": ["Ankle", "Ankle Joint"]}, {"conceptId": "C161390", "submissionValue": "ANKLE JOINT ANTERIOR EXTENSOR TENDONS", "definition": "The tendons in the anterior compartment of the leg that cross the tibiotalar joint anteriorly and connect muscles that originate on the surfaces of the tibia and fibula to bones in the toes, enabling dorsiflexion of the foot at the ankle and extension of the toes. (NCI)", "preferredTerm": "Ankle Joint Anterior Extensor Tendons"}, {"conceptId": "C161389", "submissionValue": "ANKLE JOINT ANTERIOR FLEXOR TENDONS", "definition": "The tendons in the anterior compartment of the leg that connect muscles that originate on the surfaces of the femur, tibia, and fibula to bones in the toes, enabling plantar flexion of the foot at the ankle. (NCI)", "preferredTerm": "Ankle Joint Anterior Flexor Tendons"}, {"conceptId": "C117868", "submissionValue": "ANKLE MORTISE", "definition": "A rectangular socket or bony arch that connects the ends of the tibia and fibula to the talus.", "preferredTerm": "Ankle Mortise", "synonyms": ["Talar Mortise"]}, {"conceptId": "C103238", "submissionValue": "ANTECUBITAL FOSSA", "definition": "A triangular space on the anterior side of the elbow joint. Three main veins of the arm, the brachial artery, the medial nerve and the tendon of the biceps muscle pass through this space.", "preferredTerm": "Antecubital Fossa"}, {"conceptId": "C139185", "submissionValue": "ANTERIOR CINGULATE CORTEX", "definition": "The part of the cingulate cortex that lies most frontal, with the most anterior portion of the cortex bending in a horseshoe shape around the genu of the corpus callosum.", "preferredTerm": "Anterior Cingulate Cortex"}, {"conceptId": "C96217", "submissionValue": "ANTERIOR CINGULATE GYRUS", "definition": "The part of the cingulate gyrus that lies inferior to the superior frontal gyrus, and is separated from it by the cingulate sulcus; it ends inferior to the rostrum of the corpus callosum.", "preferredTerm": "Cingulate Gyrus"}, {"conceptId": "C32637", "submissionValue": "ANTERIOR HORN OF THE LATERAL VENTRICLE", "definition": "The part of the lateral ventricle located in the frontal lobe, anterior to the interventricular foramen of Monroe, and bounded by the septum pellucidum, fornix, and genu of the corpus callosum.", "preferredTerm": "Frontal Horn of the Lateral Ventricle", "synonyms": ["Frontal Horn of the Lateral Ventricle"]}, {"conceptId": "C139187", "submissionValue": "ANTERIOR SUPERIOR ILIAC SPINE", "definition": "A bony projection from the anterior region of the iliac crest, and is the site of attachment for the sartorius and tensor fascia latae muscles and the inguinal ligament.", "preferredTerm": "Anterior Superior Iliac Spine"}, {"conceptId": "C12825", "submissionValue": "ANTERIOR TIBIAL ARTERY", "definition": "An artery of the lower extremity that supplies blood to the anterior part of the leg and the foot.", "preferredTerm": "Anterior Tibial Artery"}, {"conceptId": "C32115", "submissionValue": "ANTERIOR TIBIAL VEIN", "definition": "The vein that runs parallel to the anterior tibial artery and empties into the popliteal vein.", "preferredTerm": "Anterior Tibial Vein"}, {"conceptId": "C12259", "submissionValue": "ANTRUM PYLORI", "definition": "The initial part of the pyloric canal of the stomach. This site contains endocrine cells that produce gastrin and somatostatin. (NCI)", "preferredTerm": "Antrum Pylori", "synonyms": ["Antrum Pylori"]}, {"conceptId": "C43362", "submissionValue": "ANUS", "definition": "The distal orifice of the digestive tract located between the rectum and the external surface of the body, comprising glandular, transitional, and squamous epithelium.", "preferredTerm": "Anus"}, {"conceptId": "C12669", "submissionValue": "AORTA", "definition": "The major artery of the body; it arises from the left ventricle of the heart and terminally bifurcates into the common iliac arteries.", "preferredTerm": "Aorta"}, {"conceptId": "C32123", "submissionValue": "AORTIC ARCH", "definition": "The curved segment of the aorta between the ascending and the descending segments.", "preferredTerm": "Aortic Arch", "synonyms": ["Aortic Arch"]}, {"conceptId": "C12670", "submissionValue": "AORTIC VALVE", "definition": "A cardiac valve located between the left ventricle and the aorta.", "preferredTerm": "Aortic Valve"}, {"conceptId": "C130167", "submissionValue": "AORTIC VALVE ANNULUS", "definition": "A fibrous membrane that attaches to, and provides support for, the aortic valve leaflets.", "preferredTerm": "Aortic Valve Annulus"}, {"conceptId": "C127638", "submissionValue": "AORTIC VALVE, LEFT CORONARY CUSP", "definition": "The cusp of the aortic valve that overlies the left coronary ostium.", "preferredTerm": "Left Coronary Cusp of the Aortic Valve", "synonyms": ["Aortic Valve, Left Semilunar Cusp"]}, {"conceptId": "C127639", "submissionValue": "AORTIC VALVE, NON-CORONARY CUSP", "definition": "The cusp of the aortic valve that is positioned posteriorly relative to the left and right aortic cusps.", "preferredTerm": "Non-Coronary Cusp of the Aortic Valve", "synonyms": ["Aortic Valve, Posterior Semilunar Cusp"]}, {"conceptId": "C127640", "submissionValue": "AORTIC VALVE, RIGHT CORONARY CUSP", "definition": "The cusp of the aortic valve that overlies the right coronary ostium.", "preferredTerm": "Right Coronary Cusp of the Aortic Valve", "synonyms": ["Aortic Valve, Right Semilunar Cusp"]}, {"conceptId": "C116166", "submissionValue": "AORTO-ILIAC PERIPHERAL ARTERY", "definition": "The segment of the blood vessels that includes the iliac artery and its origin from the aorta.", "preferredTerm": "Aortoiliac Artery Segment"}, {"conceptId": "C118775", "submissionValue": "AORTOCAVAL LYMPH NODE", "definition": "A lymph node located in the area between the abdominal aorta and inferior vena cava. (NCI)", "preferredTerm": "Aortocaval Lymph Node"}, {"conceptId": "C116165", "submissionValue": "AORTOPULMONARY WINDOW LYMPH NODE", "definition": "A lymph node located in the aortopulmonary window.", "preferredTerm": "Aortopulmonary Window Lymph Node"}, {"conceptId": "C83470", "submissionValue": "APPENDICEAL TIP", "definition": "The distal end of the appendix. (NCI)", "preferredTerm": "Appendiceal Tip"}, {"conceptId": "C49477", "submissionValue": "APPENDICULAR SKELETON", "definition": "The part of the skeleton that includes the bones of the upper and lower limbs, including the shoulder and pelvic girdles", "preferredTerm": "Appendicular Skeleton"}, {"conceptId": "C12380", "submissionValue": "APPENDIX", "definition": "A pouch-like tissue attached to the cecum, which may exist as a diverticulum.", "preferredTerm": "Appendix"}, {"conceptId": "C32141", "submissionValue": "ARM", "definition": "The portion of the upper extremity between the shoulder and the elbow.", "preferredTerm": "Arm", "synonyms": ["Arm", "Brachium", "Upper Arm"]}, {"conceptId": "C52754", "submissionValue": "ARM SKIN", "definition": "The integument that covers the arm.", "preferredTerm": "Arm Skin", "synonyms": ["Arm Skin"]}, {"conceptId": "C12372", "submissionValue": "ARTERY", "definition": "A blood vessel that carries blood away from the heart. (NCI)", "preferredTerm": "Artery", "synonyms": ["Artery"]}, {"conceptId": "C32150", "submissionValue": "ASCENDING AORTA", "definition": "The portion of the aorta that emerges from the left ventricle and precedes the aortic arch.", "preferredTerm": "Ascending Aorta"}, {"conceptId": "C127641", "submissionValue": "ASCENDING AORTA, AORTIC ROOT", "definition": "The portion of the ascending aorta between the aortic annulus and the sinotubular junction.", "preferredTerm": "Aortic Root"}, {"conceptId": "C127642", "submissionValue": "ASCENDING AORTA, SINOTUBULAR JUNCTION", "definition": "The terminus of the aortic root; the point at which the aorta attains a tubular configuration.", "preferredTerm": "Sinotubular Junction"}, {"conceptId": "C33557", "submissionValue": "ASCENDING AORTA, SINUS OF VALSALVA", "definition": "Any one of the naturally occurring sinuses of the aortic root distal to the semilunar valve.", "preferredTerm": "Sinus of Valsalva"}, {"conceptId": "C32172", "submissionValue": "AXIAL SKELETON", "definition": "The part of the skeleton that includes the skull and spinal column and sternum and ribs. (NCI)", "preferredTerm": "Axial Skeleton"}, {"conceptId": "C12674", "submissionValue": "AXILLA", "definition": "The underside concavity where the arm and the shoulder are joined. (NCI)", "preferredTerm": "Axilla", "synonyms": ["Axilla"]}, {"conceptId": "C32169", "submissionValue": "AXILLARY ARTERY", "definition": "An artery that originates from the subclavian artery at the lateral margin of the first rib. It supplies the brachial artery.", "preferredTerm": "Axillary Artery"}, {"conceptId": "C12904", "submissionValue": "AXILLARY LYMPH NODE", "definition": "Lymph node(s) in the axillary region.", "preferredTerm": "Axillary Lymph Node"}, {"conceptId": "C123461", "submissionValue": "AXILLARY LYMPH NODE LEVEL I", "definition": "Axillary lymph nodes located inferolateral to pectoralis minor.", "preferredTerm": "Axillary Lymph Node Level I"}, {"conceptId": "C123462", "submissionValue": "AXILLARY LYMPH NODE LEVEL II", "definition": "Axillary lymph nodes located posterior to pectoralis minor.", "preferredTerm": "Axillary Lymph Node Level II"}, {"conceptId": "C123463", "submissionValue": "AXILLARY LYMPH NODE LEVEL III", "definition": "Axillary lymph nodes located superomedial to pectoralis minor.", "preferredTerm": "Axillary Lymph Node Level III"}, {"conceptId": "C32171", "submissionValue": "AXILLARY VEIN", "definition": "A large blood vessel which returns blood to the heart from the lateral thorax, axilla and upper limb. Each side of the body contains one axillary vein.", "preferredTerm": "Axillary Vein"}, {"conceptId": "C13062", "submissionValue": "BACK", "definition": "The dorsal area between the base of the neck and the sacrum. (NCI)", "preferredTerm": "Back", "synonyms": ["Back"]}, {"conceptId": "C12447", "submissionValue": "BASAL GANGLIA", "definition": "Clusters of neurons comprising the globus pallidus, putamen, caudate, nucleus accumbens, substantia nigra and subthalamic nucleus.", "preferredTerm": "Basal Ganglia"}, {"conceptId": "C32197", "submissionValue": "BASILIC VEIN", "definition": "One of the moderately large superficial veins of the forearm that transports blood from the hand and the medial aspect of the forearm to the axillary vein. (NCI)", "preferredTerm": "Basilic Vein", "synonyms": ["Basilic Vein"]}, {"conceptId": "C32200", "submissionValue": "BICEPS BRACHII MUSCLE", "definition": "A muscle of the proximal arm/forelimb, in general extending from the scapula to the radius and adjacent fascia; primary function is flexion of the elbow joint and, in some species, also functions in supination of the antebrachium.", "preferredTerm": "Biceps"}, {"conceptId": "C53147", "submissionValue": "BICEPS FEMORIS MUSCLE", "definition": "A muscle in the thigh, in general extending from the ischial tuberosity and posterior femur to the fibula; primary function is to extend the femorotibial joint.", "preferredTerm": "Biceps Femoris"}, {"conceptId": "C12376", "submissionValue": "BILE DUCT", "definition": "Any of the ducts conveying bile between the liver and the intestine, including hepatic, cystic, and common bile duct.", "preferredTerm": "Bile Duct"}, {"conceptId": "C12678", "submissionValue": "BILIARY TRACT", "definition": "The duct system that transports bile from its origination by hepatocytes in the liver to the small intestine. It is comprised of the common bile duct that connects the liver and gall bladder to the small intestine and the cystic duct that connects the gall bladder to the common bile duct. (NCI)", "preferredTerm": "Biliary Tract", "synonyms": ["Biliary Tract"]}, {"conceptId": "C12414", "submissionValue": "BLADDER", "definition": "The distensible sac-like organ that functions as a reservoir of urine, collecting from the kidneys and eliminating via the urethra. (NCI)", "preferredTerm": "Bladder"}, {"conceptId": "C48941", "submissionValue": "BLADDER WALL", "definition": "The tissue layers that form the urinary bladder. They include the mucosa, submucosa, smooth muscle, and serosa.", "preferredTerm": "Bladder Wall"}, {"conceptId": "C12332", "submissionValue": "BLADDER, DOME", "definition": "The upper, convex surface of the bladder. (NCI)", "preferredTerm": "Dome of the Bladder", "synonyms": ["Dome of the Bladder"]}, {"conceptId": "C48939", "submissionValue": "BLADDER, FUNDUS", "definition": "The portion of the bladder that is formed by the posterior wall and is located opposite to the bladder opening. (NCI)", "preferredTerm": "Bladder Fundus", "synonyms": ["Fundus of the Bladder"]}, {"conceptId": "C12336", "submissionValue": "BLADDER, NECK", "definition": "The inferior portion of the urinary bladder which is formed as the walls of the bladder converge and become contiguous with the proximal urethra. (NCI)", "preferredTerm": "Bladder Neck", "synonyms": ["Neck of the Bladder"]}, {"conceptId": "C12331", "submissionValue": "BLADDER, TRIGONE", "definition": "The triangular area in the bladder mucosa that is formed by the two ureteral orifices and the urethral orifice. (NCI)", "preferredTerm": "Bladder Trigone", "synonyms": ["Trigone of the Bladder"]}, {"conceptId": "C12434", "submissionValue": "BLOOD", "definition": "A liquid tissue with the primary function of transporting oxygen and carbon dioxide. It supplies the tissues with nutrients, removes waste products, and contains various components of the immune system defending the body against infection.", "preferredTerm": "Blood", "synonyms": ["Peripheral Blood", "Whole Blood"]}, {"conceptId": "C12679", "submissionValue": "BLOOD VESSEL", "definition": "A tubular structure through which the blood circulates in the body. Blood vessels constitute a network composed of arteries, arterioles, capillaries, venules, and veins. (NCI)", "preferredTerm": "Blood Vessel"}, {"conceptId": "C13041", "submissionValue": "BODY", "definition": "The entire physical structure of an organism. It is composed of anatomic systems, regions, cavities, and spaces. (NCI)", "preferredTerm": "Body", "synonyms": ["Whole Body"]}, {"conceptId": "C12258", "submissionValue": "BODY OF STOMACH", "definition": "The main section of the digestive tube that connects the esophagus to the small intestine. The body proper excludes the upper and lower sections of the fundus and pyloric portion respectively. (NCI)", "preferredTerm": "Body of Stomach", "synonyms": ["Body of Stomach"]}, {"conceptId": "C12366", "submissionValue": "BONE", "definition": "Calcified connective tissue that forms the skeletal components of the body. (NCI)", "preferredTerm": "Bone"}, {"conceptId": "C12431", "submissionValue": "BONE MARROW", "definition": "The tissue occupying the spaces of some bones. It consists of blood vessel sinuses and a network of hematopoietic cells.", "preferredTerm": "Bone Marrow"}, {"conceptId": "C12681", "submissionValue": "BRACHIAL ARTERY", "definition": "An artery of the forelimb; in general it arises from the axillary artery and branches to form the radial and ulnar arteries.", "preferredTerm": "Brachial Artery"}, {"conceptId": "C92221", "submissionValue": "BRACHIAL LYMPH NODE", "definition": "Lymph node(s) adjacent to the brachial vein.", "preferredTerm": "Brachial Lymph Node"}, {"conceptId": "C12682", "submissionValue": "BRACHIAL PLEXUS", "definition": "A nerve network originating from spinal nerves in the cervical and thoracic vertebrae and giving rise to multiple nerves that innervate the arm/forelimb.", "preferredTerm": "Brachial Plexus", "synonyms": ["Brachial Plexus"]}, {"conceptId": "C12883", "submissionValue": "BRACHIAL VEIN", "definition": "A vein of the arm/forelimb; in general it arises from the union of the radial and ulnar veins and drains into the axillary vein.", "preferredTerm": "Brachial Vein"}, {"conceptId": "C53149", "submissionValue": "BRACHIALIS MUSCLE", "definition": "A muscle that originates from the lower two-thirds of the anterior surface of the humerus that flexes the elbow. (NCI)", "preferredTerm": "Brachialis"}, {"conceptId": "C32814", "submissionValue": "BRACHIOCEPHALIC ARTERY", "definition": "An artery of the mediastinum; in general it arises from the aortic arch and branches to form the right subclavian artery and one or both common carotid arteries.", "preferredTerm": "Innominate Artery", "synonyms": ["Innominate Artery"]}, {"conceptId": "C150849", "submissionValue": "BRACHIORADIALIS MUSCLE", "definition": "A muscle in the forearm, in general extending from the proximal two-thirds of the lateral supracondylar ridge of the humerus and inserting into the styloid process of the radius; primary function is flexion of the elbow and pronation and supination of the forearm.", "preferredTerm": "Brachioradialis Muscle"}, {"conceptId": "C12439", "submissionValue": "BRAIN", "definition": "An organ composed of grey and white matter that is the center for intelligence and reasoning. It is protected by the bony cranium.", "preferredTerm": "Brain", "synonyms": ["Nervous System, Brain"]}, {"conceptId": "C12441", "submissionValue": "BRAIN STEM", "definition": "The part of the brain that connects the cerebral hemispheres with the spinal cord. It consists of the mesencephalon, pons, and medulla oblongata. (NCI)", "preferredTerm": "Brain Stem", "synonyms": ["Brain Stem"]}, {"conceptId": "C12356", "submissionValue": "BRAIN VENTRICLE", "definition": "The four connected cavities (hollow spaces) centrally located within the brain that connect posteriorly with the central canal of the spinal cord. (NCI)", "preferredTerm": "Brain Ventricle", "synonyms": ["Brain Ventricle"]}, {"conceptId": "C12834", "submissionValue": "BRAIN VENTRICLE, LATERAL", "definition": "The rostral extensions of the ventricular system of the brain consisting of two cavities, one on each side of the brain within the central regions of each cerebral hemisphere. Cerebrospinal fluid flows from the lateral ventricles into the centrally third ventricle via the foramen of Monroe. (NCI)", "preferredTerm": "Lateral Ventricle"}, {"conceptId": "C132390", "submissionValue": "BRAIN, PERIVENTRICULAR REGION", "definition": "The area of the body surrounding the ventricles of the brain.", "preferredTerm": "Periventricular Region"}, {"conceptId": "C12827", "submissionValue": "BRAIN, THIRD VENTRICLE", "definition": "A centrally placed component of the ventricular system of the brain that is located in the diencephalon; the thalamus and the hypothalamus border the third ventricle.", "preferredTerm": "Third Ventricle"}, {"conceptId": "C12971", "submissionValue": "BREAST", "definition": "One of two hemispheric projections of variable size situated in the subcutaneous layer over the pectoralis major muscle on either side of the chest. (NCI)", "preferredTerm": "Breast", "synonyms": ["Breast"]}, {"conceptId": "C12683", "submissionValue": "BRONCHUS", "definition": "Tubular structure in continuation with the trachea, serving as an air passage.", "preferredTerm": "Bronchus", "synonyms": ["Bronchi"]}, {"conceptId": "C154770", "submissionValue": "BUCCAL LYMPH NODE", "definition": "Lymph node(s) that are located superficial to the buccinator muscle.", "preferredTerm": "Buccal Lymph Node", "synonyms": ["Buccinator Lymph Node"]}, {"conceptId": "C12505", "submissionValue": "BUCCAL MUCOSA", "definition": "The mucosal membranes located on the inside of the cheek, in the buccal cavity. (NCI)", "preferredTerm": "Buccal Mucosa"}, {"conceptId": "C12902", "submissionValue": "BULBAR CONJUNCTIVA", "definition": "The part of the conjunctiva that covers the eyeball.", "preferredTerm": "Bulbar Conjunctiva"}, {"conceptId": "C89806", "submissionValue": "BUTTOCK", "definition": "Either of the fleshy mounds in the rear pelvic area of the human body formed by the gluteal muscles.", "preferredTerm": "Buttock", "synonyms": ["Buttock"]}, {"conceptId": "C32239", "submissionValue": "C1 VERTEBRA", "definition": "The first of the seven cervical vertebrae. (NCI)", "preferredTerm": "C1 Vertebra", "synonyms": ["C1 Vertebra"]}, {"conceptId": "C32240", "submissionValue": "C2 VERTEBRA", "definition": "The second of the seven cervical vertebrae. (NCI)", "preferredTerm": "C2 Vertebra", "synonyms": ["C2 Vertebra"]}, {"conceptId": "C32241", "submissionValue": "C3 VERTEBRA", "definition": "The third of the seven cervical vertebrae. (NCI)", "preferredTerm": "C3 Vertebra", "synonyms": ["C3 Vertebra"]}, {"conceptId": "C32242", "submissionValue": "C4 VERTEBRA", "definition": "The fourth of the seven cervical vertebrae. (NCI)", "preferredTerm": "C4 Vertebra", "synonyms": ["C4 Vertebra"]}, {"conceptId": "C32243", "submissionValue": "C5 VERTEBRA", "definition": "The fifth of the seven cervical vertebrae. (NCI)", "preferredTerm": "C5 Vertebra", "synonyms": ["C5 Vertebra"]}, {"conceptId": "C32244", "submissionValue": "C6 VERTEBRA", "definition": "The sixth of the seven cervical vertebrae. (NCI)", "preferredTerm": "C6 Vertebra", "synonyms": ["C6 Vertebra"]}, {"conceptId": "C32245", "submissionValue": "C7 VERTEBRA", "definition": "The seventh of the seven cervical vertebrae. (NCI)", "preferredTerm": "C7 Vertebra", "synonyms": ["C7 Vertebra"]}, {"conceptId": "C142295", "submissionValue": "CALCANEAL TUBEROSITY", "definition": "A roughened surface on the superior portion of the posterior half of the calcaneus, where the calcaneal (Achilles) tendon inserts.", "preferredTerm": "Calcaneal Tuberosity"}, {"conceptId": "C32250", "submissionValue": "CALCANEUS", "definition": "The irregular and largest tarsal bone that forms the heel. (NCI)", "preferredTerm": "Calcaneum", "synonyms": ["Calcaneum", "Calcaneus Bone"]}, {"conceptId": "C32252", "submissionValue": "CALCARINE SULCUS", "definition": "A cerebral fissure that originates near the occipital lobe and terminates below the corpus callosum. (NCI)", "preferredTerm": "Calcarine Sulcus"}, {"conceptId": "C93027", "submissionValue": "CALF", "definition": "The posterior aspect of the lower extremity that extends from the knee to the foot. (NCI)", "preferredTerm": "Calf"}, {"conceptId": "C154703", "submissionValue": "CALF MUSCULAR VEIN", "definition": "Any of the veins located within the muscles of the posterior lower leg, such as the gastrocnemial, soleal, and gemellar veins.", "preferredTerm": "Calf Muscular Vein"}, {"conceptId": "C32258", "submissionValue": "CANINE TOOTH", "definition": "A single-cusped (pointed) and usually single-rooted tooth located between the incisors and premolars. (NCI)", "preferredTerm": "Canine Tooth", "synonyms": ["Canine Tooth"]}, {"conceptId": "C12856", "submissionValue": "CAPITATE BONE", "definition": "The largest of eight carpal bones, located in the center of the hand. (NCI)", "preferredTerm": "Capitate Bone", "synonyms": ["Capitate Bone"]}, {"conceptId": "C139188", "submissionValue": "CAPITATE-HAMATE JOINT", "definition": "A condyloid synovial joint within the wrist connecting the capitate bone to the hamate bone.", "preferredTerm": "Capitate-Hamate Joint"}, {"conceptId": "C139189", "submissionValue": "CAPITATE-LUNATE JOINT", "definition": "A condyloid synovial joint within the wrist connecting the capitate bone to the lunate bone.", "preferredTerm": "Capitate-Lunate Joint"}, {"conceptId": "C12729", "submissionValue": "CARDIAC VALVE", "definition": "A valve located in the heart.", "preferredTerm": "Cardiac Valve"}, {"conceptId": "C139201", "submissionValue": "CARDIAC WALL", "definition": "All of the tissue that comprises the solid, outer structure of the heart, including the epicardium, the myocardium, and the endocardium.", "preferredTerm": "Cardiac Wall"}, {"conceptId": "C12686", "submissionValue": "CARDIOVASCULAR SYSTEM", "definition": "A collection of organs including the heart and the blood vessels.", "preferredTerm": "Cardiovascular System", "synonyms": ["Circulatory System"]}, {"conceptId": "C12687", "submissionValue": "CAROTID ARTERY", "definition": "An artery of the mediastinum and neck; in general it arises as a primary or secondary branch of the aortic arch and branches into the internal and external carotid arteries.", "preferredTerm": "Carotid Artery", "synonyms": ["Common Carotid Artery"]}, {"conceptId": "C12688", "submissionValue": "CARPAL BONE", "definition": "Any of the bones of the joint located between the radius and ulna and metacarpus.", "preferredTerm": "Carpal Bone"}, {"conceptId": "C32265", "submissionValue": "CARPOMETACARPAL JOINT", "definition": "The articulation of the proximal bases of the metacarpal bones and the distal carpal bones in the fingers, and the first metacarpal bone and the trapezium bone of the wrist in the thumb.", "preferredTerm": "Carpometacarpal Joint"}, {"conceptId": "C103912", "submissionValue": "CARPOMETACARPAL JOINT 1", "definition": "A saddle-shaped synovial joint between the metacarpal of the thumb and the trapezium. (NCI)", "preferredTerm": "Carpometacarpal Joint 1", "synonyms": ["CMC1"]}, {"conceptId": "C103913", "submissionValue": "CARPOMETACARPAL JOINT 2", "definition": "A plane joint primarily between the second metacarpal and the trapezoid, which also connects with the trapezium and capitate. (NCI)", "preferredTerm": "Carpometacarpal Joint 2", "synonyms": ["CMC2"]}, {"conceptId": "C103914", "submissionValue": "CARPOMETACARPAL JOINT 3", "definition": "A plane joint between the third metacarpal and the capitate. (NCI)", "preferredTerm": "Carpometacarpal Joint 3", "synonyms": ["CMC3"]}, {"conceptId": "C103915", "submissionValue": "CARPOMETACARPAL JOINT 4", "definition": "A plane joint between the fourth metacarpal and the hamate. (NCI)", "preferredTerm": "Carpometacarpal Joint 4", "synonyms": ["CMC4"]}, {"conceptId": "C103916", "submissionValue": "CARPOMETACARPAL JOINT 5", "definition": "A plane joint between the fifth metacarpal and the pisiform. (NCI)", "preferredTerm": "Carpometacarpal Joint 5", "synonyms": ["CMC5"]}, {"conceptId": "C12451", "submissionValue": "CAUDATE NUCLEUS", "definition": "The grey matter adjacent to each lateral ventricle of the brain that comprises the medial dorsal striatum of the basal ganglia.", "preferredTerm": "Caudate Nucleus"}, {"conceptId": "C12381", "submissionValue": "CECUM", "definition": "The pouch-like portion of the proximal large intestine opening into the colon.", "preferredTerm": "Cecum"}, {"conceptId": "C65166", "submissionValue": "CELIAC LYMPH NODE", "definition": "A lymph node at the base of the celiac artery. (NCI)", "preferredTerm": "Celiac Lymph Node", "synonyms": ["Celiac Axis Lymph Node", "Celiac Lymph Node"]}, {"conceptId": "C12438", "submissionValue": "CENTRAL NERVOUS SYSTEM", "definition": "The part of the nervous system that consists of the brain, spinal cord, and meninges. (NCI)", "preferredTerm": "Central Nervous System"}, {"conceptId": "C32286", "submissionValue": "CEPHALIC VEIN", "definition": "A vein of the arm/forelimb; in general it arises from the dorsal venous network of the hand/forefoot and drains into the axillary vein.", "preferredTerm": "Cephalic Vein", "synonyms": ["Vena Cephalica"]}, {"conceptId": "C12445", "submissionValue": "CEREBELLUM", "definition": "The portion of the brain that extends from the brainstem through the cerebellar folia.", "preferredTerm": "Cerebellum"}, {"conceptId": "C12691", "submissionValue": "CEREBRAL ARTERY", "definition": "Any artery supplying the cerebral cortex.", "preferredTerm": "Cerebral Artery"}, {"conceptId": "C12443", "submissionValue": "CEREBRAL CORTEX", "definition": "The outer layer of the cerebrum composed of neurons and unmyelinated nerve fibers. It is responsible for memory, attention, consciousness and other higher levels of mental function.", "preferredTerm": "Cerebral Cortex", "synonyms": ["Cerebral Cortex"]}, {"conceptId": "C32955", "submissionValue": "CEREBRAL HEMISPHERE, LEFT", "definition": "The left half of the cerebrum.", "preferredTerm": "Left Cerebral Hemisphere"}, {"conceptId": "C33472", "submissionValue": "CEREBRAL HEMISPHERE, RIGHT", "definition": "The right half of the cerebrum.", "preferredTerm": "Right Cerebral Hemisphere"}, {"conceptId": "C98712", "submissionValue": "CEREBRAL SUBCORTEX", "definition": "The layer located below the cerebral cortex that includes the forebrain, midbrain and hindbrain. (NCI)", "preferredTerm": "Cerebral Subcortex", "synonyms": ["Cerebral Subcortex"]}, {"conceptId": "C53037", "submissionValue": "CEREBRAL VEIN", "definition": "Any of the external or internal veins that drain the cerebral hemispheres.", "preferredTerm": "Cerebral Vein"}, {"conceptId": "C12351", "submissionValue": "CEREBRUM", "definition": "The portion of the brain comprising the frontal, parietal, temporal, and occipital lobes and extending through the thalamus.", "preferredTerm": "Cerebral Hemisphere"}, {"conceptId": "C32298", "submissionValue": "CERVICAL LYMPH NODE", "definition": "Lymph node(s) in the cervical region, or neck.", "preferredTerm": "Cervical Lymph Node"}, {"conceptId": "C69313", "submissionValue": "CERVICAL SPINE", "definition": "The vertebrae located above the thoracic vertebrae.", "preferredTerm": "Cervical Spine"}, {"conceptId": "C12693", "submissionValue": "CERVICAL VERTEBRA", "definition": "Any one of the vertebrae situated between the skull and the thoracic vertebrae.", "preferredTerm": "Cervical Vertebra"}, {"conceptId": "C12311", "submissionValue": "CERVIX UTERI", "definition": "The portion of the uterus (or uterine horns) that empties into the vagina.", "preferredTerm": "Cervix Uteri", "synonyms": ["Cervix Uteri", "Uterine Cervix"]}, {"conceptId": "C13070", "submissionValue": "CHEEK", "definition": "The soft tissue on the lateral aspects of the face, generally bounded by the eyes, nose, ear, and jaw line.", "preferredTerm": "Cheek"}, {"conceptId": "C25389", "submissionValue": "CHEST", "definition": "The anterior side of the thorax from the neck to the abdomen. The shape of the chest is often regarded as potential insight into a disease process, as in the case of barrel chest and respiratory dysfunction. (NCI)", "preferredTerm": "Chest", "synonyms": ["Chest"]}, {"conceptId": "C62484", "submissionValue": "CHEST WALL", "definition": "The total system of structures outside the lungs that move as a part of breathing; it includes all structures from the skin to the parietal pleura. (NCI)", "preferredTerm": "Chest Wall", "synonyms": ["Chest Wall"]}, {"conceptId": "C81169", "submissionValue": "CHIN", "definition": "The part of the face below the lower lip and including the protruding part of the lower jaw.", "preferredTerm": "Mentum"}, {"conceptId": "C12344", "submissionValue": "CHOROID", "definition": "A blood vessel-containing membrane of the eye that lies between the retina and the sclera. (NCI)", "preferredTerm": "Choroid"}, {"conceptId": "C12694", "submissionValue": "CHOROID PLEXUS", "definition": "Blood vessels and ependyma forming villous structures in the ventricles of the brain.", "preferredTerm": "Choroid Plexus"}, {"conceptId": "C12345", "submissionValue": "CILIARY BODY", "definition": "Circumferential tissue located behind the iris and composed of muscle and epithelium.", "preferredTerm": "Ciliary Body"}, {"conceptId": "C52713", "submissionValue": "CINGULATE CORTEX", "definition": "Part of the medial aspect of the cerebral cortex. (NCI)", "preferredTerm": "Cingulate Cortex"}, {"conceptId": "C102287", "submissionValue": "CIRCUMFLEX ARTERY AV GROOVE CONTINUATION ARTERY", "definition": "The segment of the left circumflex artery that is distal to the third marginal branch, located in the atrioventricular groove.", "preferredTerm": "Circumflex Artery AV Groove Continuation Artery", "synonyms": ["CIRC AV", "CIRCUMFLEX ARTERY AV GROOVE CONTINUATION ARTERY SEGMENT"]}, {"conceptId": "C102286", "submissionValue": "CIRCUMFLEX, OBTUSE MARGINALS, LEFT POSTEROLETERAL AND LEFT POSTERIOR DESCENDING ARTERY BRANCHES", "definition": "The left circumflex coronary artery and all of its branches.", "preferredTerm": "Circumflex Artery and its Branches"}, {"conceptId": "C12695", "submissionValue": "CLAVICLE", "definition": "The paired bone that is situated between the sternum and the shoulder.", "preferredTerm": "Clavicle"}, {"conceptId": "C12308", "submissionValue": "CLITORIS", "definition": "The erectile tissue in the vulva. It is composed of the corpora cavernosa and the glans clitoris.", "preferredTerm": "Clitoris"}, {"conceptId": "C32334", "submissionValue": "COCCYGEAL VERTEBRA", "definition": "Four vertebral segments positioned at the base of the spine that are fused. (NCI)", "preferredTerm": "Coccygeal Vertebra", "synonyms": ["Coccygeal Vertebra"]}, {"conceptId": "C12696", "submissionValue": "COCCYX", "definition": "A small bone located at the bottom of the spine. The coccyx is a result of 3-5 fused rudimentary vertebrae. (NCI)", "preferredTerm": "Coccyx", "synonyms": ["Coccyx"]}, {"conceptId": "C12382", "submissionValue": "COLON", "definition": "The portion of the large intestine which extends from the cecum (or small intestine in animals that don't have a cecum) to the rectum.", "preferredTerm": "Colon"}, {"conceptId": "C12265", "submissionValue": "COLON, ASCENDING", "definition": "The first part of the colon (large intestine) that starts in the right lower quadrant of the abdomen and ends at the transverse colon in the right upper quadrant of the abdomen. (NCI)", "preferredTerm": "Ascending Colon", "synonyms": ["Ascending Colon"]}, {"conceptId": "C12268", "submissionValue": "COLON, DESCENDING", "definition": "The fourth portion of the large intestine (colon) that communicates with the transverse colon in the left-upper quadrant of the abdomen and the rectum below. (NCI)", "preferredTerm": "Descending Colon", "synonyms": ["Descending Colon"]}, {"conceptId": "C12266", "submissionValue": "COLON, HEPATIC FLEXURE", "definition": "The bend at the junction of the ascending and transverse colon.", "preferredTerm": "Hepatic Flexure", "synonyms": ["Hepatic Flexure", "Right Colic Flexure"]}, {"conceptId": "C33929", "submissionValue": "COLON, LEFT", "definition": "The portion of the large intestine that includes the descending and sigmoid colon. (NCI)", "preferredTerm": "Left Colon", "synonyms": ["Left Colon"]}, {"conceptId": "C103438", "submissionValue": "COLON, RECTOSIGMOID", "definition": "A portion of the large intestine that includes the descending colon, sigmoid colon and rectum.", "preferredTerm": "Rectosigmoid Colon"}, {"conceptId": "C12383", "submissionValue": "COLON, RIGHT", "definition": "The proximal segment of the large intestine that is located in the right side of the abdominal cavity. It includes the cecum (with the attached appendix) and the ascending colon. (NCI)", "preferredTerm": "Right Colon", "synonyms": ["Right Colon"]}, {"conceptId": "C12384", "submissionValue": "COLON, SIGMOID", "definition": "The portion of the colon that connects to the descending colon above and the rectum below. (NCI)", "preferredTerm": "Sigmoid Colon", "synonyms": ["Sigmoid Colon"]}, {"conceptId": "C12267", "submissionValue": "COLON, SPLENIC FLEXURE", "definition": "The bend at the junction of the transverse and descending colon.", "preferredTerm": "Splenic Flexure", "synonyms": ["Left Colic Flexure", "Splenic Flexure"]}, {"conceptId": "C12385", "submissionValue": "COLON, TRANSVERSE", "definition": "The third division of the colon (large intestine). It communicates with the ascending colon in the upper right-hand quadrant of the abdomen and the descending colon in the upper left-hand quadrant. (NCI)", "preferredTerm": "Transverse Colon", "synonyms": ["Transverse Colon"]}, {"conceptId": "C32354", "submissionValue": "COMMON FEMORAL ARTERY", "definition": "An artery arising from the external iliac artery at the inguinal ligament which bifurcates forming the deep and superficial femoral arteries.", "preferredTerm": "Common Femoral Artery"}, {"conceptId": "C154771", "submissionValue": "COMMON FEMORAL VEIN", "definition": "A vein that accompanies the common femoral artery and originates at the confluence of the femoral vein and the deep femoral vein.", "preferredTerm": "Common Femoral Vein"}, {"conceptId": "C32357", "submissionValue": "COMMON ILIAC ARTERY", "definition": "An artery arising from the bifurcation of the abdominal aorta which then bifurcates forming the internal and external iliac arteries.", "preferredTerm": "Common Iliac Artery"}, {"conceptId": "C103384", "submissionValue": "COMMON ILIAC LYMPH NODE", "definition": "A lymph node located adjacent to the common iliac artery. (NCI)", "preferredTerm": "Common Iliac Lymph Node"}, {"conceptId": "C12341", "submissionValue": "CONJUNCTIVA", "definition": "A thin tissue divided into the palpebral conjunctiva (covering the inner side of the eye lid) and the bulbar conjunctiva (covering the eyeball). (NCI)", "preferredTerm": "Conjunctiva"}, {"conceptId": "C12342", "submissionValue": "CORNEA", "definition": "The transparent, avascular tissue covering the front of the eye and is continuous with the sclera.", "preferredTerm": "Cornea"}, {"conceptId": "C12707", "submissionValue": "CORNEAL ENDOTHELIUM", "definition": "The endothelial layer of the cornea.", "preferredTerm": "Corneal Endothelium"}, {"conceptId": "C12928", "submissionValue": "CORNEAL EPITHELIUM", "definition": "The epithelial layer of the cornea.", "preferredTerm": "Corneal Epithelium"}, {"conceptId": "C12699", "submissionValue": "CORNEAL STROMA", "definition": "The stromal layer of the cornea.", "preferredTerm": "Corneal Stroma"}, {"conceptId": "C12843", "submissionValue": "CORONARY ARTERY", "definition": "One of the arteries of the heart; in general it arises from the aortic root and supplies the myocardium.", "preferredTerm": "Coronary Artery"}, {"conceptId": "C32089", "submissionValue": "CORONARY ARTERY, ANTERIOR DESCENDING", "definition": "A left coronary artery branch that descends on the anterior portion of the heart through the anterior interventricular groove. (NCI)", "preferredTerm": "Anterior Descending Coronary Artery", "synonyms": ["Anterior Descending Coronary Artery", "Left Anterior Descending Coronary Artery"]}, {"conceptId": "C12872", "submissionValue": "CORONARY ARTERY, LEFT", "definition": "A coronary artery that arises from the aorta and bifurcates into the left anterior descending artery and the left circumflex artery. (NCI)", "preferredTerm": "Left Coronary Artery", "synonyms": ["LM", "Left Coronary Artery", "Left Main Coronary Artery", "Left Main Coronary Artery Segment"]}, {"conceptId": "C12875", "submissionValue": "CORONARY ARTERY, RIGHT", "definition": "A coronary artery that originates above the right coronary cusp and supplies blood predominantly to the right side of the heart. (NCI)", "preferredTerm": "Right Coronary Artery", "synonyms": ["Right Coronary Artery"]}, {"conceptId": "C32378", "submissionValue": "CORONARY SINUS", "definition": "The coronary vein that terminates in the right atrium and transports deoxygenated blood from the coronary circulation.", "preferredTerm": "Coronary Sinus"}, {"conceptId": "C12882", "submissionValue": "CORONARY VEIN", "definition": "A blood vessel in the heart which returns coronary blood to the right atrium.", "preferredTerm": "Coronary Vein"}, {"conceptId": "C12446", "submissionValue": "CORPUS CALLOSUM", "definition": "A white matter structure within the brain that connects the left and right cerebral hemispheres.", "preferredTerm": "Corpus Callosum"}, {"conceptId": "C32216", "submissionValue": "CORPUS CALLOSUM, BODY", "definition": "An area within the corpus callosum between the genu (anterior region) and the splenium (posterior region).", "preferredTerm": "Body of the Corpus Callosum"}, {"conceptId": "C32675", "submissionValue": "CORPUS CALLOSUM, GENU", "definition": "The anterior portion of the corpus callosum that bends down and back.", "preferredTerm": "Genu of the Corpus Callosum"}, {"conceptId": "C33610", "submissionValue": "CORPUS CALLOSUM, SPLENIUM", "definition": "The thick, convex posterior region of the corpus callosum.", "preferredTerm": "Splenium of the Corpus Callosum"}, {"conceptId": "C26465", "submissionValue": "CORPUS LUTEUM", "definition": "A group of cells that remain of the Graafian follicle following ovulation. This structure is composed of endocrine tissue and produces progesterone. This is needed to prepare the uterine lining for implantation by the fertilized egg. (NCI)", "preferredTerm": "Corpus Luteum", "synonyms": ["Corpus Luteum"]}, {"conceptId": "C12448", "submissionValue": "CORPUS STRIATUM", "definition": "The portion of the brain consisting of the neostriatum and globus pallidus.", "preferredTerm": "Corpus Striatum"}, {"conceptId": "C12316", "submissionValue": "CORPUS UTERI", "definition": "The body of the uterus.", "preferredTerm": "Corpus Uteri", "synonyms": ["Uterine Body", "Uterus, Corpus"]}, {"conceptId": "C32391", "submissionValue": "COSTAL CARTILAGE", "definition": "The cartilage positioned between the anterior end of the rib and the sternum. Its elasticity allows the ribcage to expand while breathing. (NCI)", "preferredTerm": "Costal Cartilage", "synonyms": ["Costal Cartilage"]}, {"conceptId": "C102288", "submissionValue": "COSTOCHONDRAL JOINT 1", "definition": "The first hyaline cartilaginous joint between the ribs and costal cartilage.", "preferredTerm": "Costochondral Joint 1"}, {"conceptId": "C102289", "submissionValue": "COSTOCHONDRAL JOINT 7", "definition": "The seventh hyaline cartilaginous joint between the ribs and costal cartilage.", "preferredTerm": "Costochondral Joint 7"}, {"conceptId": "C77638", "submissionValue": "CRANIAL CAVITY", "definition": "The space that is formed by the bones of the skull, and contains the brain.", "preferredTerm": "Cranial Cavity", "synonyms": ["Intracranial Cavity"]}, {"conceptId": "C12700", "submissionValue": "CRANIAL NERVE", "definition": "Any of the 12 paired nerves that originate in the brain stem. (NCI)", "preferredTerm": "Cranial Nerve"}, {"conceptId": "C32414", "submissionValue": "CUBOID BONE", "definition": "A bone on the lateral side of the tarsus between the calcaneus and the fourth and fifth metatarsal bones. (NCI)", "preferredTerm": "Cuboid Bone", "synonyms": ["Cuboid Bone"]}, {"conceptId": "C32446", "submissionValue": "DELTOID MUSCLE", "definition": "The muscle that creates the rounded contour of the shoulder which originates from the lateral third of the clavicle, the superior surface of the acromion process, and the posterior border of the spine of the scapula and inserts on the lateral side of the shaft of the humerus. (NCI)", "preferredTerm": "Deltoid"}, {"conceptId": "C12702", "submissionValue": "DIAPHRAGM", "definition": "A musculotendinous sheet separating the thoracic cavity from the abdominal cavity.", "preferredTerm": "Diaphragm"}, {"conceptId": "C132391", "submissionValue": "DIAPHRAGMATIC LYMPH NODE", "definition": "Lymph node located adjacent to the diaphragm.", "preferredTerm": "Diaphragmatic Lymph Node"}, {"conceptId": "C102290", "submissionValue": "DISTAL CIRCUMFLEX ARTERY", "definition": "The segment of the left circumflex artery that is between the second and third obtuse marginal branches.", "preferredTerm": "Distal Circumflex Artery", "synonyms": ["DCIRC", "DISTAL CIRCUMFLEX ARTERY SEGMENT"]}, {"conceptId": "C60801", "submissionValue": "DISTAL COMMON BILE DUCT", "definition": "The portion of the common bile duct that is closest to the intestine and furthest from the hepatic and cystic ducts.", "preferredTerm": "Distal Common Bile Duct"}, {"conceptId": "C139208", "submissionValue": "DISTAL FEMUR R1", "definition": "The portion of the distal femur, identified during a dual x-ray absorptiometry (DXA) scan, that contains primarily metaphyseal or trabecular bone.", "preferredTerm": "Distal Femur R1"}, {"conceptId": "C102291", "submissionValue": "DISTAL INTERPHALANGEAL JOINT 2", "definition": "A condyloid synovial joint within the second digit of the hand or foot articulating the middle and distal phalanges. (NCI)", "preferredTerm": "Distal Interphalangeal Joint 2", "synonyms": ["DIP2"]}, {"conceptId": "C114198", "submissionValue": "DISTAL INTERPHALANGEAL JOINT 2 OF THE FOOT", "definition": "A ginglymoid (hinge) synovial joint within the second digit of the foot articulating the middle and distal phalanges. (NCI)", "preferredTerm": "Distal Interphalangeal Joint 2 of the Foot", "synonyms": ["DIP2 of the Foot"]}, {"conceptId": "C114188", "submissionValue": "DISTAL INTERPHALANGEAL JOINT 2 OF THE HAND", "definition": "A ginglymoid (hinge) synovial joint within the second digit of the hand articulating the middle and distal phalanges. (NCI)", "preferredTerm": "Distal Interphalangeal Joint 2 of the Hand", "synonyms": ["DIP2 of the Hand"]}, {"conceptId": "C102292", "submissionValue": "DISTAL INTERPHALANGEAL JOINT 3", "definition": "A condyloid synovial joint within the third digit of the hand or foot articulating the middle and distal phalanges. (NCI)", "preferredTerm": "Distal Interphalangeal Joint 3", "synonyms": ["DIP3"]}, {"conceptId": "C114199", "submissionValue": "DISTAL INTERPHALANGEAL JOINT 3 OF THE FOOT", "definition": "A ginglymoid (hinge) synovial joint within the third digit of the foot articulating the middle and distal phalanges. (NCI)", "preferredTerm": "Distal Interphalangeal Joint 3 of the Foot", "synonyms": ["DIP3 of the Foot"]}, {"conceptId": "C114189", "submissionValue": "DISTAL INTERPHALANGEAL JOINT 3 OF THE HAND", "definition": "A ginglymoid (hinge) synovial joint within the third digit of the hand articulating the middle and distal phalanges. (NCI)", "preferredTerm": "Distal Interphalangeal Joint 3 of the Hand", "synonyms": ["DIP3 of the Hand"]}, {"conceptId": "C102293", "submissionValue": "DISTAL INTERPHALANGEAL JOINT 4", "definition": "A condyloid synovial joint within the fourth digit of the hand or foot articulating the middle and distal phalanges. (NCI)", "preferredTerm": "Distal Interphalangeal Joint 4", "synonyms": ["DIP4"]}, {"conceptId": "C114275", "submissionValue": "DISTAL INTERPHALANGEAL JOINT 4 OF THE FOOT", "definition": "A ginglymoid (hinge) synovial joint within the fourth digit of the foot articulating the middle and distal phalanges. (NCI)", "preferredTerm": "Distal Interphalangeal Joint 4 of the Foot", "synonyms": ["DIP4 of the Foot"]}, {"conceptId": "C114273", "submissionValue": "DISTAL INTERPHALANGEAL JOINT 4 OF THE HAND", "definition": "A ginglymoid (hinge) synovial joint within the fourth digit of the hand articulating the middle and distal phalanges. (NCI)", "preferredTerm": "Distal Interphalangeal Joint 4 of the Hand", "synonyms": ["DIP4 of the Hand"]}, {"conceptId": "C102294", "submissionValue": "DISTAL INTERPHALANGEAL JOINT 5", "definition": "A condyloid synovial joint within the fifth digit of the hand or foot articulating the middle and distal phalanges. (NCI)", "preferredTerm": "Distal Interphalangeal Joint 5", "synonyms": ["DIP5"]}, {"conceptId": "C114276", "submissionValue": "DISTAL INTERPHALANGEAL JOINT 5 OF THE FOOT", "definition": "A ginglymoid (hinge) synovial joint within the fifth digit of the foot articulating the middle and distal phalanges. (NCI)", "preferredTerm": "Distal Interphalangeal Joint 5 of the Foot", "synonyms": ["DIP5 of the Foot"]}, {"conceptId": "C114274", "submissionValue": "DISTAL INTERPHALANGEAL JOINT 5 OF THE HAND", "definition": "A ginglymoid (hinge) synovial joint within the fifth digit of the hand articulating the middle and distal phalanges. (NCI)", "preferredTerm": "Distal Interphalangeal Joint 5 of the Hand", "synonyms": ["DIP5 of the Hand"]}, {"conceptId": "C102295", "submissionValue": "DISTAL LAD ARTERY", "definition": "The segment of the left anterior descending (LAD) artery that is distal to the third diagonal branch.", "preferredTerm": "Distal Left Anterior Descending Artery", "synonyms": ["DISTAL LAD ARTERY SEGMENT", "DLAD"]}, {"conceptId": "C139190", "submissionValue": "DISTAL PHALANX 2 OF THE HAND", "definition": "The bone that forms the tip of the second finger, as counted from the thenar side of the hand.", "preferredTerm": "Hand Digit 2 Distal Phalanx"}, {"conceptId": "C139191", "submissionValue": "DISTAL PHALANX 3 OF THE HAND", "definition": "The bone that forms the tip of the third finger, as counted from the thenar side of the hand.", "preferredTerm": "Hand Digit 3 Distal Phalanx"}, {"conceptId": "C139192", "submissionValue": "DISTAL PHALANX 4 OF THE HAND", "definition": "The bone that forms the tip of the fourth finger, as counted from the thenar side of the hand.", "preferredTerm": "Hand Digit 4 Distal Phalanx"}, {"conceptId": "C139193", "submissionValue": "DISTAL PHALANX 5 OF THE HAND", "definition": "The bone that forms the tip of the fifth finger, as counted from the thenar side of the hand.", "preferredTerm": "Hand Digit 5 Distal Phalanx"}, {"conceptId": "C139194", "submissionValue": "DISTAL RADIOULNAR JOINT", "definition": "The articulation of the distal head of the ulna bone and the ulnar notch of the radius.", "preferredTerm": "Distal Radioulnar Joint"}, {"conceptId": "C102296", "submissionValue": "DISTAL RIGHT CORONARY ARTERY CONDUIT", "definition": "The section of the right coronary artery distal to the origin of the acute marginal artery.", "preferredTerm": "Distal Right Coronary Artery Conduit", "synonyms": ["DISTAL RIGHT CORONARY ARTERY CONDUIT SEGMENT", "DRCA"]}, {"conceptId": "C106042", "submissionValue": "DISTANT LYMPH NODE", "definition": "Lymph node(s) that is distant to the anatomic region of interest.", "preferredTerm": "Distant Lymph Node"}, {"conceptId": "C12934", "submissionValue": "DORSAL MOTOR NUCLEUS", "definition": "A brain nucleus located in the medulla oblongata. (NCI)", "preferredTerm": "Dorsal Motor Nucleus"}, {"conceptId": "C32478", "submissionValue": "DORSALIS PEDIS ARTERY", "definition": "An artery of the dorsal surface of the foot, originating from the anterior tibial artery of the lower leg. The following arterial branches originate from the dorsalis pedis artery: the arcuate artery of the foot and deep plantar artery. (NCI)", "preferredTerm": "Dorsalis Pedis Artery", "synonyms": ["Dorsalis Pedis Artery"]}, {"conceptId": "C12263", "submissionValue": "DUODENUM", "definition": "The portion of the small intestine between the stomach and jejunum.", "preferredTerm": "Duodenum"}, {"conceptId": "C102627", "submissionValue": "DURAL VENOUS SINUS", "definition": "Venous channels within the dura mater of the brain which receives both blood from blood vessels within the brain as well as cerebrospinal fluid then drains into the internal jugular vein. Unlike other blood vessels, dural venous sinuses lack valves and other vessel associated layers.", "preferredTerm": "Dural Venous Sinus"}, {"conceptId": "C12394", "submissionValue": "EAR", "definition": "A sensory organ that contains auditory and vestibular apparatuses.", "preferredTerm": "Ear"}, {"conceptId": "C12499", "submissionValue": "EAR, INNER", "definition": "The innermost portion of the ear that contains the vestibule, cochlea and semicircular canals.", "preferredTerm": "Inner Ear", "synonyms": ["Internal Ear", "Labyrinth"]}, {"conceptId": "C12292", "submissionValue": "EAR, OUTER", "definition": "The external part of the ear. (NCI)", "preferredTerm": "External Ear", "synonyms": ["Auricle", "External Ear"]}, {"conceptId": "C32497", "submissionValue": "ELBOW JOINT", "definition": "A joint involving the humerus, radius and ulna bones.", "preferredTerm": "Elbow Joint", "synonyms": ["Elbow Joint"]}, {"conceptId": "C13004", "submissionValue": "ENDOCARDIUM", "definition": "The layer of endothelial cells and connective tissue lining the chambers of the heart. (NCI)", "preferredTerm": "Endocardium"}, {"conceptId": "C12309", "submissionValue": "ENDOCERVIX", "definition": "The portion of the cervix which is lined by single columnar epithelium (mucosa). (NCI)", "preferredTerm": "Endocervix"}, {"conceptId": "C32514", "submissionValue": "ENDOMETRIAL CAVITY", "definition": "A space inside the uterus lined by a layer of mucous membranes called the endometrium.", "preferredTerm": "Endometrial Cavity", "synonyms": ["Endometrial Cavity"]}, {"conceptId": "C12313", "submissionValue": "ENDOMETRIUM", "definition": "The mucous membrane comprising the inner layer of the uterine wall.", "preferredTerm": "Endometrium"}, {"conceptId": "C97338", "submissionValue": "ENTORHINAL CORTEX", "definition": "A brain region in the medial temporal lobe near the hippocampus. (NCI)", "preferredTerm": "Entorhinal Cortex"}, {"conceptId": "C13164", "submissionValue": "EPICARDIUM", "definition": "The outer membranous connective tissue layer of the heart tissue. (NCI)", "preferredTerm": "Epicardium"}, {"conceptId": "C69300", "submissionValue": "EPICONDYLE", "definition": "A bone prominence to which ligaments and tendons of the joints are attached. (NCI)", "preferredTerm": "Epicondyle", "synonyms": ["Epicondyle"]}, {"conceptId": "C12328", "submissionValue": "EPIDIDYMIS", "definition": "A crescent-like structure located adjacent to the testis. It consists of a single highly coiled duct and is divided into 3 regions: caput (head), corpus (body) and cauda (tail).", "preferredTerm": "Epididymis"}, {"conceptId": "C41449", "submissionValue": "EPIDURAL SPACE", "definition": "The body space between the dura mater and the walls of the vertebral canal.", "preferredTerm": "Epidural Spinal Canal Space"}, {"conceptId": "C139195", "submissionValue": "EPIGASTRIC LYMPH NODE", "definition": "A parietal lymph node located along the inferior epigastric vessels.", "preferredTerm": "Epigastric Lymph Node"}, {"conceptId": "C32525", "submissionValue": "EPIGASTRIC REGION", "definition": "The most superior, central area of the abdomen, lying immediately superior to the umbilicus and bounded laterally by the costal margins.", "preferredTerm": "Epigastric Region"}, {"conceptId": "C12709", "submissionValue": "EPIGLOTTIS", "definition": "A small cartilagenous flap-like valve that closes over the larynx during swallowing to prevent food entering the lungs. (NCI)", "preferredTerm": "Epiglottis", "synonyms": ["Epiglottis"]}, {"conceptId": "C98182", "submissionValue": "EPITROCHLEAR LYMPH NODE", "definition": "A lymph node located above and adjacent to the elbow. (NCI)", "preferredTerm": "Epitrochlear Lymph Node"}, {"conceptId": "C139196", "submissionValue": "ESOPHAGEAL LYMPH NODE", "definition": "Any lymph node located near the esophagus, including cervical, and upper, middle, and lower thoracic lymph nodes.", "preferredTerm": "Esophageal Lymph Node"}, {"conceptId": "C12389", "submissionValue": "ESOPHAGUS", "definition": "The portion of the digestive tract between the pharynx and stomach.", "preferredTerm": "Esophagus"}, {"conceptId": "C12252", "submissionValue": "ESOPHAGUS, ABDOMINAL", "definition": "Clinical esophageal segment composed of smooth muscle. It corresponds to the inferior part of the lower third topographic segment of the esophagus. (NCI)", "preferredTerm": "Abdominal Esophagus", "synonyms": ["Abdominal Esophagus"]}, {"conceptId": "C12250", "submissionValue": "ESOPHAGUS, CERVICAL", "definition": "Clinical esophageal segment composed of skeletal muscle. It corresponds to the superior part of the upper third topographic segment of the esophagus. (NCI)", "preferredTerm": "Cervical Esophagus", "synonyms": ["Cervical Esophagus"]}, {"conceptId": "C12255", "submissionValue": "ESOPHAGUS, LOWER THIRD", "definition": "The lower one third of the esophagus in which the muscle layer is composed of muscle cells predominantly of the smooth type. (NCI)", "preferredTerm": "Lower Third of the Esophagus", "synonyms": ["Lower Third of the Esophagus"]}, {"conceptId": "C12254", "submissionValue": "ESOPHAGUS, MIDDLE THIRD", "definition": "The middle one third of the esophagus in which the muscle layer is composed of muscle cells of the striated and smooth types.", "preferredTerm": "Middle Third of the Esophagus", "synonyms": ["Middle Third of the Esophagus"]}, {"conceptId": "C12251", "submissionValue": "ESOPHAGUS, THORACIC", "definition": "Clinical esophageal segment composed of smooth muscle. It includes the middle third topographic segment, as well as parts of the upper and lower thirds. (NCI)", "preferredTerm": "Thoracic Esophagus", "synonyms": ["Thoracic Esophagus"]}, {"conceptId": "C12253", "submissionValue": "ESOPHAGUS, UPPER THIRD", "definition": "The upper one third of esophagus in which the muscle layer is composed of muscle cells of the striated type. (NCI)", "preferredTerm": "Upper Third of the Esophagus", "synonyms": ["Upper Third of the Esophagus"]}, {"conceptId": "C12711", "submissionValue": "ETHMOID BONE", "definition": "A light and spongy bone that is cubical in shape. This bone is positioned at the anterior part of the cranium, sitting between the two orbits, at the roof of the nose. It consists of four parts: a horizontal or cribriform plate; a perpendicular plate; and two lateral masses or labyrinths. (NCI)", "preferredTerm": "Ethmoid Bone", "synonyms": ["Ethmoid Bone"]}, {"conceptId": "C12276", "submissionValue": "ETHMOID SINUS", "definition": "A sinus of the meatuses of the nasal cavity. (NCI)", "preferredTerm": "Ethmoid Sinus", "synonyms": ["Ethmoid Sinus"]}, {"conceptId": "C32558", "submissionValue": "EXTERNAL ILIAC ARTERY", "definition": "An artery arising from the bifurcation of the common iliac artery in the lower torso. The external iliac artery becomes the femoral artery and is the main blood supply for the leg.", "preferredTerm": "External Iliac Artery"}, {"conceptId": "C88143", "submissionValue": "EXTERNAL ILIAC LYMPH NODE", "definition": "A lymph node located along the external iliac artery. (NCI)", "preferredTerm": "External Iliac Lymph Node"}, {"conceptId": "C32573", "submissionValue": "EXTRAHEPATIC BILE DUCT", "definition": "The portion of the biliary tract outside the liver; the common hepatic duct joins the cystic duct to form the common bile duct. (NCI)", "preferredTerm": "Extrahepatic Bile Duct"}, {"conceptId": "C33199", "submissionValue": "EXTRAOCULAR MUSCLE", "definition": "A group of muscles in the orbit extending from the posterior orbit to the eye and upper eyelid; primary function is the movement of the eye and retraction of the upper eyelid.", "preferredTerm": "Oculomotor Muscle", "synonyms": ["Oculomotor Muscle"]}, {"conceptId": "C12401", "submissionValue": "EYE", "definition": "The sensory organ of vision.", "preferredTerm": "Eye", "synonyms": ["Eyeball"]}, {"conceptId": "C12667", "submissionValue": "EYE, ANTERIOR CHAMBER", "definition": "The space in the eye filled with aqueous humor and bounded by the cornea, a small portion of the sclera, a small portion of the ciliary body, the iris and lens. (Cline et al., Dictionary of Visual Science, 4th ed, p109)", "preferredTerm": "Anterior Chamber of the Eye"}, {"conceptId": "C12668", "submissionValue": "EYE, ANTERIOR SEGMENT", "definition": "The front part of the eye, which is posteriorly bordered by posterior surfaces of the posterior lens capsule, lens zonules, and ciliary body; it includes the cornea, conjunctiva, lacrimal gland, tear film, iris, lens, ciliary body, anterior portion of the sclera, and anterior chamber.", "preferredTerm": "Anterior Eye Segment"}, {"conceptId": "C33885", "submissionValue": "EYE, VITREOUS CHAMBER", "definition": "The largest space within the eye which is bounded by the lens and the retina and filled with the gelatinous vitreous humor. (NCI)", "preferredTerm": "Vitreous Chamber", "synonyms": ["Postremal Chamber"]}, {"conceptId": "C32576", "submissionValue": "EYELASH", "definition": "Anyone of the short hairs that grow on the edge of the eyelid. (NCI)", "preferredTerm": "Eyelash"}, {"conceptId": "C12713", "submissionValue": "EYELID", "definition": "The section of skin, containing muscle and conjunctiva, that covers and protects the eye.", "preferredTerm": "Eyelid", "synonyms": ["Palpebra"]}, {"conceptId": "C13071", "submissionValue": "FACE", "definition": "The portion of the head that contains the structures such as the eyes, nose, mouth, and jaws.", "preferredTerm": "Face"}, {"conceptId": "C32577", "submissionValue": "FACET JOINT", "definition": "A synovial joint between two adjacent vertebrae. The facet joint links the articular process of one vertebra and the inferior articular process of the adjacent vertebra. (NCI)", "preferredTerm": "Facet Joint", "synonyms": ["Facet Joint"]}, {"conceptId": "C63706", "submissionValue": "FACIAL BONE", "definition": "Any bone that contributes to the facial structures, except those bones that are part of the braincase. (NCI)", "preferredTerm": "Facial Bone", "synonyms": ["Facial Bone"]}, {"conceptId": "C12714", "submissionValue": "FACIAL NERVE", "definition": "A cranial nerve extending from the brain stem between the pons and medulla, which innervates the facial muscles, glands and the tongue.", "preferredTerm": "Facial Nerve", "synonyms": ["Seventh Cranial Nerve"]}, {"conceptId": "C32582", "submissionValue": "FALCIFORM LIGAMENT", "definition": "A fold of tissue consisting of two layers of peritoneum extending from the notch of the anterior margin of the liver to the anterior abdominal wall and diaphragm.", "preferredTerm": "Falciform Ligament"}, {"conceptId": "C12403", "submissionValue": "FALLOPIAN TUBE", "definition": "The tube through which eggs pass from an ovary.", "preferredTerm": "Fallopian Tube", "synonyms": ["Fallopian Tube"]}, {"conceptId": "C13108", "submissionValue": "FASCIA", "definition": "A sheet or band of fibrous connective tissue enveloping, separating, or binding together muscles, organs and other soft structures of the body.", "preferredTerm": "Fascia"}, {"conceptId": "C61600", "submissionValue": "FEMALE GENITALIA", "definition": "Female internal and external organs of reproduction.", "preferredTerm": "Female Genitalia", "synonyms": ["Female Genitalia"]}, {"conceptId": "C12402", "submissionValue": "FEMALE REPRODUCTIVE SYSTEM", "definition": "The sex organs of the female.", "preferredTerm": "Female Reproductive System"}, {"conceptId": "C12715", "submissionValue": "FEMORAL ARTERY", "definition": "An artery of the thigh; in general it arises from the external iliac artery distal to the inguinal ligment and continues as the popliteal artery.", "preferredTerm": "Femoral Artery"}, {"conceptId": "C114186", "submissionValue": "FEMORAL CONDYLE", "definition": "The rounded bony projection at the distal end of the femur.", "preferredTerm": "Femoral Condyle"}, {"conceptId": "C32718", "submissionValue": "FEMORAL HEAD", "definition": "The highest portion of the femoral bone that articulates with the acetabulum. (NCI)", "preferredTerm": "Head of the Femur", "synonyms": ["Femur Head"]}, {"conceptId": "C98183", "submissionValue": "FEMORAL LYMPH NODE", "definition": "A lymph node located in the upper inner portion of the thigh. (NCI)", "preferredTerm": "Femoral Lymph Node"}, {"conceptId": "C61563", "submissionValue": "FEMORAL NECK", "definition": "The short, constricted portion of the thigh bone between the femur head and the trochanter. (NCI)", "preferredTerm": "Femoral Neck", "synonyms": ["Femoral Neck"]}, {"conceptId": "C12716", "submissionValue": "FEMORAL VEIN", "definition": "A vein of the thigh; in general it arises from the popliteal vein and drains into the external iliac vein.", "preferredTerm": "Femoral Vein"}, {"conceptId": "C116167", "submissionValue": "FEMORO-POPLITEAL PERIPHERAL ARTERY", "definition": "The segment of the blood vessels that includes the popliteal artery and its origin from the femoral artery.", "preferredTerm": "Femoropopliteal Artery Segment"}, {"conceptId": "C12717", "submissionValue": "FEMUR", "definition": "The bone positioned between the pelvis and the femorotibial joint.", "preferredTerm": "Femur", "synonyms": ["Bone, Femoral"]}, {"conceptId": "C96209", "submissionValue": "FEMUR SHAFT", "definition": "The cylindrical body of the femur. (NCI)", "preferredTerm": "Femoral Shaft"}, {"conceptId": "C12718", "submissionValue": "FIBULA", "definition": "The long bone that is lateral to the tibia.", "preferredTerm": "Fibula"}, {"conceptId": "C120670", "submissionValue": "FIBULA SHAFT", "definition": "The elongated bony body of the fibula.", "preferredTerm": "Fibular Shaft"}, {"conceptId": "C154772", "submissionValue": "FIBULAR VEIN", "definition": "A vein that arises from the plantar veins of the foot, accompanies the peroneal artery, and travels up the back of the leg to join the anterior and posterior tibial veins in forming the popliteal vein on the posterior surface of the knee.", "preferredTerm": "Fibular Vein"}, {"conceptId": "C32608", "submissionValue": "FINGER", "definition": "Any of the digits of the hand. (NCI)", "preferredTerm": "Finger", "synonyms": ["Finger"]}, {"conceptId": "C161384", "submissionValue": "FINGER EXTENSOR TENDONS", "definition": "The tendons located on the dorsal side of the fingers that connect muscles of the forearm and hand to bones in the fingers, enabling extension of the fingers. (NCI)", "preferredTerm": "Finger Extensor Tendons"}, {"conceptId": "C161383", "submissionValue": "FINGER FLEXOR TENDONS", "definition": "The tendons located on the palm side of the fingers that connect the flexor muscles of the forearm and hand to bones in the fingers, enabling flexion towards the palm. (NCI)", "preferredTerm": "Finger Flexor Tendons"}, {"conceptId": "C32609", "submissionValue": "FINGERNAIL", "definition": "The nail at the end of a finger. (NCI)", "preferredTerm": "Fingernail", "synonyms": ["Fingernail"]}, {"conceptId": "C102297", "submissionValue": "FIRST DIAGONAL BRANCH ARTERY", "definition": "The first artery arising from the left anterior descending (LAD) artery that supplies the anterolateral wall, when counted from proximal to distal.", "preferredTerm": "First Diagonal Branch Artery", "synonyms": ["1ST DIAG", "FIRST DIAGONAL BRANCH ARTERY SEGMENT"]}, {"conceptId": "C139197", "submissionValue": "FIRST DORSAL INTEROSSEOUS MUSCLE OF THE FOOT", "definition": "A dorsal interosseous muscle of the foot that originates on the lateral side of the first metatarsal and the medial side of the second metatarsal, and inserts into the medial side of the base of the proximal phalanx of the second toe.", "preferredTerm": "First Dorsal Interosseous Muscle of the Foot"}, {"conceptId": "C139198", "submissionValue": "FIRST DORSAL INTEROSSEOUS MUSCLE OF THE HAND", "definition": "A dorsal interosseous muscle of the hand that originates on the proximal half of the lateral border of the index metacarpal and the full length of the medial border of the thumb metacarpal, and inserts into the lateral side of the index finger.", "preferredTerm": "First Dorsal Interosseous Muscle of the Hand"}, {"conceptId": "C102298", "submissionValue": "FIRST LEFT POSTEROLATERAL BRANCH ARTERY", "definition": "In an individual with a left-dominant heart, this is the first branch that arises from the circumflex artery atrioventricular groove continuation when counted from proximal to distal. It supplies the posterolateral wall.", "preferredTerm": "First Left Posterolateral Branch Artery", "synonyms": ["1ST LPL", "FIRST LEFT POSTEROLATERAL BRANCH ARTERY SEGMENT"]}, {"conceptId": "C102299", "submissionValue": "FIRST OBTUSE MARGINAL BRANCH ARTERY", "definition": "The first artery arising from the left circumflex artery that supplies the lateral wall, when counted from proximal to distal.", "preferredTerm": "First Obtuse Marginal Branch Artery", "synonyms": ["1ST OM", "FIRST OBTUSE MARGINAL BRANCH ARTERY SEGMENT"]}, {"conceptId": "C102300", "submissionValue": "FIRST RIGHT POSTEROLATERAL ARTERY", "definition": "In an individual with a right-dominant heart, this is the first branch that arises from the right coronary artery distal to the right posterior descending artery, when counted from proximal to distal.", "preferredTerm": "First Right Posterolateral Artery", "synonyms": ["1ST RPL", "FIRST RIGHT POSTEROLATERAL ARTERY SEGMENT"]}, {"conceptId": "C93028", "submissionValue": "FLANK", "definition": "The region on either side of the body that extends from the last rib to the hip.", "preferredTerm": "Flank"}, {"conceptId": "C53155", "submissionValue": "FLEXOR CARPI RADIALIS MUSCLE", "definition": "A muscle in the forearm running from the head of the humerus to the radial side of the wrist that flexes and radially abducts the hand. (NCI)", "preferredTerm": "Flexor Carpi Radialis"}, {"conceptId": "C53156", "submissionValue": "FLEXOR CARPI ULNARIS MUSCLE", "definition": "A muscle in the forearm running from the humeral and ulnar heads to the ulnar side of the wrist that flexes and abducts the hand toward the ulna. (NCI)", "preferredTerm": "Flexor Carpi Ulnaris"}, {"conceptId": "C52923", "submissionValue": "FLEXOR DIGITORUM PROFUNDUS MUSCLE", "definition": "A muscle in the forearm beginning at the head of the ulna and ending with four tendons projecting to the second, third, fourth, and fifth fingers which flexes the midcarpal, metacarpophalangeal and interphalangeal joints. (NCI)", "preferredTerm": "Flexor Digitorum Profundus"}, {"conceptId": "C150850", "submissionValue": "FLEXOR DIGITORUM SUPERFICIALIS MUSCLE", "definition": "A muscle in the forearm, in general extending from the humeroulnar and radial heads of the forearm to the middle phalanges of the second through fifth digits of the hand; primary function is flexion of the fingers at the proximal interphalangeal joints.", "preferredTerm": "Flexor Digitorum Superficialis Muscle"}, {"conceptId": "C150851", "submissionValue": "FLEXOR POLLICIS LONGUS MUSCLE", "definition": "A muscle in the forearm, in general extending from the anterior surface of the radius and interosseous membrane to the palmar aspect of the base of the distal phalanx of the thumb; primary function is flexion of the thumb.", "preferredTerm": "Flexor Pollicis Longus Muscle"}, {"conceptId": "C54187", "submissionValue": "FLOOR OF MOUTH", "definition": "The area of the mouth under the ventral surface of the tongue.", "preferredTerm": "Floor of Mouth"}, {"conceptId": "C32622", "submissionValue": "FOOT", "definition": "The entire structure distal to the ankle joint/tarsus, which includes the metatarsus and digit(s).", "preferredTerm": "Foot"}, {"conceptId": "C52839", "submissionValue": "FOOT DIGIT 1", "definition": "The largest and most medial toe of the foot. (NCI)", "preferredTerm": "Foot Digit 1", "synonyms": ["Big Toe"]}, {"conceptId": "C52840", "submissionValue": "FOOT DIGIT 2", "definition": "The second toe from the medial side of the foot. (NCI)", "preferredTerm": "Foot Digit 2", "synonyms": ["Index Toe"]}, {"conceptId": "C52841", "submissionValue": "FOOT DIGIT 3", "definition": "The middle or third toe from the medial side of the foot. (NCI)", "preferredTerm": "Foot Digit 3", "synonyms": ["Middle Toe"]}, {"conceptId": "C52842", "submissionValue": "FOOT DIGIT 4", "definition": "The fourth toe from the medial side of the foot. (NCI)", "preferredTerm": "Foot Digit 4", "synonyms": ["Fourth Toe"]}, {"conceptId": "C52843", "submissionValue": "FOOT DIGIT 5", "definition": "The smallest and most lateral toe of the foot. (NCI)", "preferredTerm": "Foot Digit 5", "synonyms": ["Little Toe"]}, {"conceptId": "C52772", "submissionValue": "FOOT PHALANX", "definition": "A bone of the foot. (NCI)", "preferredTerm": "Foot Phalanx", "synonyms": ["Foot Phalanx"]}, {"conceptId": "C32628", "submissionValue": "FOREARM", "definition": "The structure on the upper limb, between the elbow and the wrist. (NCI)", "preferredTerm": "Forearm", "synonyms": ["Forearm"]}, {"conceptId": "C40185", "submissionValue": "FOREBRAIN", "definition": "The largest part of the brain composed of the cerebral hemispheres, thalamus, hypothalamus, and the limbic system. (NCI)", "preferredTerm": "Forebrain"}, {"conceptId": "C89803", "submissionValue": "FOREHEAD", "definition": "The part of the face between the eyebrows and the normal hairline.", "preferredTerm": "Forehead", "synonyms": ["Forehead"]}, {"conceptId": "C12352", "submissionValue": "FRONTAL LOBE", "definition": "The part of the brain located anterior to the parietal lobes at the front of each cerebral hemisphere. (NCI)", "preferredTerm": "Frontal Lobe", "synonyms": ["Frontal Lobe"]}, {"conceptId": "C12277", "submissionValue": "FRONTAL SINUS", "definition": "The paired, mucosal lined air spaces located above the orbit and communicating with the nasal passages. (NCI)", "preferredTerm": "Frontal Sinus", "synonyms": ["Frontal Sinus"]}, {"conceptId": "C135172", "submissionValue": "FUNDUS OF THE EYE", "definition": "The portion of the interior of the eye that includes the sensory retina, the optic disc, and the macula.", "preferredTerm": "Eye Fundus"}, {"conceptId": "C12257", "submissionValue": "FUNDUS OF THE STOMACH", "definition": "The blind sac region of the glandular stomach.", "preferredTerm": "Fundus of the Stomach"}, {"conceptId": "C12315", "submissionValue": "FUNDUS UTERI", "definition": "The upper, rounded portion of the uterus that is opposite from the cervix.", "preferredTerm": "Fundus Uteri"}, {"conceptId": "C12377", "submissionValue": "GALLBLADDER", "definition": "A sac-like organ located adjacent to the liver that stores and concentrates bile produced by the liver.", "preferredTerm": "Gallbladder"}, {"conceptId": "C12719", "submissionValue": "GANGLION", "definition": "A cluster of nervous tissue principally composed of neuronal cell bodies external to the central nervous system (CNS). (NCI)", "preferredTerm": "Ganglion", "synonyms": ["Ganglia", "Ganglion", "Neural Ganglion"]}, {"conceptId": "C12256", "submissionValue": "GASTRIC CARDIA", "definition": "The region of the stomach adjacent to the esophogastric junction.", "preferredTerm": "Gastric Cardia"}, {"conceptId": "C154773", "submissionValue": "GASTRIC CURVATURE LYMPH NODE", "definition": "Lymph node(s) located between the two layers of the greater omentum, either superiorly along the cardiac half of the lesser curvature of the stomach or inferiorly along the pyloric half of the greater curvature of the stomach.", "preferredTerm": "Gastric Curvature Lymph Node"}, {"conceptId": "C32668", "submissionValue": "GASTROESOPHAGEAL JUNCTION", "definition": "The anatomical location where the esophagus joins to the stomach. (NCI)", "preferredTerm": "Gastroesophageal Junction", "synonyms": ["Gastroesophageal Junction"]}, {"conceptId": "C12378", "submissionValue": "GASTROINTESTINAL SYSTEM", "definition": "The system that includes the esophagus, stomach, small and large intestine, anus, liver, biliary tract, and pancreas. (NCI)", "preferredTerm": "Digestive System", "synonyms": ["Gastrointestinal System"]}, {"conceptId": "C34082", "submissionValue": "GASTROINTESTINAL TRACT", "definition": "The upper gastrointestinal (GI) tract is comprised of mouth, pharynx, esophagus and stomach while the lower GI tract consists of intestines and anus. The primary function of the GI tract is to ingest, digest, absorb and ultimately excrete food stuff. (NCI)", "preferredTerm": "Gastrointestinal Tract", "synonyms": ["Gastrointestinal Tract"]}, {"conceptId": "C33010", "submissionValue": "GASTROINTESTINAL TRACT, LOWER", "definition": "The lower part of the gastrointestinal tract that includes the jejunum and ileum of the small intestine and the large intestine. (NCI)", "preferredTerm": "Lower Gastrointestinal Tract", "synonyms": ["Lower Gastrointestinal Tract"]}, {"conceptId": "C33837", "submissionValue": "GASTROINTESTINAL TRACT, UPPER", "definition": "The upper part of the gastrointestinal tract that includes the esophagus, stomach, and duodenum. (NCI)", "preferredTerm": "Upper Gastrointestinal Tract", "synonyms": ["Upper Gastrointestinal Tract"]}, {"conceptId": "C25177", "submissionValue": "GENITALIA", "definition": "The external sex organs. (NCI)", "preferredTerm": "Genitalia"}, {"conceptId": "C12810", "submissionValue": "GENITOURINARY SYSTEM", "definition": "The body system that includes all organs involved in reproduction and in the formation and voidance of urine.", "preferredTerm": "Genitourinary System"}, {"conceptId": "C32677", "submissionValue": "GINGIVA", "definition": "The soft tissue surrounding the neck of individual teeth as well as covering the alveolar bone. The tissue is fibrous and continuous with the periodontal ligament and mucosal covering. (NCI)", "preferredTerm": "Gingiva", "synonyms": ["Gum"]}, {"conceptId": "C139199", "submissionValue": "GINGIVAL MUCOSA", "definition": "The portion of the oral mucosa that surrounds the cervical aspect of teeth and the alveolar process of the jaw.", "preferredTerm": "Gingival Mucosa"}, {"conceptId": "C32682", "submissionValue": "GLENOID FOSSA", "definition": "The trough in the head of the scapula that receives the head of the humerus to form the shoulder joint. (NCI)", "preferredTerm": "Glenoid Fossa", "synonyms": ["Glenoid Fossa"]}, {"conceptId": "C12449", "submissionValue": "GLOBUS PALLIDUS", "definition": "Paired nuclei at the base of the forebrain that, along with the putamen, form the lentiform nucleus of the basal ganglia.", "preferredTerm": "Globus Pallidus"}, {"conceptId": "C13250", "submissionValue": "GLOMERULUS", "definition": "A cluster of convoluted capillaries beginning at each nephric tubule in the kidney and held together by connective tissue.", "preferredTerm": "Glomerulus"}, {"conceptId": "C12723", "submissionValue": "GLOSSOPHARYNGEAL NERVE", "definition": "The ninth cranial nerve.", "preferredTerm": "Glossopharyngeal Nerve"}, {"conceptId": "C12724", "submissionValue": "GLOTTIS", "definition": "The space in which the vocal cords are located. (NCI)", "preferredTerm": "Glottis", "synonyms": ["Glottis"]}, {"conceptId": "C52560", "submissionValue": "GLUTEUS MAXIMUS", "definition": "The outermost and largest muscle of the buttocks. (NCI)", "preferredTerm": "Gluteus Maximus"}, {"conceptId": "C33004", "submissionValue": "GREAT SAPHENOUS VEIN", "definition": "A long superficial vein originating from the dorsal vein at the big toe and the dorsal venous arch of the foot and extending up the inner leg to empty into the femoral artery in the groin area.", "preferredTerm": "Long Saphenous Vein", "synonyms": ["Long Saphenous Vein"]}, {"conceptId": "C32698", "submissionValue": "GREAT TROCHANTER", "definition": "A large, irregular, quadrilateral area of bone found at the neck of the femur. (NCI)", "preferredTerm": "Great Trochanter", "synonyms": ["Great Trochanter"]}, {"conceptId": "C12262", "submissionValue": "GREATER CURVATURE OF THE STOMACH", "definition": "The lateral and inferior border of the stomach. Attached to it is the greater omentum. (NCI)", "preferredTerm": "Greater Curvature of the Stomach", "synonyms": ["Greater Curvature of the Stomach"]}, {"conceptId": "C12936", "submissionValue": "GUT-ASSOCIATED LYMPHOID TISSUE", "definition": "Lymphoid tissue located in the mucosa of the digestive tract.", "preferredTerm": "Gut-Associated Lymphoid Tissue", "synonyms": ["GALT"]}, {"conceptId": "C32705", "submissionValue": "HAIR", "definition": "The filamentous outgrowth of the epidermis. (NCI)", "preferredTerm": "Hair", "synonyms": ["Hair"]}, {"conceptId": "C32706", "submissionValue": "HAIR BULB", "definition": "The lower segment of the hair that circles the dermal papilla and the hair matrix. (NCI)", "preferredTerm": "Hair Bulb"}, {"conceptId": "C13317", "submissionValue": "HAIR FOLLICLE", "definition": "A tube-like invagination of the epidermis from which the hair shaft develops and into which the sebaceous glands open; the follicle is lined by a cellular inner and outer root sheath of epidermal origin and is invested with a fibrous sheath derived from the dermis. (NCI)", "preferredTerm": "Hair Follicle"}, {"conceptId": "C32711", "submissionValue": "HAIR ROOT", "definition": "The portion of the hair that is enclosed within the hair follicle. (NCI)", "preferredTerm": "Hair Root"}, {"conceptId": "C33543", "submissionValue": "HAIR SHAFT", "definition": "The segment of the hair that projects above the skin surface. (NCI)", "preferredTerm": "Shaft of the Hair", "synonyms": ["Shaft of the Hair"]}, {"conceptId": "C12860", "submissionValue": "HAMATE BONE", "definition": "The medial bone in the distal row of carpal bones. (NCI)", "preferredTerm": "Hamate Bone", "synonyms": ["Hamate Bone"]}, {"conceptId": "C32712", "submissionValue": "HAND", "definition": "The distal portion of the upper extremity. It consists of the carpus, metacarpus, and digits. (NCI)", "preferredTerm": "Hand", "synonyms": ["Hand"]}, {"conceptId": "C52834", "submissionValue": "HAND DIGIT 1", "definition": "The thick and short hand digit which is next to the index finger in humans. (NCI)", "preferredTerm": "Hand Digit 1", "synonyms": ["Thumb"]}, {"conceptId": "C52835", "submissionValue": "HAND DIGIT 2", "definition": "The second finger from the radial side of the hand, next to the thumb. (NCI)", "preferredTerm": "Hand Digit 2", "synonyms": ["Index Finger"]}, {"conceptId": "C52836", "submissionValue": "HAND DIGIT 3", "definition": "The middle or third finger from the radial side of the hand. (NCI)", "preferredTerm": "Hand Digit 3", "synonyms": ["Middle Finger"]}, {"conceptId": "C52837", "submissionValue": "HAND DIGIT 4", "definition": "The fourth finger from the radial side of the hand. (NCI)", "preferredTerm": "Hand Digit 4", "synonyms": ["Ring Finger"]}, {"conceptId": "C52838", "submissionValue": "HAND DIGIT 5", "definition": "The fifth and smallest finger from the radial side of the hand. (NCI)", "preferredTerm": "Hand Digit 5", "synonyms": ["Little Finger"]}, {"conceptId": "C52771", "submissionValue": "HAND PHALANX", "definition": "A bone of the hand. (NCI)", "preferredTerm": "Hand Phalanx", "synonyms": ["Hand Phalanx"]}, {"conceptId": "C12230", "submissionValue": "HARD PALATE", "definition": "The part of the roof of the mouth supported by bone.", "preferredTerm": "Hard Palate"}, {"conceptId": "C12419", "submissionValue": "HEAD", "definition": "The portion of the body containing the mouth, the brain and multiple sensory organs.", "preferredTerm": "Head"}, {"conceptId": "C12418", "submissionValue": "HEAD AND NECK", "definition": "The area of the body comprising the skull, facial bones and the cervical vertebrae, sinuses, orbits, salivary glands, oral cavity, oropharynx, larynx, thyroid, facial and neck musculature, soft tissue and lymph nodes draining these areas.", "preferredTerm": "Head and Neck"}, {"conceptId": "C32720", "submissionValue": "HEAD OF THE HUMERUS", "definition": "The upper rounded part of the humerus that fits into the glenoid cavity of the scapula. (NCI)", "preferredTerm": "Head of the Humerus", "synonyms": ["Head of the Humerus"]}, {"conceptId": "C12727", "submissionValue": "HEART", "definition": "A hollow muscular organ which receives the blood from the veins and pumps it into the arteries.", "preferredTerm": "Heart"}, {"conceptId": "C32126", "submissionValue": "HEART, APEX", "definition": "The most outer superficial part of the heart which is situated on the left 5th intercostal space. (NCI)", "preferredTerm": "Apex of the Heart", "synonyms": ["Apex of the Heart"]}, {"conceptId": "C12728", "submissionValue": "HEART, ATRIUM", "definition": "The smaller chamber(s) of the heart that receives blood from the peripheral circulation and/or the lungs.", "preferredTerm": "Cardiac Atrium", "synonyms": ["Cardiac Atrium"]}, {"conceptId": "C48589", "submissionValue": "HEART, BASE", "definition": "The superior portion of the heart located opposite to the apical portion. It is formed mainly by the left atrium. (NCI)", "preferredTerm": "Base of the Heart", "synonyms": ["Base of the Heart"]}, {"conceptId": "C127643", "submissionValue": "HEART, LEFT ATRIAL APPENDAGE", "definition": "A small muscular pouch located in the wall of the left atrium.", "preferredTerm": "Left Atrial Appendage"}, {"conceptId": "C12869", "submissionValue": "HEART, LEFT ATRIUM", "definition": "The smaller chamber on the left side of the heart, which receives oxygenated blood from the pulmonary veins and pumps it through the left atrioventricular valve into the left ventricle.", "preferredTerm": "Left Atrium"}, {"conceptId": "C12871", "submissionValue": "HEART, LEFT VENTRICLE", "definition": "The larger chamber on the left side of the heart, which receives oxygenated blood from the left atrium and pumps it through the aortic valve into the aorta.", "preferredTerm": "Left Ventricle", "synonyms": ["Left Ventricle"]}, {"conceptId": "C127644", "submissionValue": "HEART, LEFT VENTRICULAR OUTFLOW TRACT", "definition": "The structure through which blood flows from the left ventricle into the aortic root.", "preferredTerm": "Left Ventricular Outflow Tract"}, {"conceptId": "C127645", "submissionValue": "HEART, LEFT VENTRICULAR WALL", "definition": "The wall of the left ventricle, comprising anterior, inferior, lateral, apical, basal wall; and excluding the interventricular septum.", "preferredTerm": "Left Ventricular Wall"}, {"conceptId": "C127646", "submissionValue": "HEART, RIGHT ATRIAL APPENDAGE", "definition": "A small muscular pouch located in the wall of the right atrium.", "preferredTerm": "Right Atrial Appendage"}, {"conceptId": "C12868", "submissionValue": "HEART, RIGHT ATRIUM", "definition": "The smaller chamber on the right side of the heart, which receives deoxygenated blood from the body and pumps it through the right atrioventricular valve into the right ventricle.", "preferredTerm": "Right Atrium"}, {"conceptId": "C12870", "submissionValue": "HEART, RIGHT VENTRICLE", "definition": "The larger chamber on the right side of the heart, which receives deoxygenated blood from the right atrium and pumps it through the pulmonic valve into the pulmonary arteries.", "preferredTerm": "Right Ventricle", "synonyms": ["Right Ventricle"]}, {"conceptId": "C127647", "submissionValue": "HEART, RIGHT VENTRICULAR FREE WALL", "definition": "The lateral segment of the right ventricular wall, excluding the anterior and inferior right ventricular wall.", "preferredTerm": "Right Ventricular Free Wall"}, {"conceptId": "C127648", "submissionValue": "HEART, RIGHT VENTRICULAR OUTFLOW TRACT", "definition": "The structure through which blood flows from the right ventricle into the pulmonary trunk.", "preferredTerm": "Right Ventricular Outflow Tract"}, {"conceptId": "C127649", "submissionValue": "HEART, RIGHT VENTRICULAR WALL", "definition": "The wall of the right ventricle, comprising anterior, inferior, and lateral walls; and excluding the interventricular septum.", "preferredTerm": "Right Ventricular Wall"}, {"conceptId": "C49485", "submissionValue": "HEART, SEPTUM", "definition": "The tissue in the heart that separates the two atria (atrial septum) and the two ventricles (ventricular septum). (NCI)", "preferredTerm": "Heart Septum", "synonyms": ["Cardiac Septum"]}, {"conceptId": "C12730", "submissionValue": "HEART, VENTRICLE", "definition": "The larger chamber(s) of the heart that receives blood from an atrium and pushes it out of the heart into the peripheral circulation and/or the lungs.", "preferredTerm": "Cardiac Ventricle", "synonyms": ["Cardiac Ventricle"]}, {"conceptId": "C119295", "submissionValue": "HEART, VENTRICULAR WALL", "definition": "The tissue layers that form the cardiac ventricle. They include myocardium, endocardium, and pericardium. (NCI)", "preferredTerm": "Ventricular Wall of the Heart"}, {"conceptId": "C161381", "submissionValue": "HEEL OF THE FOOT", "definition": "The rounded back part of the foot below the ankle and behind the arch. (NCI)", "preferredTerm": "Heel of the Foot"}, {"conceptId": "C161382", "submissionValue": "HEEL OF THE HAND", "definition": "The raised part of the palm of the hand that is adjacent to the wrist. (NCI)", "preferredTerm": "Heel of the Hand", "synonyms": ["Heel of the Palm"]}, {"conceptId": "C32729", "submissionValue": "HEPATIC ARTERY", "definition": "An artery arising from the celiac trunk that supplies the liver and branches to form the cystic, gastro-duodenalis and pyloric arteries.", "preferredTerm": "Hepatic Artery"}, {"conceptId": "C77640", "submissionValue": "HEPATIC LYMPH NODE", "definition": "Lymph node(s) adjacent to the liver.", "preferredTerm": "Hepatic Lymph Node"}, {"conceptId": "C32736", "submissionValue": "HEPATIC VEIN", "definition": "The blood vessels that drain blood from the central veins of the liver into the inferior vena cava.", "preferredTerm": "Hepatic Vein"}, {"conceptId": "C43612", "submissionValue": "HEPATOBILIARY SYSTEM", "definition": "The body system that includes the liver, gallbladder, and associated ducts.", "preferredTerm": "Hepatobiliary System"}, {"conceptId": "C25724", "submissionValue": "HILAR", "definition": "Refers to the area associated with the hilum. (NCI)", "preferredTerm": "Hilar", "synonyms": ["Hilar"]}, {"conceptId": "C98187", "submissionValue": "HILAR LYMPH NODE", "definition": "A lymph node located in the hilum of the lung within the mediastinum.", "preferredTerm": "Pulmonary Hilar Lymph Node"}, {"conceptId": "C64193", "submissionValue": "HIP", "definition": "The lateral prominence of the pelvis from the waist to the thigh. (NCI)", "preferredTerm": "Hip", "synonyms": ["Hip"]}, {"conceptId": "C32742", "submissionValue": "HIP JOINT", "definition": "A ball-and-socket joint between the head of the femur and the acetabulum. (NCI)", "preferredTerm": "Hip Joint", "synonyms": ["Coxofemoral Joint", "Hip Joint"]}, {"conceptId": "C12444", "submissionValue": "HIPPOCAMPUS", "definition": "A curved gray matter structure of the cerebrum that is part of the limbic system.", "preferredTerm": "Hippocampus"}, {"conceptId": "C114187", "submissionValue": "HUMERAL EPICONDYLE", "definition": "The bone prominence at the distal end of the humerus to which ligaments and tendons of the joints are attached.", "preferredTerm": "Humeral Epicondyle"}, {"conceptId": "C12731", "submissionValue": "HUMERUS", "definition": "The bone between the scapulohumeral and humeroulnar joints.", "preferredTerm": "Humerus", "synonyms": ["Bone, Humeral"]}, {"conceptId": "C120671", "submissionValue": "HUMERUS SHAFT", "definition": "The cylindrical, elongated bony body of the humerus.", "preferredTerm": "Humeral Shaft"}, {"conceptId": "C32752", "submissionValue": "HYOID BONE", "definition": "A U-shaped bone supporting the tongue. This bone is located at the base of the tongue and is suspended from the tips of the styloid processes of the temporal bones by the stylohyoid ligaments. (NCI)", "preferredTerm": "Hyoid Bone", "synonyms": ["Hyoid Bone"]}, {"conceptId": "C12732", "submissionValue": "HYPOGLOSSAL NERVE", "definition": "The twelfth cranial nerve.", "preferredTerm": "Hypoglossal Nerve"}, {"conceptId": "C12246", "submissionValue": "HYPOPHARYNX", "definition": "The lower part of the pharynx that connects to the esophagus. (NCI)", "preferredTerm": "Hypopharynx", "synonyms": ["Hypopharynx"]}, {"conceptId": "C12458", "submissionValue": "HYPOTHALAMUS", "definition": "A small region of the brain composed of multiple nuclei and located underneath the thalamus.", "preferredTerm": "Hypothalamus"}, {"conceptId": "C12387", "submissionValue": "ILEUM", "definition": "The portion of the small intestine between the jejunum and large intestine.", "preferredTerm": "Ileum"}, {"conceptId": "C33757", "submissionValue": "ILEUM, TERMINAL", "definition": "The most distal section of the ileum that is continuous with the cecum. (NCI)", "preferredTerm": "Terminal Ileum", "synonyms": ["Terminal Ileum"]}, {"conceptId": "C103818", "submissionValue": "ILIAC CREST", "definition": "A predominate bone structure which borders the ilium wing stretching from the anterior superior iliac spine to the posterior superior iliac spine.", "preferredTerm": "Iliac Crest"}, {"conceptId": "C103454", "submissionValue": "ILIAC FOSSA", "definition": "The large smooth and concave surface of the ilium. (NCI)", "preferredTerm": "Iliac Fossa"}, {"conceptId": "C32761", "submissionValue": "ILIAC LYMPH NODE", "definition": "Lymph node(s) adjacent to the iliac vessels in the iliosacral region and cranial to the iliofemoral lymph node.", "preferredTerm": "Iliac Lymph Node"}, {"conceptId": "C12734", "submissionValue": "ILIAC VEIN", "definition": "Veins in the pelvis, which include the common, external and internal iliac veins.", "preferredTerm": "Iliac Vein"}, {"conceptId": "C32764", "submissionValue": "ILIOPSOAS MUSCLE", "definition": "A combination of two muscles found in the thigh, the iliacus and the psoas major, which have different sites of origin but a common insertion on the lesser trochanter of the femur; primary function is flexion of the hip.", "preferredTerm": "Iliopsoas Muscle"}, {"conceptId": "C139207", "submissionValue": "ILIOTIBIAL BAND", "definition": "A dense band of avascular, regular connective tissue. It is formed as the union of the superficial and deep layers of the tensor fascia latae, creating a thick band that extends inferiorly, taking its origins from the iliac crest, the tensor fascia latae, and the gluteus maximus, travelling inferiolaterally along the thigh, and inserting on Gerdy's tubercle on the lateral aspect of the tibia. Functionally, the iliotibial band helps to flex, abduct, and medially rotate the femur at the hip joint, and it also helps to stabilize the knee laterally.", "preferredTerm": "Iliotibial Band"}, {"conceptId": "C32765", "submissionValue": "ILIUM", "definition": "The broad, dorsal, upper, and widest of the three principal bones composing either half of the pelvis. (NCI)", "preferredTerm": "Ilium", "synonyms": ["Ilium"]}, {"conceptId": "C32769", "submissionValue": "INCISOR", "definition": "A tooth between the canines in either jaw.", "preferredTerm": "Incisor"}, {"conceptId": "C32770", "submissionValue": "INCUS", "definition": "One of the three bones comprising the middle ear. This anvil-shaped bone is positioned between the malleus and the stapes. (NCI)", "preferredTerm": "Incus", "synonyms": ["Incus"]}, {"conceptId": "C132392", "submissionValue": "INFERIOR PUBIC RAMUS", "definition": "The portion of the pubic ramus that lies between the superior pubic ramus and the inferior ramus of the ischium.", "preferredTerm": "Inferior Pubic Ramus"}, {"conceptId": "C12815", "submissionValue": "INFERIOR VENA CAVA", "definition": "A large vein that returns blood from the lower half of the body to the heart.", "preferredTerm": "Inferior Vena Cava"}, {"conceptId": "C63705", "submissionValue": "INFRACLAVICULAR LYMPH NODE", "definition": "A lymph node located in the area below the clavicle. (NCI)", "preferredTerm": "Infraclavicular Lymph Node", "synonyms": ["Infraclavicular Lymph Node", "Subclavicular Lymph Node"]}, {"conceptId": "C116179", "submissionValue": "INFRARENAL AORTA", "definition": "The portion of the abdominal aorta distal to the renal arteries.", "preferredTerm": "Infrarenal Aortic Segment"}, {"conceptId": "C12509", "submissionValue": "INFRATENTORIAL BRAIN", "definition": "The part of the brain below the tentorium cerebellum. (NCI)", "preferredTerm": "Infratentorial Brain"}, {"conceptId": "C32801", "submissionValue": "INGUINAL LYMPH NODE", "definition": "Lymph node(s) in the inguinal region.", "preferredTerm": "Inguinal Lymph Node"}, {"conceptId": "C12726", "submissionValue": "INGUINAL REGION", "definition": "The lower region of the anterior abdominal wall located laterally to the pubic region. (NCI)", "preferredTerm": "Inguinal Region", "synonyms": ["Groin"]}, {"conceptId": "C32278", "submissionValue": "INSULAR CORTEX", "definition": "A distinct cerebral lobe positioned in the depth of the Sylvian fissures and overlaid entirely by adjacent regions of the cerebral hemispheres.", "preferredTerm": "Central Lobe", "synonyms": ["Central Lobe"]}, {"conceptId": "C32818", "submissionValue": "INTERATRIAL SEPTUM", "definition": "The wall of tissue that separates the right atrium from the left atrium in the heart.", "preferredTerm": "Interatrial Septum"}, {"conceptId": "C32845", "submissionValue": "INTERNAL ILIAC ARTERY", "definition": "A short thick blood vessel arising from the bifurcation of the common iliac artery with numerous branches that supply the organs, walls and viscera of the pelvis as well as the inner thigh.", "preferredTerm": "Internal Iliac Artery"}, {"conceptId": "C88142", "submissionValue": "INTERNAL ILIAC LYMPH NODE", "definition": "A lymph node located along the internal iliac artery. (NCI)", "preferredTerm": "Internal Iliac Lymph Node"}, {"conceptId": "C52941", "submissionValue": "INTERNAL MAMMARY ARTERY", "definition": "An artery of the thoracic wall; in general it arises from the subclavian artery and branches into the musculophrenic and superior epigastric arteries.", "preferredTerm": "Internal Mammary Artery"}, {"conceptId": "C32853", "submissionValue": "INTERNAL MAMMARY LYMPH NODE", "definition": "Lymph node(s) in or adjacent to the mammary gland.", "preferredTerm": "Internal Mammary Lymph Node"}, {"conceptId": "C102301", "submissionValue": "INTERPHALANGEAL JOINT 1", "definition": "A ginglymoid (hinge) synovial joint within the first digit of the hand or foot articulating the proximal and distal phalanges. (NCI)", "preferredTerm": "Interphalangeal Joint 1", "synonyms": ["IP1"]}, {"conceptId": "C114200", "submissionValue": "INTERPHALANGEAL JOINT 1 OF THE FOOT", "definition": "A ginglymoid (hinge) synovial joint within the first digit of the foot articulating the proximal and distal phalanges. (NCI)", "preferredTerm": "Interphalangeal Joint 1 of the Foot", "synonyms": ["IP1 of the Foot"]}, {"conceptId": "C102302", "submissionValue": "INTERPHALANGEAL JOINT 2", "definition": "A ginglymoid (hinge) synovial joint between the phalanges of the second digit of the hand or foot. (NCI)", "preferredTerm": "Interphalangeal Joint 2", "synonyms": ["IP2"]}, {"conceptId": "C114201", "submissionValue": "INTERPHALANGEAL JOINT 2 OF THE FOOT", "definition": "A ginglymoid (hinge) synovial joint between the phalanges of the second digit of the foot. (NCI)", "preferredTerm": "Interphalangeal Joint 2 of the Foot", "synonyms": ["IP2 of the Foot"]}, {"conceptId": "C114190", "submissionValue": "INTERPHALANGEAL JOINT 2 OF THE HAND", "definition": "A ginglymoid (hinge) synovial joint between the phalanges of the second digit of the hand. (NCI)", "preferredTerm": "Interphalangeal Joint 2 of the Hand", "synonyms": ["IP2 of the Hand"]}, {"conceptId": "C102303", "submissionValue": "INTERPHALANGEAL JOINT 3", "definition": "A ginglymoid (hinge) synovial joint between the phalanges of the third digit of the hand or foot. (NCI)", "preferredTerm": "Interphalangeal Joint 3", "synonyms": ["IP3"]}, {"conceptId": "C114202", "submissionValue": "INTERPHALANGEAL JOINT 3 OF THE FOOT", "definition": "A ginglymoid (hinge) synovial joint between the phalanges of the third digit of the foot. (NCI)", "preferredTerm": "Interphalangeal Joint 3 of the Foot", "synonyms": ["IP3 of the Foot"]}, {"conceptId": "C114191", "submissionValue": "INTERPHALANGEAL JOINT 3 OF THE HAND", "definition": "A ginglymoid (hinge) synovial joint between the phalanges of the third digit of the hand. (NCI)", "preferredTerm": "Interphalangeal Joint 3 of the Hand", "synonyms": ["IP3 of the Hand"]}, {"conceptId": "C102304", "submissionValue": "INTERPHALANGEAL JOINT 4", "definition": "A ginglymoid (hinge) synovial joint between the phalanges of the fourth digit of the hand or foot. (NCI)", "preferredTerm": "Interphalangeal Joint 4", "synonyms": ["IP4"]}, {"conceptId": "C114203", "submissionValue": "INTERPHALANGEAL JOINT 4 OF THE FOOT", "definition": "A ginglymoid (hinge) synovial joint between the phalanges of the fourth digit of the foot. (NCI)", "preferredTerm": "Interphalangeal Joint 4 of the Foot", "synonyms": ["IP4 of the Foot"]}, {"conceptId": "C114192", "submissionValue": "INTERPHALANGEAL JOINT 4 OF THE HAND", "definition": "A ginglymoid (hinge) synovial joint between the phalanges of the fourth digit of the hand. (NCI)", "preferredTerm": "Interphalangeal Joint 4 of the Hand", "synonyms": ["IP4 of the Hand"]}, {"conceptId": "C102305", "submissionValue": "INTERPHALANGEAL JOINT 5", "definition": "A ginglymoid (hinge) synovial joint between the phalanges of the fifth digit of the hand or foot. (NCI)", "preferredTerm": "Interphalangeal Joint 5", "synonyms": ["IP5"]}, {"conceptId": "C114204", "submissionValue": "INTERPHALANGEAL JOINT 5 OF THE FOOT", "definition": "A ginglymoid (hinge) synovial joint between the phalanges of the fifth digit of the foot. (NCI)", "preferredTerm": "Interphalangeal Joint 5 of the Foot", "synonyms": ["IP5 of the Foot"]}, {"conceptId": "C114193", "submissionValue": "INTERPHALANGEAL JOINT 5 OF THE HAND", "definition": "A ginglymoid (hinge) synovial joint between the phalanges of the fifth digit of the hand. (NCI)", "preferredTerm": "Interphalangeal Joint 5 of the Hand", "synonyms": ["IP5 of the Hand"]}, {"conceptId": "C32868", "submissionValue": "INTERPHALANGEAL JOINT OF THE HAND", "definition": "The hinge synovial joints between the phalanges of the fingers. (NCI)", "preferredTerm": "Interphalangeal Joint of the Hand", "synonyms": ["Interphalangeal Joint of the Hand"]}, {"conceptId": "C32867", "submissionValue": "INTERPHALANGEAL OF THE FOOT", "definition": "The hinge synovial joints between the bones of the toes. (NCI)", "preferredTerm": "Interphalangeal Joint of the Foot", "synonyms": ["IP of the Foot"]}, {"conceptId": "C102306", "submissionValue": "INTERPHALANGEAL THUMB JOINT", "definition": "A condyloid synovial joint within the thumb articulating the proximal and distal phalanges.", "preferredTerm": "Interphalangeal Thumb Joint", "synonyms": ["IP THUMB", "IP1 of the Hand", "Interphalangeal Joint 1 of the Hand"]}, {"conceptId": "C120672", "submissionValue": "INTERTROCHANTERIC REGION", "definition": "The bony region in the proximal portion of the femur between the greater, lesser and sub- (also called the third) trochanters.", "preferredTerm": "Intertrochanteric Region"}, {"conceptId": "C32874", "submissionValue": "INTERVENTRICULAR SEPTUM", "definition": "The wall that separates the left and right ventricles of the heart. (NCI)", "preferredTerm": "Interventricular Septum", "synonyms": ["Interventricular Septal Wall"]}, {"conceptId": "C12736", "submissionValue": "INTESTINE", "definition": "The portion of the gastrointestinal tract that includes the small and large intestines.", "preferredTerm": "Intestine"}, {"conceptId": "C12677", "submissionValue": "INTRAHEPATIC BILE DUCT", "definition": "The bile ducts that pass through and drain bile from the liver. (NCI)", "preferredTerm": "Intrahepatic Bile Duct"}, {"conceptId": "C96803", "submissionValue": "INTRAHEPATIC LARGE BILE DUCT", "definition": "The larger bile ducts which are located within the liver and drain bile from the smaller peripheral intrahepatic bile ducts into the right and left hepatic ducts.", "preferredTerm": "Intrahepatic Large Bile Duct", "synonyms": ["Perihilar Bile Duct"]}, {"conceptId": "C12359", "submissionValue": "INTRATHORACIC LYMPH NODE", "definition": "Any lymph node within the thoracic cavity.", "preferredTerm": "Intrathoracic Lymph Node"}, {"conceptId": "C12737", "submissionValue": "IRIS", "definition": "The tissue in the eye that separates the anterior chamber from the posterior chamber.", "preferredTerm": "Iris"}, {"conceptId": "C105446", "submissionValue": "ISCHIAL TUBEROSITY", "definition": "The bony prominence of the lower part of the ischium. (NCI)", "preferredTerm": "Ischial Tuberosity"}, {"conceptId": "C103455", "submissionValue": "ISCHIORECTAL FOSSA", "definition": "A tetrahedral region of adipose tissue located in the ischiorectal region with its base between the tuberosity of the ischium and the lower end of the rectum and its apex at the point where the obturator fascia and the Levator ani membrane divide.", "preferredTerm": "Ischiorectal Fossa"}, {"conceptId": "C32884", "submissionValue": "ISCHIUM", "definition": "The most posterior and ventral bone making up the pelvis. (NCI)", "preferredTerm": "Ischium", "synonyms": ["Ischium"]}, {"conceptId": "C12388", "submissionValue": "JEJUNUM", "definition": "The portion of the small intestine between the duodenum and ileum.", "preferredTerm": "Jejunum"}, {"conceptId": "C13044", "submissionValue": "JOINT", "definition": "The connection point between two bones or skeletal elements. The joint may be fixed or movable. (NCI)", "preferredTerm": "Joint", "synonyms": ["Articulation", "Joint"]}, {"conceptId": "C12738", "submissionValue": "JUGULAR VEIN", "definition": "One of the veins of the neck; in general it arises from the junction of the maxillary and linguofacial veins and drains into the brachiocephalic or the cranial caval vein.", "preferredTerm": "Jugular Vein", "synonyms": ["Vena Jugularis"]}, {"conceptId": "C12415", "submissionValue": "KIDNEY", "definition": "The organs of the urinary tract located in the retroperitoneal cavity adjacent to the spine and composed of the renal cortex and the renal medulla.", "preferredTerm": "Kidney"}, {"conceptId": "C12739", "submissionValue": "KIDNEY, CORTEX", "definition": "The division of the renal parenchyma located between the renal capsule and the renal medulla, which contains glomeruli and tubules for filtering blood.", "preferredTerm": "Renal Cortex", "synonyms": ["Renal Cortex"]}, {"conceptId": "C32740", "submissionValue": "KIDNEY, HILUM", "definition": "The concave area of the kidney through which the renal artery enters and the renal vein and ureter exit the organ. (NCI)", "preferredTerm": "Hilar Area of the Kidney", "synonyms": ["Hilar Area of the Kidney"]}, {"conceptId": "C93180", "submissionValue": "KIDNEY, LOWER LOBE", "definition": "The lobe of the kidney located in the lowest portion of the kidney. (NCI)", "preferredTerm": "Lower Pole of Kidney", "synonyms": ["Lower Lobe of the Kidney"]}, {"conceptId": "C12740", "submissionValue": "KIDNEY, MEDULLA", "definition": "The deepest division of the renal parenchyma, comprising the renal pyramids, which contain a dense network of nephrons, all of which are part of the blood filtration process.", "preferredTerm": "Renal Medulla", "synonyms": ["Renal Medulla"]}, {"conceptId": "C93179", "submissionValue": "KIDNEY, UPPER LOBE", "definition": "The lobe of the kidney located in the uppermost region of the kidney. (NCI)", "preferredTerm": "Upper Pole of Kidney", "synonyms": ["Upper Lobe of the Kidney"]}, {"conceptId": "C32898", "submissionValue": "KNEE JOINT", "definition": "The joint connecting the lower part of the femur with the upper part of the tibia.", "preferredTerm": "Knee Joint", "synonyms": ["Femorotibial Joint", "Joint, Stifle", "Knee", "Tibiofemoral Joint"]}, {"conceptId": "C161388", "submissionValue": "KNEE JOINT TENDONS", "definition": "The tendons that connect the quadriceps muscles to the kneecap, the hamstring muscles to the shin bone and fibula, and the patella to the top part of the fibula, enabling flexion, extension, and slight rotation of the knee. (NCI)", "preferredTerm": "Knee Joint Tendons"}, {"conceptId": "C32899", "submissionValue": "L1 VERTEBRA", "definition": "The first lumbar vertebra counting from the top down. (NCI)", "preferredTerm": "L1 Vertebra", "synonyms": ["L1 Vertebra"]}, {"conceptId": "C32900", "submissionValue": "L2 VERTEBRA", "definition": "The second lumbar vertebra counting from the top down. (NCI)", "preferredTerm": "L2 Vertebra", "synonyms": ["L2 Vertebra"]}, {"conceptId": "C112327", "submissionValue": "L2-L3 INTERVERTEBRAL SPACE", "definition": "The space between the L2 and L3 vertebrae.", "preferredTerm": "L2-L3 Intervertebral Space"}, {"conceptId": "C32901", "submissionValue": "L3 VERTEBRA", "definition": "The third lumbar vertebra counting from the top down. (NCI)", "preferredTerm": "L3 Vertebra", "synonyms": ["L3 Vertebra"]}, {"conceptId": "C112328", "submissionValue": "L3-L4 INTERVERTEBRAL SPACE", "definition": "The space between the L3 and L4 vertebrae.", "preferredTerm": "L3-L4 Intervertebral Space"}, {"conceptId": "C32902", "submissionValue": "L4 VERTEBRA", "definition": "The fourth lumbar vertebra counting from the top down. (NCI)", "preferredTerm": "L4 Vertebra", "synonyms": ["L4 Vertebra"]}, {"conceptId": "C142296", "submissionValue": "L4-L5 INTERVERTEBRAL SPACE", "definition": "The space between the L4 and L5 vertebrae.", "preferredTerm": "L4-L5 Intervertebral Space"}, {"conceptId": "C32903", "submissionValue": "L5 VERTEBRA", "definition": "The fifth lumbar vertebra counting from the top down. (NCI)", "preferredTerm": "L5 Vertebra", "synonyms": ["L5 Vertebra"]}, {"conceptId": "C154781", "submissionValue": "L5-S1 INTERVERTEBRAL SPACE", "definition": "The space between the L5 and S1 vertebrae.", "preferredTerm": "L5-S1 Intervertebral Space"}, {"conceptId": "C120673", "submissionValue": "L6 VERTEBRA", "definition": "A congenital anomaly of the spine, where an extra or supernumerary lumbar vertebra arises from below the 5th lumbar vertebra.", "preferredTerm": "Extra Lumbar Vertebra"}, {"conceptId": "C32906", "submissionValue": "LACRIMAL BONE", "definition": "A small rectangular thin plate forming part of the medial orbit wall. It is located posterior to the frontal process of the maxilla and articulates with the inferior nasal concha, ethmoid, frontal, and maxillary bones. (NCI)", "preferredTerm": "Lacrimal Bone", "synonyms": ["Lacrimal Bone"]}, {"conceptId": "C12346", "submissionValue": "LACRIMAL GLAND", "definition": "The exocrine glands that produce the watery serous component of tears.", "preferredTerm": "Lacrimal Gland"}, {"conceptId": "C102313", "submissionValue": "LAD SEPTAL PERFORATOR ARTERY", "definition": "The arteries that arise from the left anterior descending (LAD) artery that supply the interventricular septum.", "preferredTerm": "Left Anterior Descending Septal Perforator Artery", "synonyms": ["LAD SEPTAL PERFORATOR ARTERY SEGMENTS", "LAD SP"]}, {"conceptId": "C12379", "submissionValue": "LARGE INTESTINE", "definition": "The avillous section of the intestine composed of crypts and extending from the terminal small intestine to the external orifice.", "preferredTerm": "Large Intestine", "synonyms": ["Large Bowel"]}, {"conceptId": "C12420", "submissionValue": "LARYNX", "definition": "The cartilaginous structure of the respiratory tract between the pharynx and the trachea.", "preferredTerm": "Larynx"}, {"conceptId": "C102307", "submissionValue": "LATERAL FIRST DIAGONAL BRANCH ARTERY", "definition": "The lateral branch distal to a bifurcation of the first diagonal artery.", "preferredTerm": "Lateral First Diagonal Branch Artery", "synonyms": ["LAT 1ST DIAG", "LATERAL FIRST DIAGONAL BRANCH ARTERY SEGMENT"]}, {"conceptId": "C102308", "submissionValue": "LATERAL FIRST OBTUSE MARGINAL BRANCH ARTERY", "definition": "The lateral branch distal to a bifurcation of the first obtuse marginal artery.", "preferredTerm": "Lateral First Obtuse Marginal Branch Artery", "synonyms": ["First Obtuse Marginal Lateral Branch", "LAT 1ST OM", "LATERAL FIRST OBTUSE MARGINAL BRANCH ARTERY SEGMENT"]}, {"conceptId": "C139202", "submissionValue": "LATERAL HUMERAL EPICONDYLE", "definition": "A bone prominence at the distal end of the humerus to which the radial collateral ligament of the elbow joint, the anconeus and supinator muscles, and the common extensor tendon are attached.", "preferredTerm": "Lateral Humeral Epicondyle"}, {"conceptId": "C102309", "submissionValue": "LATERAL RAMUS INTERMEDIUS ARTERY", "definition": "The lateral branch distal to a bifurcation of the ramus intermedius artery.", "preferredTerm": "Lateral Ramus Intermedius Artery", "synonyms": ["LAT RAMUS", "LATERAL RAMUS INTERMEDIUS ARTERY SEGMENT"]}, {"conceptId": "C102310", "submissionValue": "LATERAL SECOND DIAGONAL BRANCH ARTERY", "definition": "The lateral branch distal to a bifurcation of the second diagonal artery.", "preferredTerm": "Lateral Second Diagonal Branch Artery", "synonyms": ["LAT 2ND DIAG", "LATERAL SECOND DIAGONAL BRANCH ARTERY SEGMENT"]}, {"conceptId": "C102311", "submissionValue": "LATERAL SECOND OBTUSE MARGINAL BRANCH ARTERY", "definition": "The lateral branch distal to a bifurcation of the second obtuse marginal artery.", "preferredTerm": "Lateral Second Obtuse Marginal Branch Artery", "synonyms": ["LAT 2ND OM", "LATERAL SECOND OBTUSE MARGINAL BRANCH ARTERY SEGMENT", "Second Obtuse Marginal Lateral Branch"]}, {"conceptId": "C102312", "submissionValue": "LATERAL THIRD DIAGONAL BRANCH ARTERY", "definition": "The lateral branch distal to a bifurcation of the third diagonal artery.", "preferredTerm": "Lateral Third Diagonal Branch Artery", "synonyms": ["LAT 3RD DIAG", "LATERAL THIRD DIAGONAL BRANCH ARTERY SEGMENT"]}, {"conceptId": "C102425", "submissionValue": "LATERAL THIRD OBTUSE MARGINAL BRANCH ARTERY", "definition": "The lateral branch distal to a bifurcation of the third obtuse marginal artery.", "preferredTerm": "Lateral Third Obtuse Marginal Branch Artery", "synonyms": ["LAT 3RD OM", "LATERAL THIRD OBTUSE MARGINAL BRANCH ARTERY SEGMENT", "Third Obtuse Marginal Lateral Branch"]}, {"conceptId": "C33150", "submissionValue": "LATISSIMUS DORSI MUSCLE", "definition": "A muscle of the back, in general extending from the thoracolumbar vertebrae and scapula to the proximal humerus; primary function is adduction, extension, and medial rotation of the shoulder joint.", "preferredTerm": "Musculus Latissimus Dorsi", "synonyms": ["Musculus Latissimus Dorsi"]}, {"conceptId": "C116175", "submissionValue": "LEFT ANTERIOR DESCENDING ARTERY OSTIUM", "definition": "The opening of the left anterior descending coronary artery at its origin.", "preferredTerm": "Left Anterior Descending Artery Ostium"}, {"conceptId": "C116177", "submissionValue": "LEFT ATRIOVENTRICULAR ARTERY", "definition": "The first posterolateral branch originating from the posterior atrioventricular left circumflex artery in left dominant and mixed circulations.", "preferredTerm": "Left Atrioventricular Artery"}, {"conceptId": "C116176", "submissionValue": "LEFT CIRCUMFLEX ARTERY OSTIUM", "definition": "The opening of the left circumflex artery at its origin.", "preferredTerm": "Left Circumflex Artery Ostium"}, {"conceptId": "C12874", "submissionValue": "LEFT CIRCUMFLEX CORONARY ARTERY", "definition": "An artery arising from the bifurcation of the left coronary artery that runs along the coronary groove.", "preferredTerm": "Circumflex Branch of the Left Coronary Artery"}, {"conceptId": "C116174", "submissionValue": "LEFT MAIN CORONARY ARTERY BIFURCATION", "definition": "The portion of the distal end of the left main coronary artery that branches into the left anterior descending artery and the left circumflex artery.", "preferredTerm": "Left Main Coronary Artery Bifurcation"}, {"conceptId": "C116173", "submissionValue": "LEFT MAIN CORONARY ARTERY BODY", "definition": "The segment of the left main coronary artery that is bounded by its ostium and bifurcation.", "preferredTerm": "Left Main Coronary Artery Body"}, {"conceptId": "C116172", "submissionValue": "LEFT MAIN CORONARY ARTERY OSTIUM", "definition": "The opening of the left coronary artery at its origin.", "preferredTerm": "Left Main Coronary Artery Ostium"}, {"conceptId": "C116178", "submissionValue": "LEFT POSTERIOR DESCENDING ARTERY", "definition": "The second posterolateral branch originating from the posterior atrioventricular left circumflex artery in left dominant and mixed circulations.", "preferredTerm": "Left Posterior Descending Artery"}, {"conceptId": "C102314", "submissionValue": "LEFT POSTEROLATERAL DESCENDING ARTERY", "definition": "In an individual with a left-dominant heart, this branch arises from the circumflex artery atrioventricular groove continuation and supplies the inferior apex of the heart.", "preferredTerm": "Left Posterolateral Descending Artery", "synonyms": ["LEFT POSTEROLATERAL DESCENDING ARTERY SEGMENT", "LPDA"]}, {"conceptId": "C127650", "submissionValue": "LEFT VENTRICULAR APEX SEGMENT", "definition": "The apical cap division of the left ventricular myocardium as determined using the AHA 17-Segment Model (Cerqueira MD, Weissman NJ, Dilsizian V, Jacobs AK, Kaul S, Laskey WK, Pennell DJ, Rumberger JA, Ryan T, Verani MS; American Heart Association Writing Group on Myocardial Segmentation and Registration for Cardiac Imaging. Standardized myocardial segmentation and nomenclature for tomographic imaging of the heart. A statement for healthcare professionals from the Cardiac Imaging Committee of the Council on Clinical Cardiology of the American Heart Association. Circulation. 2002 Jan 29;105(4):539-42.).", "preferredTerm": "Left Ventricular Apex Segment"}, {"conceptId": "C127651", "submissionValue": "LEFT VENTRICULAR APICAL ANTERIOR SEGMENT", "definition": "The anterior portion of the apical division of the left ventricular myocardium as determined using the AHA 17-Segment Model (Cerqueira MD, Weissman NJ, Dilsizian V, Jacobs AK, Kaul S, Laskey WK, Pennell DJ, Rumberger JA, Ryan T, Verani MS; American Heart Association Writing Group on Myocardial Segmentation and Registration for Cardiac Imaging. Standardized myocardial segmentation and nomenclature for tomographic imaging of the heart. A statement for healthcare professionals from the Cardiac Imaging Committee of the Council on Clinical Cardiology of the American Heart Association. Circulation. 2002 Jan 29;105(4):539-42.).", "preferredTerm": "Left Ventricular Apical Anterior Segment"}, {"conceptId": "C127652", "submissionValue": "LEFT VENTRICULAR APICAL INFERIOR SEGMENT", "definition": "The inferior portion of the apical division of the left ventricular myocardium as determined using the AHA 17-Segment Model (Cerqueira MD, Weissman NJ, Dilsizian V, Jacobs AK, Kaul S, Laskey WK, Pennell DJ, Rumberger JA, Ryan T, Verani MS; American Heart Association Writing Group on Myocardial Segmentation and Registration for Cardiac Imaging. Standardized myocardial segmentation and nomenclature for tomographic imaging of the heart. A statement for healthcare professionals from the Cardiac Imaging Committee of the Council on Clinical Cardiology of the American Heart Association. Circulation. 2002 Jan 29;105(4):539-42.).", "preferredTerm": "Left Ventricular Apical Inferior Segment"}, {"conceptId": "C127653", "submissionValue": "LEFT VENTRICULAR APICAL LATERAL SEGMENT", "definition": "The lateral portion of the apical division of the left ventricular myocardium as determined using the AHA 17-Segment Model (Cerqueira MD, Weissman NJ, Dilsizian V, Jacobs AK, Kaul S, Laskey WK, Pennell DJ, Rumberger JA, Ryan T, Verani MS; American Heart Association Writing Group on Myocardial Segmentation and Registration for Cardiac Imaging. Standardized myocardial segmentation and nomenclature for tomographic imaging of the heart. A statement for healthcare professionals from the Cardiac Imaging Committee of the Council on Clinical Cardiology of the American Heart Association. Circulation. 2002 Jan 29;105(4):539-42.).", "preferredTerm": "Left Ventricular Apical Lateral Segment"}, {"conceptId": "C127654", "submissionValue": "LEFT VENTRICULAR APICAL SEPTAL SEGMENT", "definition": "The septal portion of the apical division of the left ventricular myocardium as determined using the AHA 17-Segment Model (Cerqueira MD, Weissman NJ, Dilsizian V, Jacobs AK, Kaul S, Laskey WK, Pennell DJ, Rumberger JA, Ryan T, Verani MS; American Heart Association Writing Group on Myocardial Segmentation and Registration for Cardiac Imaging. Standardized myocardial segmentation and nomenclature for tomographic imaging of the heart. A statement for healthcare professionals from the Cardiac Imaging Committee of the Council on Clinical Cardiology of the American Heart Association. Circulation. 2002 Jan 29;105(4):539-42.).", "preferredTerm": "Left Ventricular Apical Septal Segment"}, {"conceptId": "C127655", "submissionValue": "LEFT VENTRICULAR BASAL ANTERIOR SEGMENT", "definition": "The anterior portion of the basal division of the left ventricular myocardium as determined using the AHA 17-Segment Model (Cerqueira MD, Weissman NJ, Dilsizian V, Jacobs AK, Kaul S, Laskey WK, Pennell DJ, Rumberger JA, Ryan T, Verani MS; American Heart Association Writing Group on Myocardial Segmentation and Registration for Cardiac Imaging. Standardized myocardial segmentation and nomenclature for tomographic imaging of the heart. A statement for healthcare professionals from the Cardiac Imaging Committee of the Council on Clinical Cardiology of the American Heart Association. Circulation. 2002 Jan 29;105(4):539-42.).", "preferredTerm": "Left Ventricular Basal Anterior Segment"}, {"conceptId": "C127656", "submissionValue": "LEFT VENTRICULAR BASAL ANTEROLATERAL SEGMENT", "definition": "The anterolateral portion of the basal division of the left ventricular myocardium as determined using the AHA 17-Segment Model (Cerqueira MD, Weissman NJ, Dilsizian V, Jacobs AK, Kaul S, Laskey WK, Pennell DJ, Rumberger JA, Ryan T, Verani MS; American Heart Association Writing Group on Myocardial Segmentation and Registration for Cardiac Imaging. Standardized myocardial segmentation and nomenclature for tomographic imaging of the heart. A statement for healthcare professionals from the Cardiac Imaging Committee of the Council on Clinical Cardiology of the American Heart Association. Circulation. 2002 Jan 29;105(4):539-42.).", "preferredTerm": "Left Ventricular Basal Anterolateral Segment"}, {"conceptId": "C127657", "submissionValue": "LEFT VENTRICULAR BASAL ANTEROSEPTAL SEGMENT", "definition": "The anteroseptal portion of the basal division of the left ventricular myocardium as determined using the AHA 17-Segment Model (Cerqueira MD, Weissman NJ, Dilsizian V, Jacobs AK, Kaul S, Laskey WK, Pennell DJ, Rumberger JA, Ryan T, Verani MS; American Heart Association Writing Group on Myocardial Segmentation and Registration for Cardiac Imaging. Standardized myocardial segmentation and nomenclature for tomographic imaging of the heart. A statement for healthcare professionals from the Cardiac Imaging Committee of the Council on Clinical Cardiology of the American Heart Association. Circulation. 2002 Jan 29;105(4):539-42.).", "preferredTerm": "Left Ventricular Basal Anteroseptal Segment"}, {"conceptId": "C127658", "submissionValue": "LEFT VENTRICULAR BASAL INFERIOR SEGMENT", "definition": "The inferior portion of the basal division of the left ventricular myocardium as determined using the AHA 17-Segment Model (Cerqueira MD, Weissman NJ, Dilsizian V, Jacobs AK, Kaul S, Laskey WK, Pennell DJ, Rumberger JA, Ryan T, Verani MS; American Heart Association Writing Group on Myocardial Segmentation and Registration for Cardiac Imaging. Standardized myocardial segmentation and nomenclature for tomographic imaging of the heart. A statement for healthcare professionals from the Cardiac Imaging Committee of the Council on Clinical Cardiology of the American Heart Association. Circulation. 2002 Jan 29;105(4):539-42.).", "preferredTerm": "Left Ventricular Basal Inferior Segment"}, {"conceptId": "C127659", "submissionValue": "LEFT VENTRICULAR BASAL INFEROLATERAL SEGMENT", "definition": "The inferolateral portion of the basal division of the left ventricular myocardium as determined using the AHA 17-Segment Model (Cerqueira MD, Weissman NJ, Dilsizian V, Jacobs AK, Kaul S, Laskey WK, Pennell DJ, Rumberger JA, Ryan T, Verani MS; American Heart Association Writing Group on Myocardial Segmentation and Registration for Cardiac Imaging. Standardized myocardial segmentation and nomenclature for tomographic imaging of the heart. A statement for healthcare professionals from the Cardiac Imaging Committee of the Council on Clinical Cardiology of the American Heart Association. Circulation. 2002 Jan 29;105(4):539-42.).", "preferredTerm": "Left Ventricular Basal Inferolateral Segment"}, {"conceptId": "C127660", "submissionValue": "LEFT VENTRICULAR BASAL INFEROSEPTAL SEGMENT", "definition": "The inferoseptal portion of the basal division of the left ventricular myocardium as determined using the AHA 17-Segment Model (Cerqueira MD, Weissman NJ, Dilsizian V, Jacobs AK, Kaul S, Laskey WK, Pennell DJ, Rumberger JA, Ryan T, Verani MS; American Heart Association Writing Group on Myocardial Segmentation and Registration for Cardiac Imaging. Standardized myocardial segmentation and nomenclature for tomographic imaging of the heart. A statement for healthcare professionals from the Cardiac Imaging Committee of the Council on Clinical Cardiology of the American Heart Association. Circulation. 2002 Jan 29;105(4):539-42.).", "preferredTerm": "Left Ventricular Basal Inferoseptal Segment"}, {"conceptId": "C102315", "submissionValue": "LEFT VENTRICULAR EPICARDIUM", "definition": "The outermost layer of cardiac tissue lining of the left ventricle.", "preferredTerm": "Left Ventricular Epicardium"}, {"conceptId": "C127661", "submissionValue": "LEFT VENTRICULAR MID ANTERIOR SEGMENT", "definition": "The anterior portion of the mid-cavity division of the left ventricular myocardium as determined using the AHA 17-Segment Model (Cerqueira MD, Weissman NJ, Dilsizian V, Jacobs AK, Kaul S, Laskey WK, Pennell DJ, Rumberger JA, Ryan T, Verani MS; American Heart Association Writing Group on Myocardial Segmentation and Registration for Cardiac Imaging. Standardized myocardial segmentation and nomenclature for tomographic imaging of the heart. A statement for healthcare professionals from the Cardiac Imaging Committee of the Council on Clinical Cardiology of the American Heart Association. Circulation. 2002 Jan 29;105(4):539-42.).", "preferredTerm": "Left Ventricular Mid Anterior Segment"}, {"conceptId": "C127662", "submissionValue": "LEFT VENTRICULAR MID ANTEROLATERAL SEGMENT", "definition": "The anterolateral portion of the mid-cavity division of the left ventricular myocardium as determined using the AHA 17-Segment Model (Cerqueira MD, Weissman NJ, Dilsizian V, Jacobs AK, Kaul S, Laskey WK, Pennell DJ, Rumberger JA, Ryan T, Verani MS; American Heart Association Writing Group on Myocardial Segmentation and Registration for Cardiac Imaging. Standardized myocardial segmentation and nomenclature for tomographic imaging of the heart. A statement for healthcare professionals from the Cardiac Imaging Committee of the Council on Clinical Cardiology of the American Heart Association. Circulation. 2002 Jan 29;105(4):539-42.).", "preferredTerm": "Left Ventricular Mid Anterolateral Segment"}, {"conceptId": "C127663", "submissionValue": "LEFT VENTRICULAR MID ANTEROSEPTAL SEGMENT", "definition": "The anteroseptal portion of the mid-cavity division of the left ventricular myocardium as determined using the AHA 17-Segment Model (Cerqueira MD, Weissman NJ, Dilsizian V, Jacobs AK, Kaul S, Laskey WK, Pennell DJ, Rumberger JA, Ryan T, Verani MS; American Heart Association Writing Group on Myocardial Segmentation and Registration for Cardiac Imaging. Standardized myocardial segmentation and nomenclature for tomographic imaging of the heart. A statement for healthcare professionals from the Cardiac Imaging Committee of the Council on Clinical Cardiology of the American Heart Association. Circulation. 2002 Jan 29;105(4):539-42.).", "preferredTerm": "Left Ventricular Mid Anteroseptal Segment"}, {"conceptId": "C127664", "submissionValue": "LEFT VENTRICULAR MID INFERIOR SEGMENT", "definition": "The inferior portion of the mid-cavity division of the left ventricular myocardium as determined using the AHA 17-Segment Model (Cerqueira MD, Weissman NJ, Dilsizian V, Jacobs AK, Kaul S, Laskey WK, Pennell DJ, Rumberger JA, Ryan T, Verani MS; American Heart Association Writing Group on Myocardial Segmentation and Registration for Cardiac Imaging. Standardized myocardial segmentation and nomenclature for tomographic imaging of the heart. A statement for healthcare professionals from the Cardiac Imaging Committee of the Council on Clinical Cardiology of the American Heart Association. Circulation. 2002 Jan 29;105(4):539-42.).", "preferredTerm": "Left Ventricular Mid Inferior Segment"}, {"conceptId": "C127665", "submissionValue": "LEFT VENTRICULAR MID INFEROLATERAL SEGMENT", "definition": "The inferolateral portion of the mid-cavity division of the left ventricular myocardium as determined using the AHA 17-Segment Model (Cerqueira MD, Weissman NJ, Dilsizian V, Jacobs AK, Kaul S, Laskey WK, Pennell DJ, Rumberger JA, Ryan T, Verani MS; American Heart Association Writing Group on Myocardial Segmentation and Registration for Cardiac Imaging. Standardized myocardial segmentation and nomenclature for tomographic imaging of the heart. A statement for healthcare professionals from the Cardiac Imaging Committee of the Council on Clinical Cardiology of the American Heart Association. Circulation. 2002 Jan 29;105(4):539-42.).", "preferredTerm": "Left Ventricular Mid Inferolateral Segment"}, {"conceptId": "C127666", "submissionValue": "LEFT VENTRICULAR MID INFEROSEPTAL SEGMENT", "definition": "The inferoseptal portion of the mid-cavity division of the left ventricular myocardium as determined using the AHA 17-Segment Model (Cerqueira MD, Weissman NJ, Dilsizian V, Jacobs AK, Kaul S, Laskey WK, Pennell DJ, Rumberger JA, Ryan T, Verani MS; American Heart Association Writing Group on Myocardial Segmentation and Registration for Cardiac Imaging. Standardized myocardial segmentation and nomenclature for tomographic imaging of the heart. A statement for healthcare professionals from the Cardiac Imaging Committee of the Council on Clinical Cardiology of the American Heart Association. Circulation. 2002 Jan 29;105(4):539-42.).", "preferredTerm": "Left Ventricular Mid Inferoseptal Segment"}, {"conceptId": "C32974", "submissionValue": "LEG", "definition": "One of the two lower extremities in humans used for locomotion and support. (NCI)", "preferredTerm": "Leg", "synonyms": ["Leg"]}, {"conceptId": "C52749", "submissionValue": "LEG SKIN", "definition": "The integument that covers the leg.", "preferredTerm": "Leg Skin", "synonyms": ["Leg Skin"]}, {"conceptId": "C12743", "submissionValue": "LENS", "definition": "The structure of the eye through which light is focused onto the retina.", "preferredTerm": "Lens", "synonyms": ["Crystalline Lens", "Ocular Lens"]}, {"conceptId": "C32979", "submissionValue": "LEPTOMENINGES", "definition": "The two innermost layers of tissue that cover the brain and spinal cord, the arachnoid mater and the pia mater. (NCI)", "preferredTerm": "Leptomeninges"}, {"conceptId": "C32982", "submissionValue": "LESSER TROCHANTER", "definition": "A cone-shaped projection in the shaft of the femur in which the iliopsoas muscle is attached. (NCI)", "preferredTerm": "Lesser Trochanter"}, {"conceptId": "C13046", "submissionValue": "LIGAMENT", "definition": "Band of fibrous tissue connecting bone to bone or cartilage to bone thereby supporting or strengthening a joint. (NCI)", "preferredTerm": "Ligament", "synonyms": ["Ligament"]}, {"conceptId": "C12429", "submissionValue": "LIMB", "definition": "A jointed extremity of the upper/thoracic or lower/pelvic regions.", "preferredTerm": "Limb", "synonyms": ["Extremity"]}, {"conceptId": "C12742", "submissionValue": "LIMB, LOWER", "definition": "The limb that is composed of the hip, thigh, leg and foot. (NCI)", "preferredTerm": "Lower Extremity", "synonyms": ["Lower Extremity"]}, {"conceptId": "C12671", "submissionValue": "LIMB, UPPER", "definition": "The region of the body that extends distal to the scapulohumeral joint.", "preferredTerm": "Upper Extremity", "synonyms": ["Upper Extremity"]}, {"conceptId": "C40373", "submissionValue": "LINGULA OF THE LUNG", "definition": "A small tongue-like projection from the lower portion of the upper lobe of the left lung.", "preferredTerm": "Lingula of the Lung"}, {"conceptId": "C12220", "submissionValue": "LIP", "definition": "Fleshy fold which surrounds the opening of the mouth. (NCI)", "preferredTerm": "Lip", "synonyms": ["Lip", "Vermillion of the Lip"]}, {"conceptId": "C12222", "submissionValue": "LIP, LOWER", "definition": "The external surface of the lower lip. (NCI)", "preferredTerm": "External Lower Lip", "synonyms": ["External Lower Lip"]}, {"conceptId": "C12221", "submissionValue": "LIP, UPPER", "definition": "The external surface of the upper lip. (NCI)", "preferredTerm": "External Upper Lip", "synonyms": ["External Upper Lip"]}, {"conceptId": "C12392", "submissionValue": "LIVER", "definition": "An abdominal organ that has variable lobation which are composed mainly of hepatic lobules.", "preferredTerm": "Liver"}, {"conceptId": "C32996", "submissionValue": "LIVER FISSURE", "definition": "A groove on the surface of the liver.", "preferredTerm": "Liver Fissure", "synonyms": ["Liver Fissure"]}, {"conceptId": "C33000", "submissionValue": "LIVER, CAUDATE LOBE", "definition": "The lobe of the liver situated posteriorly located between the left lobe and the inferior vena cava.", "preferredTerm": "Caudate Lobe"}, {"conceptId": "C32965", "submissionValue": "LIVER, LEFT LOBE", "definition": "The smaller lobe of the liver extending into the left side of the body.", "preferredTerm": "Left Lobe of the Liver"}, {"conceptId": "C112404", "submissionValue": "LIVER, QUADRATE LOBE", "definition": "An oblong shaped area of the liver that is situated inferior to the right lobe, bounded by the anterior margin of the liver and the porta hepatis.", "preferredTerm": "Quadrate Lobe of Liver"}, {"conceptId": "C33481", "submissionValue": "LIVER, RIGHT LOBE", "definition": "The larger lobe of the liver extending into the right side of the body.", "preferredTerm": "Right Lobe of the Liver"}, {"conceptId": "C97333", "submissionValue": "LOCUS CERULEUS", "definition": "A brainstem nucleus. It is the major brain site for the synthesis and secretion of norepinephrine. (NCI)", "preferredTerm": "Locus Coeruleus"}, {"conceptId": "C132512", "submissionValue": "LOWER JUGULAR LYMPH NODE", "definition": "Any lymph nodes located within close proximity to the lower third of the internal jugular vein, extending from the inferior border of the cricoid cartilage (superiorly) to the clavicle (inferiorly). The anterior (medial) boundary is the lateral border of the sternohyoid muscle and the posterior (lateral) boundary is the posterior border of the sternocleidomastoid muscle. (AJCC 8th ed.)", "preferredTerm": "Lower Jugular Lymph Node Group (Level IV)"}, {"conceptId": "C33012", "submissionValue": "LOWER RESPIRATORY SYSTEM", "definition": "The part of the respiratory system below the bifurcation of the trachea. It includes the lungs and the parts of the lungs such as the bronchi, bronchioles and alveoli.", "preferredTerm": "Lower Respiratory System"}, {"conceptId": "C34004", "submissionValue": "LUMBAR REGION", "definition": "The area of the body below the ribs and above the hipbones. (NCI)", "preferredTerm": "Lumbar Region"}, {"conceptId": "C69314", "submissionValue": "LUMBAR SPINE", "definition": "The vertebrae located below the thoracic and above the sacral vertebrae.", "preferredTerm": "Lumbar Spine"}, {"conceptId": "C12744", "submissionValue": "LUMBAR VERTEBRA", "definition": "Any of the vertebrae situated between the thoracic vertebrae and the sacrum in the lower part of the spine.", "preferredTerm": "Lumbar Vertebra", "synonyms": ["Lumbar Vertebra"]}, {"conceptId": "C150852", "submissionValue": "LUMBRICAL MUSCLES OF THE HAND", "definition": "One of a group of four short muscles in the hand that extend from the radial and ulnar sides of the tendons of the flexor digitorum profundus to the radial lateral band of the extensor expansion tendon; primary function is extension of the proximal and distal interphalangeal joints.", "preferredTerm": "Lumbrical Muscle"}, {"conceptId": "C12786", "submissionValue": "LUNATE BONE", "definition": "The bone in the proximal row of carpal bones that lies between the scaphoid and triquetral bones. (NCI)", "preferredTerm": "Lunate Bone", "synonyms": ["Lunate Bone"]}, {"conceptId": "C12468", "submissionValue": "LUNG", "definition": "A thoracic organ that has variable lobation and is the primary respiratory organ of mammals.", "preferredTerm": "Lung"}, {"conceptId": "C49282", "submissionValue": "LUNG, HILUM", "definition": "The wedge-shaped area at the central portion of the lung through which the bronchi, vessels and nerves enter or exit the organ. (NCI)", "preferredTerm": "Hilar Area of the Lung", "synonyms": ["Hilar Area of the Lung"]}, {"conceptId": "C32967", "submissionValue": "LUNG, LEFT", "definition": "The 2-lobed lung located on the left side of the body. (NCI)", "preferredTerm": "Left Lung", "synonyms": ["Left Lung"]}, {"conceptId": "C33020", "submissionValue": "LUNG, LEFT LOWER LOBE", "definition": "The larger lobe of the left lung, situated below and behind the oblique fissure. (NCI)", "preferredTerm": "Lower Lobe of the Left Lung", "synonyms": ["Lower Lobe of the Left Lung"]}, {"conceptId": "C33021", "submissionValue": "LUNG, LEFT UPPER LOBE", "definition": "The smaller lobe of the left lung, situated above and in front the oblique fissure, which includes the apex. (NCI)", "preferredTerm": "Upper Lobe of the Left Lung", "synonyms": ["Upper Lobe of the Left Lung"]}, {"conceptId": "C132393", "submissionValue": "LUNG, LEFT, INFERIOR LOBE, ANTERIOR BASAL SEGMENT", "definition": "The anterior basal segment of the inferior lobe of the left lung.", "preferredTerm": "Left Lung, Inferior Lobe, Anterior Basal Segment"}, {"conceptId": "C132394", "submissionValue": "LUNG, LEFT, INFERIOR LOBE, LATERAL BASAL SEGMENT", "definition": "The lateral basal segment of the inferior lobe of the left lung.", "preferredTerm": "Left Lung, Inferior Lobe, Lateral Basal Segment"}, {"conceptId": "C132395", "submissionValue": "LUNG, LEFT, INFERIOR LOBE, MEDIAL BASAL SEGMENT", "definition": "The medial basal segment of the inferior lobe of the left lung.", "preferredTerm": "Left Lung, Inferior Lobe, Medial Basal Segment"}, {"conceptId": "C132396", "submissionValue": "LUNG, LEFT, INFERIOR LOBE, POSTERIOR BASAL SEGMENT", "definition": "The posterior basal segment of the inferior lobe of the left lung.", "preferredTerm": "Left Lung, Inferior Lobe, Posterior Basal Segment"}, {"conceptId": "C132397", "submissionValue": "LUNG, LEFT, INFERIOR LOBE, SUPERIOR SEGMENT", "definition": "The superior segment of the inferior lobe of the left lung.", "preferredTerm": "Left Lung, Inferior Lobe, Superior Segment"}, {"conceptId": "C132398", "submissionValue": "LUNG, LEFT, SUPERIOR LOBE, ANTERIOR SEGMENT", "definition": "The anterior segment of the superior lobe of the left lung.", "preferredTerm": "Left Lung, Superior Lobe, Anterior Segment"}, {"conceptId": "C132399", "submissionValue": "LUNG, LEFT, SUPERIOR LOBE, APICOPOSTERIOR SEGMENT", "definition": "The apicoposterior segment of the superior lobe of the left lung.", "preferredTerm": "Left Lung, Superior Lobe, Apicoposterior Segment"}, {"conceptId": "C132400", "submissionValue": "LUNG, LEFT, SUPERIOR LOBE, INFERIOR LINGULAR SEGMENT", "definition": "The inferior lingular segment of the superior lobe of the left lung.", "preferredTerm": "Left Lung, Superior Lobe, Inferior Lingular Segment"}, {"conceptId": "C132401", "submissionValue": "LUNG, LEFT, SUPERIOR LOBE, SUPERIOR LINGULAR SEGMENT", "definition": "The superior lingular segment of the superior lobe of the left lung.", "preferredTerm": "Left Lung, Superior Lobe, Superior Lingular Segment"}, {"conceptId": "C33483", "submissionValue": "LUNG, RIGHT", "definition": "The 3-lobed lung located on the right side of the body. (NCI)", "preferredTerm": "Right Lung", "synonyms": ["Right Lung"]}, {"conceptId": "C33022", "submissionValue": "LUNG, RIGHT LOWER LOBE", "definition": "The lobe of the right lung situated below the oblique fissure. (NCI)", "preferredTerm": "Lower Lobe of the Right Lung", "synonyms": ["Lower Lobe of the Right Lung"]}, {"conceptId": "C12286", "submissionValue": "LUNG, RIGHT MIDDLE LOBE", "definition": "The smallest lobe of the right lung, situated above the oblique fissure and below the horizontal fissure. (NCI)", "preferredTerm": "Middle Lobe of the Right Lung", "synonyms": ["Middle Lobe of the Right Lung"]}, {"conceptId": "C33023", "submissionValue": "LUNG, RIGHT UPPER LOBE", "definition": "The lobe of the right lung, situated above the horizontal fissure, which includes the apex. (NCI)", "preferredTerm": "Upper Lobe of the Right Lung", "synonyms": ["Upper Lobe of the Right Lung"]}, {"conceptId": "C132402", "submissionValue": "LUNG, RIGHT, INFERIOR LOBE, ANTERIOR BASAL SEGMENT", "definition": "The anterior basal segment of the inferior lobe of the right lung.", "preferredTerm": "Right Lung, Inferior Lobe, Anterior Basal Segment"}, {"conceptId": "C132403", "submissionValue": "LUNG, RIGHT, INFERIOR LOBE, LATERAL BASAL SEGMENT", "definition": "The lateral basal segment of the inferior lobe of the right lung.", "preferredTerm": "Right Lung, Inferior Lobe, Lateral Basal Segment"}, {"conceptId": "C132404", "submissionValue": "LUNG, RIGHT, INFERIOR LOBE, MEDIAL BASAL SEGMENT", "definition": "The medial basal segment of the inferior lobe of the right lung.", "preferredTerm": "Right Lung, Inferior Lobe, Medial Basal Segment"}, {"conceptId": "C132405", "submissionValue": "LUNG, RIGHT, INFERIOR LOBE, POSTERIOR BASAL SEGMENT", "definition": "The posterior basal segment of the inferior lobe of the right lung.", "preferredTerm": "Right Lung, Inferior Lobe, Posterior Basal Segment"}, {"conceptId": "C132406", "submissionValue": "LUNG, RIGHT, INFERIOR LOBE, SUPERIOR SEGMENT", "definition": "The superior segment of the inferior lobe of the right lung.", "preferredTerm": "Right Lung, Inferior Lobe, Superior Segment"}, {"conceptId": "C132407", "submissionValue": "LUNG, RIGHT, MIDDLE LOBE, LATERAL SEGMENT", "definition": "The lateral segment of the middle lobe of the right lung.", "preferredTerm": "Right Lung, Middle Lobe, Lateral Segment"}, {"conceptId": "C132408", "submissionValue": "LUNG, RIGHT, MIDDLE LOBE, MEDIAL SEGMENT", "definition": "The medial segment of the middle lobe of the right lung.", "preferredTerm": "Right Lung, Middle Lobe, Medial Segment"}, {"conceptId": "C132409", "submissionValue": "LUNG, RIGHT, SUPERIOR LOBE, ANTERIOR SEGMENT", "definition": "The anterior segment of the superior lobe of the right lung.", "preferredTerm": "Right Lung, Superior Lobe, Anterior Segment"}, {"conceptId": "C132410", "submissionValue": "LUNG, RIGHT, SUPERIOR LOBE, APICAL SEGMENT", "definition": "The apical segment of the superior lobe of the right lung.", "preferredTerm": "Right Lung, Superior Lobe, Apical Segment"}, {"conceptId": "C132411", "submissionValue": "LUNG, RIGHT, SUPERIOR LOBE, POSTERIOR SEGMENT", "definition": "The posterior segment of the superior lobe of the right lung.", "preferredTerm": "Right Lung, Superior Lobe, Posterior Segment"}, {"conceptId": "C12745", "submissionValue": "LYMPH NODE", "definition": "Secondary lymphoid organ associated with lymphatic vessels and consisting of an outer cortex, inner medulla and sinuses.", "preferredTerm": "Lymph Node", "synonyms": ["Lymphatic Gland"]}, {"conceptId": "C33031", "submissionValue": "LYMPH NODE HILUM", "definition": "The concave side of the lymph node. (NCI)", "preferredTerm": "Lymph Node Hilum", "synonyms": ["Lymph Node Hilum"]}, {"conceptId": "C32968", "submissionValue": "MAIN BRONCHUS, LEFT", "definition": "One of the two main bronchi. It is narrower but longer than the right main bronchus and connects to the left lung. (NCI)", "preferredTerm": "Left Main Bronchus", "synonyms": ["Left Main Bronchus"]}, {"conceptId": "C33486", "submissionValue": "MAIN BRONCHUS, RIGHT", "definition": "One of the two main bronchi. It is wider but shorter than the left main bronchus and connects to the right lung. (NCI)", "preferredTerm": "Right Main Bronchus", "synonyms": ["Right Main Bronchus"]}, {"conceptId": "C61599", "submissionValue": "MALE GENITALIA", "definition": "Male internal and external organs of reproduction.", "preferredTerm": "Male Genitalia", "synonyms": ["Male Genitalia"]}, {"conceptId": "C12722", "submissionValue": "MALE REPRODUCTIVE SYSTEM", "definition": "The sex organs of the male.", "preferredTerm": "Male Reproductive System"}, {"conceptId": "C33051", "submissionValue": "MALLEUS", "definition": "A hammer-shaped bone, part of three interconnected small bones located in the middle ear. It is attached to the inner surface of the tympanic membrane and its function is to transmit sound vibrations. (NCI)", "preferredTerm": "Malleus", "synonyms": ["Malleus"]}, {"conceptId": "C12367", "submissionValue": "MAMMARY GLAND", "definition": "The exocrine glands of the mammae that produce milk in females, and are composed of lobules, alveolar ducts and alveoli.", "preferredTerm": "Mammary Gland"}, {"conceptId": "C12290", "submissionValue": "MANDIBLE", "definition": "The lower jaw bone holding the lower teeth. (NCI)", "preferredTerm": "Mandible", "synonyms": ["Bone, Mandibular", "Inferior Maxillary Bone", "Lower Jaw", "Mandible"]}, {"conceptId": "C12503", "submissionValue": "MASTOID PROCESS", "definition": "A honeycombed section of bone located near the base of the skull, protruding behind the outer ear. It is connected to the middle ear. (NCI)", "preferredTerm": "Mastoid Process", "synonyms": ["Mastoid Process"]}, {"conceptId": "C26470", "submissionValue": "MAXILLA", "definition": "The upper jaw bone holding the upper teeth.", "preferredTerm": "Maxilla"}, {"conceptId": "C12275", "submissionValue": "MAXILLARY SINUS", "definition": "A pyramidal-shaped, thin-walled, air-filled cavity located in the maxilla. It is lined by mucus membrane and periosteum (mucoperiosteum) which contains cilia. It is adjacent to the nasal cavity and communicates with the middle meatus of the nose. It is the largest paranasal sinus and is composed of three recesses: alveolar, zygomatic, and infraorbital. (NCI)", "preferredTerm": "Maxillary Sinus", "synonyms": ["Maxillary Sinus"]}, {"conceptId": "C139204", "submissionValue": "MEDIAL FEMORAL CONDYLE", "definition": "A rounded, bony projection on the inner side of the distal end of the femur to which the medial collateral and the posterior cruciate ligaments are attached.", "preferredTerm": "Medial Femoral Condyle"}, {"conceptId": "C33070", "submissionValue": "MEDIAN BASILIC VEIN", "definition": "A vein between the biceps and pronator radii teres muscles that unites with the common ulnar vein to form the basilic vein within the forearm.", "preferredTerm": "Median Basilic Vein", "synonyms": ["Median Cubital Vein"]}, {"conceptId": "C103417", "submissionValue": "MEDIAN OR LOWER CERVICAL LYMPH NODE", "definition": "A lymph node located in the median or lower region of the neck. (NCI)", "preferredTerm": "Median Or Lower Cervical Lymph Node"}, {"conceptId": "C33073", "submissionValue": "MEDIASTINAL LYMPH NODE", "definition": "Lymph node(s) in the mediastinal region.", "preferredTerm": "Mediastinal Lymph Node"}, {"conceptId": "C12748", "submissionValue": "MEDIASTINUM", "definition": "The central region of the thoracic cavity of mammals containing a group of organs surrounded by loose connective tissue, which separates the two pleural sacs.", "preferredTerm": "Mediastinum"}, {"conceptId": "C32098", "submissionValue": "MEDIASTINUM, ANTERIOR", "definition": "The area between the lungs; it contains the thymus, some lymph nodes, and vessels and branches of the internal thoracic artery. (NCI)", "preferredTerm": "Anterior Mediastinum", "synonyms": ["Anterior Mediastinum"]}, {"conceptId": "C33123", "submissionValue": "MEDIASTINUM, MIDDLE", "definition": "The broadest part of the lower portion of the mediastinum. It contains the heart and the great vessels. (NCI)", "preferredTerm": "Middle Mediastinum", "synonyms": ["Middle Mediastinum"]}, {"conceptId": "C33368", "submissionValue": "MEDIASTINUM, POSTERIOR", "definition": "The part of the lower portion of the mediastinum that is located behind the pericardium. (NCI)", "preferredTerm": "Posterior Mediastinum", "synonyms": ["Posterior Mediastinum"]}, {"conceptId": "C33684", "submissionValue": "MEDIASTINUM, SUPERIOR", "definition": "The part of the mediastinum that is located between the upper part of the sternum in the front and the upper thoracic vertebrae in the back. (NCI)", "preferredTerm": "Superior Mediastinum", "synonyms": ["Superior Mediastinum"]}, {"conceptId": "C12442", "submissionValue": "MEDULLA OBLONGATA", "definition": "The portion of the brainstem between the pons and cervical spinal cord.", "preferredTerm": "Medulla Oblongata"}, {"conceptId": "C12348", "submissionValue": "MENINGES", "definition": "Any one of three membranes that surround the brain and spinal cord. (NCI)", "preferredTerm": "Meninges"}, {"conceptId": "C52975", "submissionValue": "MESENTERIC ARTERY", "definition": "One of the arteries of the abdomen; in general it arises from the abdominal aorta and supplies blood mainly to the intestines.", "preferredTerm": "Mesenteric Artery"}, {"conceptId": "C77641", "submissionValue": "MESENTERIC LYMPH NODE", "definition": "Lymph node(s) in or adjacent to the mesentery.", "preferredTerm": "Mesenteric Lymph Node"}, {"conceptId": "C53055", "submissionValue": "MESENTERIC VEIN", "definition": "A vein of the abdomen; in general it arises from the intestines and pancreas, combines with the splenic vein, and drains into the portal vein.", "preferredTerm": "Mesenteric Vein"}, {"conceptId": "C33103", "submissionValue": "MESENTERY", "definition": "A double layer of peritoneum that attaches to the wall of the abdominal cavity and supports the small intestines.", "preferredTerm": "Mesentery"}, {"conceptId": "C127667", "submissionValue": "METACARPAL 1 BASE", "definition": "The proximal end of the first metacarpal bone.", "preferredTerm": "Metacarpal 1 Base"}, {"conceptId": "C12751", "submissionValue": "METACARPAL BONE", "definition": "Any of the five bones between the wrist and the fingers that form the skeleton of the palm. (NCI)", "preferredTerm": "Metacarpal Bone"}, {"conceptId": "C52796", "submissionValue": "METACARPAL BONE 1", "definition": "The first of the five long bones located in the palm of the hand, as counted from the thenar side of the hand; it articulates proximally with the trapezium and distally with the thenar phalanx (thumb).", "preferredTerm": "Metacarpal Bone Digit 1"}, {"conceptId": "C52795", "submissionValue": "METACARPAL BONE 2", "definition": "The second of the five long bones located in the palm of the hand, as counted from the thenar side of the hand; it articulates proximally with the trapezoid and distally with the second phalanx (index finger).", "preferredTerm": "Metacarpal Bone Digit 2"}, {"conceptId": "C52794", "submissionValue": "METACARPAL BONE 3", "definition": "The third of the five long bones located in the palm of the hand, as counted from the thenar side of the hand; it articulates proximally with the capitate and the second and fourth metacarpals, and distally with the third phalanx (middle finger).", "preferredTerm": "Metacarpal Bone Digit 3"}, {"conceptId": "C52793", "submissionValue": "METACARPAL BONE 4", "definition": "The fourth of the five long bones located in the palm of the hand, as counted from the thenar side of the hand; it articulates proximally with the capitate, hamate, and third and fifth metacarpal bones, and distally with the fourth phalanx (ring finger).", "preferredTerm": "Metacarpal Bone Digit 4"}, {"conceptId": "C52792", "submissionValue": "METACARPAL BONE 5", "definition": "The fifth of the five long bones located in the palm of the hand, as counted from the thenar side of the hand; it articulates proximally with the hamate and fourth metacarpal, and distally with the fifth phalanx (small finger).", "preferredTerm": "Metacarpal Bone Digit 5"}, {"conceptId": "C102316", "submissionValue": "METACARPOPHALANGEAL JOINT 1", "definition": "A condyloid synovial joint within the first digit of the hand articulating the metacarpal to the proximal phalanx.", "preferredTerm": "Metacarpophalangeal Joint 1", "synonyms": ["MCP1"]}, {"conceptId": "C102317", "submissionValue": "METACARPOPHALANGEAL JOINT 2", "definition": "A condyloid synovial joint within the second digit of the hand articulating the metacarpal to the proximal phalanx.", "preferredTerm": "Metacarpophalangeal Joint 2", "synonyms": ["MCP2"]}, {"conceptId": "C102318", "submissionValue": "METACARPOPHALANGEAL JOINT 3", "definition": "A condyloid synovial joint within the third digit of the hand articulating the metacarpal to the proximal phalanx.", "preferredTerm": "Metacarpophalangeal Joint 3", "synonyms": ["MCP3"]}, {"conceptId": "C102319", "submissionValue": "METACARPOPHALANGEAL JOINT 4", "definition": "A condyloid synovial joint within the fourth digit of the hand articulating the metacarpal to the proximal phalanx.", "preferredTerm": "Metacarpophalangeal Joint 4", "synonyms": ["MCP4"]}, {"conceptId": "C102320", "submissionValue": "METACARPOPHALANGEAL JOINT 5", "definition": "A condyloid synovial joint within the fifth digit of the hand articulating the metacarpal to the proximal phalanx.", "preferredTerm": "Metacarpophalangeal Joint 5", "synonyms": ["MCP5"]}, {"conceptId": "C12752", "submissionValue": "METATARSAL BONE", "definition": "A bone belonging to the middle part of the foot located between toes and ankle. There are 5 metatarsal bones and they are numbered from the medial side. (NCI)", "preferredTerm": "Metatarsal Bone", "synonyms": ["Metatarsal Bone"]}, {"conceptId": "C33108", "submissionValue": "METATARSOPHALANGEAL JOINT", "definition": "A spheroid joint located between the heads of the metatarsal bone and the base of the proximal phalanx of the toe. (NCI)", "preferredTerm": "Metatarsophalangeal Joint", "synonyms": ["Metatarsophalangeal Joint"]}, {"conceptId": "C102321", "submissionValue": "METATARSOPHALANGEAL JOINT 1", "definition": "A condyloid synovial joint within the first digit of the foot articulating metatarsal with the proximal phalanx.", "preferredTerm": "Metatarsophalangeal Joint 1", "synonyms": ["MTP1"]}, {"conceptId": "C102322", "submissionValue": "METATARSOPHALANGEAL JOINT 2", "definition": "A condyloid synovial joint within the second digit of the foot articulating metatarsal with the proximal phalanx.", "preferredTerm": "Metatarsophalangeal Joint 2", "synonyms": ["MTP2"]}, {"conceptId": "C102323", "submissionValue": "METATARSOPHALANGEAL JOINT 3", "definition": "A condyloid synovial joint within the third digit of the foot articulating metatarsal with the proximal phalanx.", "preferredTerm": "Metatarsophalangeal Joint 3", "synonyms": ["MTP3"]}, {"conceptId": "C102324", "submissionValue": "METATARSOPHALANGEAL JOINT 4", "definition": "A condyloid synovial joint within the fourth digit of the foot articulating metatarsal with the proximal phalanx.", "preferredTerm": "Metatarsophalangeal Joint 4", "synonyms": ["MTP4"]}, {"conceptId": "C102325", "submissionValue": "METATARSOPHALANGEAL JOINT 5", "definition": "A condyloid synovial joint within the fifth digit of the foot articulating metatarsal with the proximal phalanx.", "preferredTerm": "Metatarsophalangeal Joint 5", "synonyms": ["MTP5"]}, {"conceptId": "C102326", "submissionValue": "MID-CIRCUMFLEX ARTERY", "definition": "The segment of the left circumflex artery between the first and second marginal branches.", "preferredTerm": "Mid-Circumflex Artery", "synonyms": ["MCIRC", "MID-CIRCUMFLEX ARTERY SEGMENT"]}, {"conceptId": "C132511", "submissionValue": "MID-JUGULAR LYMPH NODE", "definition": "Any lymph nodes located within close proximity to the middle third of the internal jugular vein, extending from the inferior border of the hyoid bone (superiorly) to the inferior border of the cricoid cartilage (inferiorly). The anterior (medial) boundary is the lateral border of the sternohyoid muscle, and the posterior (lateral) boundary is the posterior border of the sternocleidomastoid muscle. (AJCC 8th ed.)", "preferredTerm": "Middle Jugular Lymph Node Group (Level III)"}, {"conceptId": "C102328", "submissionValue": "MID-LAD ARTERY", "definition": "The segment of the left anterior descending (LAD) artery between the first and third diagonal branches.", "preferredTerm": "Mid-Left Anterior Descending Artery", "synonyms": ["MID-LAD ARTERY SEGMENT", "MLAD"]}, {"conceptId": "C102329", "submissionValue": "MID-RIGHT CORONARY ARTERY CONDUIT", "definition": "The section of the right coronary artery between the right ventricular artery and the acute marginal artery.", "preferredTerm": "Mid-Right Coronary Artery Conduit", "synonyms": ["MID-RIGHT CORONARY ARTERY CONDUIT SEGMENT", "MRCA", "Mid-right Coronary Artery"]}, {"conceptId": "C102327", "submissionValue": "MID/DISTAL LEFT ANTERIOR DESCENDING CORONARY ARTERY AND ALL DIAGONAL CORONARY BRANCHES", "definition": "All of the arterial branches distal to the proximal left anterior descending coronary artery.", "preferredTerm": "Mid-Distal Left Anterior Descending Coronary Artery and All Diagonal Coronary Branches"}, {"conceptId": "C12510", "submissionValue": "MIDBRAIN", "definition": "The portion of the brainstem between the pons and diencephalon.", "preferredTerm": "Mesencephalon", "synonyms": ["Mesencephalon"]}, {"conceptId": "C12274", "submissionValue": "MIDDLE EAR", "definition": "The part of the ear including the eardrum and ossicles.", "preferredTerm": "Middle Ear"}, {"conceptId": "C142297", "submissionValue": "MIDDLE PHALANX 2 OF THE HAND", "definition": "The long bone in the second finger, as counted from the thenar side of the hand; it is located between, and articulates with, the proximal and distal phalanges.", "preferredTerm": "Hand Digit 2 Middle Phalanx"}, {"conceptId": "C142298", "submissionValue": "MIDDLE PHALANX 3 OF THE HAND", "definition": "The long bone in the third finger, as counted from the thenar side of the hand; it is located between, and articulates with, the proximal and distal phalanges.", "preferredTerm": "Hand Digit 3 Middle Phalanx"}, {"conceptId": "C142299", "submissionValue": "MIDDLE PHALANX 4 OF THE HAND", "definition": "The long bone in the fourth finger, as counted from the thenar side of the hand; it is located between, and articulates with, the proximal and distal phalanges.", "preferredTerm": "Hand Digit 4 Middle Phalanx"}, {"conceptId": "C142300", "submissionValue": "MIDDLE PHALANX 5 OF THE HAND", "definition": "The long bone in the fifth finger, as counted from the thenar side of the hand; it is located between, and articulates with, the proximal and distal phalanges.", "preferredTerm": "Hand Digit 5 Middle Phalanx"}, {"conceptId": "C12753", "submissionValue": "MITRAL VALVE", "definition": "A cardiac valve located between the left atrium and ventricle.", "preferredTerm": "Mitral Valve", "synonyms": ["Mitral Valve"]}, {"conceptId": "C127306", "submissionValue": "MITRAL VALVE ANNULUS", "definition": "A fibrous membrane that attaches to, and provides support for, the mitral valve leaflets.", "preferredTerm": "Mitral Valve Annulus"}, {"conceptId": "C127668", "submissionValue": "MITRAL VALVE, ANTERIOR ANNULUS", "definition": "The portion of the mitral valve annulus that attaches to the anterior mitral valve leaflet.", "preferredTerm": "Anterior Annulus of the Mitral Valve", "synonyms": ["Mitral Valve, Anteroseptal Annulus"]}, {"conceptId": "C127669", "submissionValue": "MITRAL VALVE, ANTERIOR CUSP", "definition": "The cusp of the mitral valve that is anchored to the aortic-mitral curtain.", "preferredTerm": "Anterior Cusp of the Mitral Valve"}, {"conceptId": "C127670", "submissionValue": "MITRAL VALVE, POSTERIOR ANNULUS", "definition": "The portion of the mitral valve annulus that attaches to the posterior mitral valve leaflet.", "preferredTerm": "Posterior Annulus of the Mitral Valve", "synonyms": ["Mitral Valve, Posterolateral Annulus"]}, {"conceptId": "C127671", "submissionValue": "MITRAL VALVE, POSTERIOR CUSP", "definition": "The cusp of the mitral valve that is located posterior to the two commissures, and which has no attachment to the aortic root.", "preferredTerm": "Posterior Cusp of the Mitral Valve"}, {"conceptId": "C97339", "submissionValue": "MOTOR CORTEX", "definition": "A brain region that is located in the dorsal part of the precentral gyrus. (NCI)", "preferredTerm": "Primary Motor Cortex"}, {"conceptId": "C13166", "submissionValue": "MUCOSA", "definition": "The moist, inner lining of some organs and body cavities (such as the nose, mouth, lungs, and stomach). Glands in the mucosa make mucus (a thick, slippery fluid).", "preferredTerm": "Mucosa", "synonyms": ["Mucosa", "Mucous Membrane"]}, {"conceptId": "C12226", "submissionValue": "MUCOSA OF THE LIP", "definition": "The lining of the fleshy folds surrounding the mouth. It is comprised of the epithelium, basement membrane, lamina propria mucosae, and lamina muscularis mucosae. (NCI)", "preferredTerm": "Mucosa of the Lip"}, {"conceptId": "C13056", "submissionValue": "MUSCLE", "definition": "A fibrous soft tissue with the ability to contract to produce force and motion.", "preferredTerm": "Muscle"}, {"conceptId": "C12754", "submissionValue": "MUSCULOSKELETAL SYSTEM", "definition": "The system of muscles, tendons, ligaments, bones, joints and associated tissues.", "preferredTerm": "Musculoskeletal System"}, {"conceptId": "C12314", "submissionValue": "MYOMETRIUM", "definition": "The smooth muscle lining the uterus. (NCI)", "preferredTerm": "Myometrium", "synonyms": ["Myometrium"]}, {"conceptId": "C33156", "submissionValue": "NAIL", "definition": "The cutaneous plate on the dorsal surface of the distal end of a finger or toe. (NCI)", "preferredTerm": "Nail", "synonyms": ["Nail"]}, {"conceptId": "C33157", "submissionValue": "NASAL BONE", "definition": "One of two small oblong bones placed side by side at the middle and upper part of the face. (NCI)", "preferredTerm": "Nasal Bone", "synonyms": ["Nasal Bone"]}, {"conceptId": "C12424", "submissionValue": "NASAL CAVITY", "definition": "The upper respiratory tract extending from the nares to the pharynx.", "preferredTerm": "Nasal Cavity"}, {"conceptId": "C33160", "submissionValue": "NASAL SEPTUM", "definition": "The thin wall between the two nasal cavities. (NCI)", "preferredTerm": "Nasal Septum", "synonyms": ["Nasal Septum"]}, {"conceptId": "C12423", "submissionValue": "NASOPHARYNX", "definition": "The part of the pharynx above the soft palate, which is continuous with the nasal cavity and extends to the oropharynx.", "preferredTerm": "Nasopharynx"}, {"conceptId": "C33162", "submissionValue": "NAVICULAR BONE", "definition": "An oval-shaped bone of the tarsus found on the medial side of the foot. (NCI)", "preferredTerm": "Navicular Bone", "synonyms": ["Navicular Bone"]}, {"conceptId": "C13063", "submissionValue": "NECK", "definition": "The region that connects the head to the rest of the body. (NCI)", "preferredTerm": "Neck", "synonyms": ["Neck"]}, {"conceptId": "C12466", "submissionValue": "NERVE", "definition": "A bundle of neuronal fibers that transmits electrochemical impulses encoding sensory and motor information from one body part to another.", "preferredTerm": "Nerve"}, {"conceptId": "C12299", "submissionValue": "NIPPLE", "definition": "The protuberance in the skin where the ducts of the mammary gland open.", "preferredTerm": "Nipple"}, {"conceptId": "C12756", "submissionValue": "NOSE", "definition": "A structure of special sense serving as an organ of the sense of smell and as an entrance to the respiratory tract. (NCI)", "preferredTerm": "Nose", "synonyms": ["Nose"]}, {"conceptId": "C33178", "submissionValue": "NOSTRIL", "definition": "One of the two channels of the nose, from the point where they divide to the external opening. (NCI)", "preferredTerm": "Nostril", "synonyms": ["Nostril"]}, {"conceptId": "C142301", "submissionValue": "NUCHAL LYMPH NODE", "definition": "Any lymph node located in the posterior of the neck, including the postauricular, superficial occipital, middle posterior cervical chain, and lower posterior cervical chain.", "preferredTerm": "Nuchal Lymph Node"}, {"conceptId": "C52733", "submissionValue": "NUCLEUS ACCUMBENS", "definition": "A nucleus comprising neurons in the forebrain, ventral to the dorsal caudate and putamen.", "preferredTerm": "Accumbens Nucleus"}, {"conceptId": "C97342", "submissionValue": "NUCLEUS OF DIAGONAL BAND", "definition": "A brain structure that is part of the septal nuclear complex. It is connected with the hippocampus, hypothalamus and amygdala.", "preferredTerm": "Nucleus of Diagonal Band", "synonyms": ["BASAL NUCLEUS/DIAGONAL BAND"]}, {"conceptId": "C33191", "submissionValue": "OBTURATOR EXTERNUS MUSCLE", "definition": "A muscle of the pelvis that originates on the obturator foramen and obturatory membrane and inserts on the trochanteric fossa of the femur.", "preferredTerm": "Obturator Externus Muscle"}, {"conceptId": "C33192", "submissionValue": "OBTURATOR INTERNUS MUSCLE", "definition": "A muscle of the pelvis that originates on the ischiopubic ramus and obturator membrane and inserts on the greater trochanter.", "preferredTerm": "Obturator Internus Muscle"}, {"conceptId": "C33193", "submissionValue": "OBTURATOR MUSCLE", "definition": "One of two muscles located in the pelvis: the obturator externus muscle or the obturator internus muscle. (NCI)", "preferredTerm": "Obturator Muscle"}, {"conceptId": "C12355", "submissionValue": "OCCIPITAL LOBE", "definition": "One of the four regions of cortex in each cerebral hemisphere, located posterior to the temporal lobe and inferior to the parietal lobe.", "preferredTerm": "Occipital Lobe"}, {"conceptId": "C98188", "submissionValue": "OCCIPITAL LYMPH NODE", "definition": "A lymph node located in the back of the head adjacent to the trapezius muscle.", "preferredTerm": "Occipital Lymph Node"}, {"conceptId": "C103456", "submissionValue": "OCCIPITAL SCALP", "definition": "The occipital region of the skin that covers the top of the head. (NCI)", "preferredTerm": "Occipital Scalp"}, {"conceptId": "C12758", "submissionValue": "OCULOMOTOR NERVE", "definition": "The third cranial nerve.", "preferredTerm": "Oculomotor Nerve"}, {"conceptId": "C33200", "submissionValue": "OLECRANON", "definition": "A prominence at the proximal end of the ulna. It forms the tip of the elbow. (NCI)", "preferredTerm": "Olecranon", "synonyms": ["Olecranon"]}, {"conceptId": "C28401", "submissionValue": "OLFACTORY BULB", "definition": "The portion of the vertebrate forebrain that lies behind the ethmoid bones; it begins the rhinencephalon.", "preferredTerm": "Olfactory Bulb"}, {"conceptId": "C33205", "submissionValue": "OLFACTORY MUCOSA", "definition": "The mucosal membranes that line the nasal cavity.", "preferredTerm": "Olfactory Mucosa"}, {"conceptId": "C12759", "submissionValue": "OLFACTORY NERVE", "definition": "The first cranial nerve.", "preferredTerm": "Olfactory Nerve"}, {"conceptId": "C33209", "submissionValue": "OMENTUM", "definition": "A double layer of peritoneum covering abdominal organs.", "preferredTerm": "Omentum"}, {"conceptId": "C33216", "submissionValue": "OPHTHALMIC ARTERY", "definition": "An artery arising from the internal carotid artery that branches into two groups of vessels; the orbital group that supplies the orbit and surrounding parts and the ocular group that supplies the globe and muscles of the eye.", "preferredTerm": "Ophthalmic Artery"}, {"conceptId": "C150853", "submissionValue": "OPPONENS POLLICIS MUSCLE", "definition": "A muscle of the arm, in general extending from the distal border of the flexor retinaculum and the tubercles of the scaphoid and trapezium, to the lateral aspect of the first metacarpal; primary function is rotation and flexion of the thumb.", "preferredTerm": "Opponens Pollicis Muscle"}, {"conceptId": "C12760", "submissionValue": "OPTIC DISC", "definition": "The portion of the retina at which the axons of the ganglion cells exit the eyeball to form the optic nerve.", "preferredTerm": "Optic Disc", "synonyms": ["Optic Nerve Head"]}, {"conceptId": "C12761", "submissionValue": "OPTIC NERVE", "definition": "A cranial nerve extending between the retina and optic chiasma, which innervates the eye.", "preferredTerm": "Optic Nerve", "synonyms": ["Second Cranial Nerve"]}, {"conceptId": "C12421", "submissionValue": "ORAL CAVITY", "definition": "The cavity of the mouth.", "preferredTerm": "Oral Cavity", "synonyms": ["Buccal cavity", "Mouth"]}, {"conceptId": "C77637", "submissionValue": "ORAL MUCOSA", "definition": "The mucosal membranes that line the oral cavity.", "preferredTerm": "Oral Mucosa"}, {"conceptId": "C52886", "submissionValue": "ORBICULARIS OCULI MUSCLE", "definition": "A ring-like band of skeletal muscle on the palpebrae, temple, cheeks, and surrounding the orbit, which originates on the frontal bone, medial palpebral ligament, and lacrimal bone, and which inserts into the lateral palpebral raphe.", "preferredTerm": "Orbicularis Oculi Muscle"}, {"conceptId": "C12347", "submissionValue": "ORBIT", "definition": "The bony cavity that contains the eye and its associated structures.", "preferredTerm": "Orbit", "synonyms": ["Eye Socket", "Ocular Orbit", "Orbit"]}, {"conceptId": "C12762", "submissionValue": "OROPHARYNX", "definition": "The part of the pharynx between the soft palate and the upper portion of the epiglottis. (NCI)", "preferredTerm": "Oropharynx"}, {"conceptId": "C33244", "submissionValue": "OVARIAN FOLLICLE", "definition": "A spherical aggregation of cells found in the ovaries that contains a single oocyte. (NCI)", "preferredTerm": "Ovarian Follicle"}, {"conceptId": "C12404", "submissionValue": "OVARY", "definition": "The female gonad.", "preferredTerm": "Ovary"}, {"conceptId": "C12229", "submissionValue": "PALATE", "definition": "The roof of the oral cavity. It separates the oral cavity from the nasal cavity.", "preferredTerm": "Palate"}, {"conceptId": "C52745", "submissionValue": "PALATINE BONE", "definition": "An irregularly shaped bone positioned at the back part of the nasal cavity between the maxilla and the pterygoid process of the sphenoid. It forms the posterior part of the hard palate and the lateral wall of the nasal fossa and helps to form the floor of the orbit as well as several adjoining parts. (NCI)", "preferredTerm": "Palatine Bone", "synonyms": ["Palatine Bone"]}, {"conceptId": "C33252", "submissionValue": "PALM", "definition": "The undersurface of the hand. (NCI)", "preferredTerm": "Palmar Region"}, {"conceptId": "C12901", "submissionValue": "PALPEBRAL CONJUNCTIVA", "definition": "The part of the conjunctiva that covers the inner surface of the eyelid.", "preferredTerm": "Palpebral Conjunctiva"}, {"conceptId": "C12393", "submissionValue": "PANCREAS", "definition": "A digestive organ in the abdomen that has both endocrine and exocrine functions.", "preferredTerm": "Pancreas"}, {"conceptId": "C12270", "submissionValue": "PANCREAS, BODY", "definition": "The part of the pancreas from the point where it crosses the portal vein to the point where it enters the lienorenal ligament. (NCI)", "preferredTerm": "Body of the Pancreas", "synonyms": ["Body of the Pancreas"]}, {"conceptId": "C12608", "submissionValue": "PANCREAS, ENDOCRINE", "definition": "The pancreatic tissue that contains the islets of Langerhans. It is responsible for the production and secretions of the pancreatic hormones. (NCI)", "preferredTerm": "Islet of Langerhans", "synonyms": ["Endocrine Pancreas"]}, {"conceptId": "C32546", "submissionValue": "PANCREAS, EXOCRINE", "definition": "An enzyme producing region of the pancreatic tissue containing the pancreatic acini and exocrine intralobular ducts which collectively secrete the digestive enzymes into the main pancreatic duct to drain into the duodenal part of the small intestine. (NCI)", "preferredTerm": "Exocrine Pancreas", "synonyms": ["Exocrine Pancreas"]}, {"conceptId": "C12269", "submissionValue": "PANCREAS, HEAD", "definition": "That portion of the pancreas lying in the concavity of the duodenum. (NCI)", "preferredTerm": "Head of the Pancreas", "synonyms": ["Head of the Pancreas"]}, {"conceptId": "C12271", "submissionValue": "PANCREAS, TAIL", "definition": "The left extremity of the pancreas within the lienorenal ligament. (NCI)", "preferredTerm": "Tail of the Pancreas", "synonyms": ["Tail of the Pancreas"]}, {"conceptId": "C12272", "submissionValue": "PANCREATIC DUCT", "definition": "A duct that conveys pancreatic secretions from the pancreas to the duodenum.", "preferredTerm": "Pancreatic Duct"}, {"conceptId": "C77643", "submissionValue": "PARA-AORTIC LYMPH NODE", "definition": "Lymph node(s) adjacent to the lumbar vertebral column.", "preferredTerm": "Paraaortic Lymph Node", "synonyms": ["Lymph Node, Para-Aortic"]}, {"conceptId": "C117869", "submissionValue": "PARACAVAL LYMPH NODE", "definition": "A lymph node located adjacent to the lumbar region of the spine, along the right lateral aspect of the inferior vena cava. (NCI)", "preferredTerm": "Paracaval Lymph Node"}, {"conceptId": "C89787", "submissionValue": "PARACOLIC GUTTER", "definition": "Naturally occurring spaces between the colon and the abdominal wall, lateral to the ascending and descending colons.", "preferredTerm": "Paracolic Gutter"}, {"conceptId": "C147453", "submissionValue": "PARALARYNGEAL LYMPH NODE", "definition": "A lymph node located adjacent to the larynx, in the parapharyngeal space.", "preferredTerm": "Paralaryngeal Lymph Node"}, {"conceptId": "C12320", "submissionValue": "PARAMETRIUM", "definition": "The subserous connective tissue of the pelvic floor of the supracervical portion of the uterus. The parametrium extends laterally between the layers of the broad ligament. (NCI)", "preferredTerm": "Parametrium", "synonyms": ["Parametrium"]}, {"conceptId": "C12763", "submissionValue": "PARANASAL SINUS", "definition": "The air-filled cavities adjacent to the nasal cavity lined by a mucous membrane and located in the bones of the skull.", "preferredTerm": "Paranasal Sinus"}, {"conceptId": "C142302", "submissionValue": "PARAPHARYNGEAL LYMPH NODE", "definition": "Any lymph node located in the potential space of the neck, which is bounded superiorly by the base of the skull, inferiorly by the greater cornu of the hyoid bone, anteriorly by the investing fascia of the deep cervical fascia covering the medial pterygoid muscle, posteriorly by the prevertebral layer of the deep cervical fascia, medially by the middle (pretracheal) layer of the deep cervical fascia, and laterally by the investing fascia of the deep cervical fascia covering the deep lobe of the parotid.", "preferredTerm": "Parapharyngeal Lymph Node"}, {"conceptId": "C52557", "submissionValue": "PARASYMPATHETIC GANGLIA", "definition": "A usually small autonomic ganglion of the parasympathetic nervous system. The majority are located near or in the organs that they innervate. (NCI)", "preferredTerm": "Parasympathetic Ganglion"}, {"conceptId": "C12765", "submissionValue": "PARATHYROID GLAND", "definition": "Endocrine gland, usually in close proximity to the thyroid gland, that produces parathyroid hormone.", "preferredTerm": "Parathyroid Gland"}, {"conceptId": "C103426", "submissionValue": "PARATRACHEAL LYMPH NODE", "definition": "A lymph node located adjacent to the trachea within the mediastinum. (NCI)", "preferredTerm": "Paratracheal Lymph Node"}, {"conceptId": "C97925", "submissionValue": "PARAVERTEBRAL GANGLIA", "definition": "A cluster of neuronal cell bodies and their dendrites located just ventral and lateral to the spinal cord that give rise to the sympathetic nervous system.", "preferredTerm": "Para-Spinal Ganglion"}, {"conceptId": "C12354", "submissionValue": "PARIETAL LOBE", "definition": "One of the lobes of the cerebral hemisphere located superiorly to the occipital lobe and posteriorly to the frontal lobe. Cognition and visuospatial processing are its main function. (NCI)", "preferredTerm": "Parietal Lobe", "synonyms": ["Parietal Lobe"]}, {"conceptId": "C12427", "submissionValue": "PAROTID GLAND", "definition": "The salivary gland located adjacent to the ear.", "preferredTerm": "Parotid Gland"}, {"conceptId": "C33278", "submissionValue": "PAROTID GLAND LYMPH NODE", "definition": "Lymph node(s) in or adjacent to the parotid gland.", "preferredTerm": "Parotid Gland Lymph Node", "synonyms": ["Parotid Gland Lymph Node"]}, {"conceptId": "C97341", "submissionValue": "PARS COMPACTA", "definition": "A part of the substantia nigra. The pars compacta nerve cells contain melanin and are involved in motor control. (NCI)", "preferredTerm": "Pars Compacta"}, {"conceptId": "C33282", "submissionValue": "PATELLA", "definition": "A small bone in front of the femorotibial joint that articulates with the femur.", "preferredTerm": "Patella"}, {"conceptId": "C33284", "submissionValue": "PECTORALIS MAJOR MUSCLE", "definition": "Either of two large muscles of the anterior chest wall, which has two heads: the clavicular head, which originates on the medial half of the clavicle, and the sternal head, which originates on the sternum and the first six costal cartilages; the muscles insert onto the lateral lip of the intertubercular groove of the humerus and the crest of the greater tubercle of the humerus respectively; primary function is flexion, adduction, and medial rotation of the shoulder joint.", "preferredTerm": "Pectoralis Major"}, {"conceptId": "C33287", "submissionValue": "PELVIC BONE", "definition": "The bony structure composed of the ilium, ishium, pubis and sacrum, which are typically fused during maturation.", "preferredTerm": "Pelvic Bone", "synonyms": ["Pelvic Bone"]}, {"conceptId": "C12363", "submissionValue": "PELVIC LYMPH NODE", "definition": "Any lymph node within the pelvic region. (NCI)", "preferredTerm": "Pelvic Lymph Node", "synonyms": ["Pelvic Lymph Node"]}, {"conceptId": "C12767", "submissionValue": "PELVIS", "definition": "The bony, basin-shaped structure formed by the bones of the pelvis.", "preferredTerm": "Pelvis", "synonyms": ["Pelvic Region", "Pelvis"]}, {"conceptId": "C12409", "submissionValue": "PENIS", "definition": "The male organ of urination and copulation. (NCI)", "preferredTerm": "Penis"}, {"conceptId": "C12325", "submissionValue": "PENIS, BODY", "definition": "The portion of the penis between the glans penis and the radix penis.", "preferredTerm": "Body of the Penis"}, {"conceptId": "C12324", "submissionValue": "PENIS, GLANS", "definition": "The most distal portion of the penis covered by the foreskin.", "preferredTerm": "Glans Penis"}, {"conceptId": "C124350", "submissionValue": "PENIS, RADIX", "definition": "The portion of the penis between the descending portion of the pubic bone and the body of the penis.", "preferredTerm": "Radix Penis"}, {"conceptId": "C99148", "submissionValue": "PERIANAL REGION", "definition": "The skin area around the anus. (NCI)", "preferredTerm": "Perianal Region"}, {"conceptId": "C38662", "submissionValue": "PERICARDIAL CAVITY", "definition": "The body space between the epicardium and the pericardium.", "preferredTerm": "Pericardial Cavity"}, {"conceptId": "C117870", "submissionValue": "PERICARDIAL LYMPH NODE", "definition": "A lymph node located anterior to the pericardium, posterior to the xiphoid process, and in the right and left cardiophrenic fat. (NCI)", "preferredTerm": "Pericardial Lymph Node"}, {"conceptId": "C127672", "submissionValue": "PERICARDIAL WALL", "definition": "The tissue layers that form the pericardium of the heart, including the fibrous pericardium, and the parietal and visceral layers of the serous pericardium.", "preferredTerm": "Pericardial Wall"}, {"conceptId": "C13005", "submissionValue": "PERICARDIUM", "definition": "The membrane surrounding the heart and roots of the vessels at the base of the heart.", "preferredTerm": "Pericardium"}, {"conceptId": "C102330", "submissionValue": "PERIHILAR LYMPH NODE", "definition": "A lymph node located in the area around the hilum.", "preferredTerm": "Perihilar Lymph Node"}, {"conceptId": "C33301", "submissionValue": "PERINEUM", "definition": "The area located between the anus and vulva in females, and anus and scrotum in males. (NCI)", "preferredTerm": "Perineum", "synonyms": ["Perineum"]}, {"conceptId": "C77642", "submissionValue": "PERIPANCREATIC LYMPH NODE", "definition": "Lymph node(s) in or adjacent to the pancreas.", "preferredTerm": "Pancreatic Lymph Node"}, {"conceptId": "C12768", "submissionValue": "PERIPHERAL NERVE", "definition": "Any nerve outside the brain or spinal cord that connects with peripheral receptors or effectors. (NCI)", "preferredTerm": "Peripheral Nerve"}, {"conceptId": "C154774", "submissionValue": "PERIRECTAL LYMPH NODE", "definition": "Lymph node(s) located in the connective tissue adjacent to the rectum.", "preferredTerm": "Perirectal Lymph Node"}, {"conceptId": "C12769", "submissionValue": "PERITONEAL CAVITY", "definition": "A part of the abdominal cavity that lies between the visceral and parietal peritoneum.", "preferredTerm": "Peritoneal Cavity"}, {"conceptId": "C12770", "submissionValue": "PERITONEUM", "definition": "The membrane that lines the abdominal and pelvic cavities.", "preferredTerm": "Peritoneum"}, {"conceptId": "C139205", "submissionValue": "PERIUMBILICAL REGION", "definition": "The region of the body that immediately surrounds the umbilicus.", "preferredTerm": "Periumbilical Region"}, {"conceptId": "C132412", "submissionValue": "PERIURETERAL REGION", "definition": "The tissue surrounding the ureter.", "preferredTerm": "Periureteral Region"}, {"conceptId": "C111287", "submissionValue": "PERIURETHRAL REGION", "definition": "The tissue surrounding the urethra.", "preferredTerm": "Periurethral Region"}, {"conceptId": "C33314", "submissionValue": "PERONEAL ARTERY", "definition": "An artery arising from the posterior tibial artery that supplies the muscles on the lateral side of the lower leg.", "preferredTerm": "Peroneal Artery"}, {"conceptId": "C33318", "submissionValue": "PHARYNGEAL TONSIL", "definition": "A tonsil in the mucosa of the nasopharynx.", "preferredTerm": "Pharyngeal Tonsil", "synonyms": ["Adenoid"]}, {"conceptId": "C12425", "submissionValue": "PHARYNX", "definition": "A passageway in the head and neck that includes the nasopharynx, oropharynx and laryngopharynx.", "preferredTerm": "Pharynx"}, {"conceptId": "C12398", "submissionValue": "PINEAL GLAND", "definition": "A small endocrine gland that arises from the central posterior aspect of the diencephalon.", "preferredTerm": "Pineal Gland", "synonyms": ["Pineal Body"]}, {"conceptId": "C12855", "submissionValue": "PISIFORM BONE", "definition": "The medial bone of the proximal row of carpal bones. (NCI)", "preferredTerm": "Pisiform Bone", "synonyms": ["Pisiform Bone"]}, {"conceptId": "C12399", "submissionValue": "PITUITARY GLAND", "definition": "A small endocrine gland extending from the hypothalamus at the base of the brain.", "preferredTerm": "Pituitary Gland", "synonyms": ["Hypophysis", "Hypophysis Cerebri"]}, {"conceptId": "C13272", "submissionValue": "PLACENTA", "definition": "An organ present in true mammals during embryonic developmen that provides the fetus with nutrients and oxygen, facilitates gas and waste exchange between the fetus and mother.", "preferredTerm": "Placenta"}, {"conceptId": "C12469", "submissionValue": "PLEURA", "definition": "The serous membrane that lines the wall of the thoracic cavity and the surface of the lungs.", "preferredTerm": "Pleura"}, {"conceptId": "C12840", "submissionValue": "PLEURAL CAVITY", "definition": "A part of the thoracic cavity that lies between the visceral and parietal pleura.", "preferredTerm": "Pleural Cavity"}, {"conceptId": "C12511", "submissionValue": "PONS VAROLII", "definition": "The portion of the brainstem between the midbrain and medulla oblongata.", "preferredTerm": "Pons Varolii", "synonyms": ["Pons Varolii"]}, {"conceptId": "C116180", "submissionValue": "POPLITEAL ARTERY ABOVE KNEE", "definition": "The segment of the popliteal artery that is located above the knee.", "preferredTerm": "Popliteal Artery Above the Knee"}, {"conceptId": "C116181", "submissionValue": "POPLITEAL ARTERY BELOW KNEE", "definition": "The segment of the popliteal artery that is located below the knee.", "preferredTerm": "Popliteal Artery Below the Knee"}, {"conceptId": "C53146", "submissionValue": "POPLITEAL LYMPH NODE", "definition": "Lymph node(s) adjacent to the femorotibial joint.", "preferredTerm": "Popliteal Lymph Node"}, {"conceptId": "C33339", "submissionValue": "POPLITEAL VEIN", "definition": "A vein originating from the anterior and posterior tibial veins that ascends the popliteal space to drain blood from the calf, knee joint, and thigh. The popliteal vein ultimately becomes the femoral vein.", "preferredTerm": "Popliteal Vein"}, {"conceptId": "C117871", "submissionValue": "PORTA HEPATIS LYMPH NODE", "definition": "A lymph node located in the transverse fissure of the liver. (NCI)", "preferredTerm": "Porta Hepatis Lymph Node"}, {"conceptId": "C117872", "submissionValue": "PORTACAVAL LYMPH NODE", "definition": "A lymph node located in the space between the portal vein and inferior vena cava, along the hepatoduodenal ligament. (NCI)", "preferredTerm": "Portacaval Lymph Node", "synonyms": ["Portocaval Lymph Node"]}, {"conceptId": "C77645", "submissionValue": "PORTAL LYMPH NODE", "definition": "Lymph node(s) adjacent to the portal vein.", "preferredTerm": "Portal Lymph Node", "synonyms": ["Periportal Lymph Node"]}, {"conceptId": "C33343", "submissionValue": "PORTAL VEIN", "definition": "A vein lying in the lower part of the abdomen; in general it arises from the junction of the mesenteric and splenic veins and draining into the liver.", "preferredTerm": "Portal Vein", "synonyms": ["Hepatic Portal Vein"]}, {"conceptId": "C132413", "submissionValue": "PORTAL VEIN BIFURCATION", "definition": "The portion of the distal end of the main portal vein that branches into the left and right portal veins.", "preferredTerm": "Portal Vein Bifurcation"}, {"conceptId": "C103428", "submissionValue": "POSTERIOR CERVICAL LYMPH NODE", "definition": "A lymph node located in the posterior region of the neck. (NCI)", "preferredTerm": "Posterior Cervical Lymph Node"}, {"conceptId": "C154778", "submissionValue": "POSTERIOR CINGULATE CORTEX", "definition": "The caudal region of the cingulate cortex, located within the medial part of the inferior parietal lobule, that is thought to function as an interface between emotion and cognition.", "preferredTerm": "Posterior Cingulate Cortex"}, {"conceptId": "C102348", "submissionValue": "POSTERIOR DESCENDING SEPTAL PERFORATORS ARTERY", "definition": "The arteries arising from the right posterior descending artery that supply the interventricular septum.", "preferredTerm": "Septal Perforator Artery", "synonyms": ["PDSP", "POSTERIOR DESCENDING SEPTAL PERFORATORS ARTERY SEGMENT"]}, {"conceptId": "C142303", "submissionValue": "POSTERIOR POLE OF THE EYE", "definition": "The scleral curvature of the eye comprising the retina, inclusive of the macula and optic disc.", "preferredTerm": "Posterior Pole of the Eye"}, {"conceptId": "C139206", "submissionValue": "POSTERIOR SUPERIOR ILIAC SPINE", "definition": "A bony projection from the posterior region of the iliac crest that lies over the sacroiliac joint and is the site of attachment for the thoracolumbar fascia and the posterior sacroiliac and sacrotuberous ligaments.", "preferredTerm": "Posterior Superior Iliac Spine"}, {"conceptId": "C12826", "submissionValue": "POSTERIOR TIBIAL ARTERY", "definition": "A terminal branch of the popliteal artery that runs along the tibia from the lower portion of the popliteus muscle to the lower ankle with numerous branches supplying the lower leg and foot.", "preferredTerm": "Posterior Tibial Artery"}, {"conceptId": "C33386", "submissionValue": "POSTERIOR TIBIAL VEIN", "definition": "A vein in the foot that originates at the union of the external and internal plantar veins and which becomes the popliteal vein.", "preferredTerm": "Posterior Tibial Vein"}, {"conceptId": "C116170", "submissionValue": "POSTEROLATERAL SEGMENTAL ARTERY", "definition": "In an individual with a right-dominant heart, the arterial branch that arises from the distal right coronary artery in the posterior atrioventricular groove after the origin of the right posterior descending artery.", "preferredTerm": "Posterolateral Coronary Artery"}, {"conceptId": "C103429", "submissionValue": "PREAURICULAR LYMPH NODE", "definition": "A lymph node located anterior to the auricle of the ear. (NCI)", "preferredTerm": "Preauricular Lymph Node"}, {"conceptId": "C112399", "submissionValue": "PRECUNEUS", "definition": "The posteromedial region of the parietal lobe bounded by the marginal branch of the cingulate sulcus anteriorly, by the medial portion of the parieto-occipital fissure posteriorly and by the subparietal sulcus inferiorly.", "preferredTerm": "Precuneus"}, {"conceptId": "C154779", "submissionValue": "PREFRONTAL CORTEX", "definition": "The grey matter on the medial, lateral, and orbital surfaces of the anterior part of the frontal cortex, which play a role in complex cognitive control, emotion, and social behavior.", "preferredTerm": "Prefrontal Cortex"}, {"conceptId": "C147454", "submissionValue": "PRELARYNGEAL LYMPH NODE", "definition": "A lymph node located anterior to the larynx.", "preferredTerm": "Prelaryngeal Lymph Node"}, {"conceptId": "C79432", "submissionValue": "PREPUTIAL GLAND", "definition": "Exocrine glands of the male reproductive system located adjacent to the prepuce.", "preferredTerm": "Preputial Gland"}, {"conceptId": "C154775", "submissionValue": "PRESACRAL LYMPH NODE", "definition": "Lymph node(s) located in the mesorectum, between the rectum and the sacrum.", "preferredTerm": "Presacral Lymph Node"}, {"conceptId": "C132414", "submissionValue": "PRESACRAL SPACE", "definition": "The potential body space formed between the rectum and the sacrum.", "preferredTerm": "Presacral Space"}, {"conceptId": "C147455", "submissionValue": "PRETRACHEAL LYMPH NODE", "definition": "A lymph node located anterior to the trachea, between the isthmus of the thyroid gland and the innominate vein.", "preferredTerm": "Pretracheal Lymph Node"}, {"conceptId": "C97340", "submissionValue": "PRIMARY VISUAL CORTEX", "definition": "A brain region in the occipital cortex that receives visual stimuli from the retina. (NCI)", "preferredTerm": "Primary Visual Cortex"}, {"conceptId": "C32436", "submissionValue": "PROFUNDA FEMORIS ARTERY", "definition": "An artery arising from the common femoral artery just below the inguinal ligament running close to the femur and ending in the lower third o