{"_links": {"priorVersion": {"href": "/mdr/ct/packages/sendct-2022-09-30", "title": "SEND Controlled Terminology Package 51 Effective 2022-09-30", "type": "Terminology"}, "self": {"href": "/mdr/ct/packages/sendct-2022-12-16", "title": "SEND Controlled Terminology Package 52 Effective 2022-12-16", "type": "Terminology"}}, "codelists": [{"conceptId": "C158118", "definition": "Terminology related to the method by which the age of an individual is determined through estimation.", "extensible": "true", "name": "Age Estimation Method Response", "preferredTerm": "CDISC SEND Age Estimation Method Response Terminology", "submissionValue": "AGESMETH", "synonyms": ["Age Estimation Method Response"], "terms": [{"conceptId": "C158324", "definition": "Information obtained from medical records, acquisition records, or other official documentation associated with the animal.", "preferredTerm": "Animal Record Information", "submissionValue": "ANIMAL RECORDS"}, {"conceptId": "C158323", "definition": "A systematic evaluation of the mouth, face, and neck, which may include tooth counting, cleaning and visual assessment.", "preferredTerm": "Dental Examination", "submissionValue": "DENTAL EXAM"}, {"conceptId": "C20989", "definition": "A systemic evaluation of the body and its functions using visual inspection, palpation, percussion and auscultation.", "preferredTerm": "Physical Examination", "submissionValue": "PHYSICAL EXAMINATION", "synonyms": ["Physical Exam"]}, {"conceptId": "C128940", "definition": "A radiographic procedure using the emission of penetrating energy waves to form an image of the structure.", "preferredTerm": "Radiographic Examination", "submissionValue": "RADIOGRAPHY", "synonyms": ["Radiographic Exam"]}, {"conceptId": "C17998", "definition": "Not known, not observed, not recorded, or refused. (NCI)", "preferredTerm": "Unknown", "submissionValue": "UNKNOWN", "synonyms": ["U", "UNK", "Unknown"]}]}, {"conceptId": "C66781", "definition": "Those units of time that are routinely used to express the age of a subject.", "extensible": "false", "name": "Age Unit", "preferredTerm": "CDISC SDTM Age Unit Terminology", "submissionValue": "AGEU", "synonyms": ["Age Unit"], "terms": [{"conceptId": "C25301", "definition": "A unit of measurement of time equal to 24 hours.", "preferredTerm": "Day", "submissionValue": "DAYS"}, {"conceptId": "C25529", "definition": "A unit of measurement of time equal to 60 minutes.", "preferredTerm": "Hour", "submissionValue": "HOURS", "synonyms": ["h", "Hours", "hr"]}, {"conceptId": "C29846", "definition": "One of the 12 divisions of a year as determined by a calendar. It corresponds to the unit of time of approximately to one cycle of the moon's phases, about 30 days or 4 weeks. (NCI)", "preferredTerm": "Month", "submissionValue": "MONTHS", "synonyms": ["Month"]}, {"conceptId": "C29844", "definition": "Any period of seven consecutive days. (NCI)", "preferredTerm": "Week", "submissionValue": "WEEKS", "synonyms": ["Week"]}, {"conceptId": "C29848", "definition": "The period of time that it takes for Earth to make a complete revolution around the sun, approximately 365 days; a specific one year period. (NCI)", "preferredTerm": "Year", "submissionValue": "YEARS", "synonyms": ["Year"]}]}, {"conceptId": "C74456", "definition": "Terminology codelist used for anatomical location within CDISC.", "extensible": "true", "name": "Anatomical Location", "preferredTerm": "CDISC SDTM Anatomical Location Terminology", "submissionValue": "LOC", "synonyms": ["Anatomical Location"], "terms": [{"conceptId": "C116163", "definition": "The spinous process of the 5th lumbar vertebra.", "preferredTerm": "Fifth Lumbar Spinous Process", "submissionValue": "5TH LUMBAR SPINOUS PROCESS"}, {"conceptId": "C32038", "definition": "The portion of the descending aorta that lies within the abdomen, beginning below the diaphragm and ending at its division into the right and left common iliac arteries. (NCI)", "preferredTerm": "Abdominal Aorta", "submissionValue": "ABDOMINAL AORTA"}, {"conceptId": "C12664", "definition": "The body cavity between the thoracic and pelvic cavities in mammals.", "preferredTerm": "Abdomen", "submissionValue": "ABDOMINAL CAVITY", "synonyms": ["Abdomen"]}, {"conceptId": "C12360", "definition": "Any lymph node within the abdomen.", "preferredTerm": "Intra-Abdominal Lymph Node", "submissionValue": "ABDOMINAL LYMPH NODE"}, {"conceptId": "C139186", "definition": "Any portion of the body that lies within the boundary, either internally or externally, of the abdomen: superior margin, the thorax; inferior margin, the pelvis; lateral margins, the ribs.", "preferredTerm": "Abdominal Region", "submissionValue": "ABDOMINAL REGION"}, {"conceptId": "C52758", "definition": "The integument that covers the abdomen.", "preferredTerm": "Abdominal Skin", "submissionValue": "ABDOMINAL SKIN", "synonyms": ["Abdominal Skin"]}, {"conceptId": "C77608", "definition": "The tissue that surrounds the organs present in the abdominal cavity.", "preferredTerm": "Abdominal Wall", "submissionValue": "ABDOMINAL WALL"}, {"conceptId": "C12665", "definition": "The sixth cranial nerve.", "preferredTerm": "Abducens Nerve", "submissionValue": "ABDUCENS NERVE"}, {"conceptId": "C165996", "definition": "A muscle of the hand, in general extending from the pisiform bone, the pisohamate ligament, and the flexor retinaculum to the ulnopalmar margin of the proximal phalanx. Primary function is abduction of the little finger and flexion of the phalanx nearest the hand.", "preferredTerm": "Abductor Digiti Minimi Muscle of the Hand", "submissionValue": "ABDUCTOR DIGITI MINIMI MUSCLE OF THE HAND"}, {"conceptId": "C163504", "definition": "A muscle in the foot, in general extending from the medial and lateral processes of the posterior calcaneal tuberosity to the lateral side of the base of the proximal phalanx of the fifth toe and the fifth metatarsal; primary function is to abduct the fifth toe at the metatarsophalangeal joint and support the lateral arch.", "preferredTerm": "Abductor Digiti Minimi Muscle", "submissionValue": "ABDUCTOR DIGITI QUINTI MUSCLE", "synonyms": ["Abductor Digiti Minimi", "Abductor Minimi Digiti"]}, {"conceptId": "C163505", "definition": "A muscle in the foot, in general extending from the medial process of the posterior calcaneal tuberosity to the medial side of the base of the proximal phalanx of the big toe; primary function is to abduct and flex the big toe at the metatarsophalangeal joint.", "preferredTerm": "Abductor Hallucis Muscle", "submissionValue": "ABDUCTOR HALLUCIS MUSCLE"}, {"conceptId": "C165997", "definition": "A muscle of the hand, in general extending from the flexor retinaculum and the tubercles of the scaphoid and trapezium bones to the outer side of the base of the proximal phalanx of the thumb. Primary function is abduction of the thumb away from the palm.", "preferredTerm": "Abductor Pollicis Brevis Muscle", "submissionValue": "ABDUCTOR POLLICIS BREVIS MUSCLE"}, {"conceptId": "C52888", "definition": "A skeletal muscle of the forearm originating from the posterior surfaces of the ulna and radius and the interosseous membrane. (NCI)", "preferredTerm": "Abductor Pollicis Longus", "submissionValue": "ABDUCTOR POLLICIS LONGUS MUSCLE"}, {"conceptId": "C116183", "definition": "An additional renal vessel originating from the aorta and entering the kidney at the proximal or distal end of the organ. Accessory renal arteries are found in 26-30% of humans.", "preferredTerm": "Accessory Renal Artery", "submissionValue": "ACCESSORY RENAL ARTERY"}, {"conceptId": "C32042", "definition": "Two cup shaped areas, one each on the lateral side of the lower pelvis that house the head of the femur to form the ball and socket joint of the hip. (NCI)", "preferredTerm": "Acetabulum", "submissionValue": "ACETABULUM", "synonyms": ["Acetabulum"]}, {"conceptId": "C32043", "definition": "The tendon that, in general, attaches the gastrocnemius muscle to the calcaneous bone in the tarsus.", "preferredTerm": "Achilles Tendon", "submissionValue": "ACHILLES TENDON"}, {"conceptId": "C32047", "definition": "The junction of the upper distal end of the scapula to the distal edge of the collarbone, also known as the acromion and the clavicle. (NCI)", "preferredTerm": "Acromioclavicular Joint", "submissionValue": "ACROMIOCLAVICULAR JOINT", "synonyms": ["Acromioclavicular Joint"]}, {"conceptId": "C32048", "definition": "The upper distal process of the scapula. (NCI)", "preferredTerm": "Acromion", "submissionValue": "ACROMION", "synonyms": ["Acromion"]}, {"conceptId": "C102285", "definition": "The arteries that arise at the junction of the proximal and mid-right coronary artery conduit segments.", "preferredTerm": "Acute Marginal Artery", "submissionValue": "ACUTE MARGINAL ARTERY", "synonyms": ["ACUTE MARGINAL ARTERY SEGMENT(S)", "AMARG"]}, {"conceptId": "C163506", "definition": "A muscle in the leg, in general extending from the external surface of the body of pubis and the anterior surface of the inferior pubic ramus to the pectineal line and the medial lip of the linea aspera; primary function is to adduct, flex, and rotate the thigh.", "preferredTerm": "Adductor Brevis Muscle", "submissionValue": "ADDUCTOR BREVIS MUSCLE"}, {"conceptId": "C163507", "definition": "The larger of two heads of the adductor hallucis muscle, in general originating from the sheath of the peroneus longus tendon and the plantar surface of the bases of the second to fourth metatarsal bones in the foot.", "preferredTerm": "Oblique Head of Adductor Hallucis Muscle", "submissionValue": "ADDUCTOR HALLUCIS MUSCLE, OBLIQUE HEAD"}, {"conceptId": "C163508", "definition": "The smaller of two heads of the adductor hallucis muscle, in general originating from the deep transverse metatarsal ligament and the plantar surface of the metatarsophalangeal joints of the lateral three toes.", "preferredTerm": "Transverse Head of Adductor Hallucis Muscle", "submissionValue": "ADDUCTOR HALLUCIS MUSCLE, TRANSVERSE HEAD"}, {"conceptId": "C163509", "definition": "A muscle in the thigh, in general extending from the external surface of the body of pubis to the middle third of the linea aspera; primary function is to adduct and medially rotate the thigh.", "preferredTerm": "Adductor Longus Muscle", "submissionValue": "ADDUCTOR LONGUS MUSCLE"}, {"conceptId": "C163510", "definition": "A muscle in the thigh, in general extending from the ischiopubic ramus and ischial tuberosity to the gluteal tuberosity of the femur, medial lip of the linea aspera, medial supracondylar ridge, and adductor tubercle; primary function is to adduct, flex, extend, and medially rotate the thigh at the hip joint.", "preferredTerm": "Adductor Magnus Muscle", "submissionValue": "ADDUCTOR MAGNUS MUSCLE"}, {"conceptId": "C186100", "definition": "A muscle of the hand that extends from the capitate and bases of the second and third metacarpals for the oblique head, and the anterior surface of body of the third metacarpal for the transverse head, to the base of proximal phalanx and extensor hood of the thumb; primary function is to draw the first metacarpal laterally to oppose the thumb toward the center of palm and rotate it medially.", "preferredTerm": "Adductor Pollicis Muscle", "submissionValue": "ADDUCTOR POLLICIS MUSCLE"}, {"conceptId": "C12666", "definition": "The endocrine glands adjacent to the kidneys that consist of the outer adrenal cortex and the inner adrenal medulla in mammals.", "preferredTerm": "Adrenal Gland", "submissionValue": "ADRENAL GLAND"}, {"conceptId": "C129430", "definition": "The bony process of the sphenoid bone, extending from the side of the body of the sphenoid and curving upward, laterally, and backward.", "preferredTerm": "Sphenoid Wing", "submissionValue": "ALISPHENOID PROCESS", "synonyms": ["Greater Wing of the Sphenoid Bone"]}, {"conceptId": "C89749", "definition": "The thickened bony structures in the mandible and maxilla that contain the sockets of the teeth.", "preferredTerm": "Alveolar Ridge", "submissionValue": "ALVEOLAR PROCESS", "synonyms": ["Alveolar Margin", "Alveolar Ridge"]}, {"conceptId": "C12986", "definition": "Any of the terminal sacs in the lungs through which gas exchange takes place with the pulmonary capillary blood.", "preferredTerm": "Alveolus", "submissionValue": "ALVEOLUS", "synonyms": ["Alveoli"]}, {"conceptId": "C13188", "definition": "The fluid within the amniotic cavity which surrounds and protects the developing embryo. (NCI)", "preferredTerm": "Amniotic Fluid", "submissionValue": "AMNIOTIC FLUID", "synonyms": ["Aqua Amnii"]}, {"conceptId": "C13011", "definition": "The junction of the common bile and main pancreatic ducts, which protrudes into the medial aspect of the descending duodenum at the major duodenal papilla.", "preferredTerm": "Ampulla of Vater", "submissionValue": "AMPULLA OF VATER"}, {"conceptId": "C12440", "definition": "A group of nuclei adjacent to the lateral ventricle of the brain within the temporal lobe, and is part of the limbic system.", "preferredTerm": "Amygdala", "submissionValue": "AMYGDALA", "synonyms": ["Amygdala", "Amygdaloid Body", "Amygdaloid Nucleus"]}, {"conceptId": "C12375", "definition": "The terminal section of the alimentary canal, which extends from the anorectal junction and ends at the anal opening. (NCI)", "preferredTerm": "Anal Canal", "submissionValue": "ANAL CANAL"}, {"conceptId": "C32069", "definition": "The area that includes the anus and the perianal skin.", "preferredTerm": "Anal Region", "submissionValue": "ANAL REGION"}, {"conceptId": "C165177", "definition": "The internal and external muscles surrounding the anus that maintain continence.", "preferredTerm": "Anal Sphincter", "submissionValue": "ANAL SPHINCTER"}, {"conceptId": "C25419", "definition": "The transitional zone between the moist, hairless, modified skin of the anal canal and the perianal skin.", "preferredTerm": "Anal Margin", "submissionValue": "ANAL VERGE"}, {"conceptId": "C15609", "definition": "A natural or surgically-induced connection between tubular structures in the body. (NCI)", "preferredTerm": "Anastomosis", "submissionValue": "ANASTOMOSIS", "synonyms": ["Anastomosis"]}, {"conceptId": "C186101", "definition": "A muscle of the elbow, in general extending from the lateral epicondyle of the humerus to the lateral surface of the ulnar olecranon; primary function is to extend the forearm and stabilize the elbow joint.", "preferredTerm": "Anconeus Muscle", "submissionValue": "ANCONEUS MUSCLE"}, {"conceptId": "C32077", "definition": "A ridge on the posterior part of the inferior parietal lobule.", "preferredTerm": "Angular Gyrus", "submissionValue": "ANGULAR GYRUS"}, {"conceptId": "C161390", "definition": "The tendons in the anterior compartment of the leg that cross the tibiotalar joint anteriorly and connect muscles that originate on the surfaces of the tibia and fibula to bones in the toes, enabling dorsiflexion of the foot at the ankle and extension of the toes. (NCI)", "preferredTerm": "Ankle Joint Anterior Extensor Tendons", "submissionValue": "ANKLE JOINT ANTERIOR EXTENSOR TENDONS"}, {"conceptId": "C161389", "definition": "The tendons in the anterior compartment of the leg that connect muscles that originate on the surfaces of the femur, tibia, and fibula to bones in the toes, enabling plantar flexion of the foot at the ankle. (NCI)", "preferredTerm": "Ankle Joint Anterior Flexor Tendons", "submissionValue": "ANKLE JOINT ANTERIOR FLEXOR TENDONS"}, {"conceptId": "C32078", "definition": "A gliding joint between the distal ends of the tibia and fibula and the proximal end of the talus. (NCI)", "preferredTerm": "Ankle Joint", "submissionValue": "ANKLE JOINT", "synonyms": ["Ankle", "Ankle Joint"]}, {"conceptId": "C117868", "definition": "A rectangular socket or bony arch that connects the ends of the tibia and fibula to the talus.", "preferredTerm": "Ankle Mortise", "submissionValue": "ANKLE MORTISE", "synonyms": ["Talar Mortise"]}, {"conceptId": "C186102", "definition": "The distal portion of the gastrointestinal tract that includes the anal canal and rectum.", "preferredTerm": "Anorectum", "submissionValue": "ANORECTUM"}, {"conceptId": "C103238", "definition": "A triangular space on the anterior side of the elbow joint. Three main veins of the arm, the brachial artery, the medial nerve and the tendon of the biceps muscle pass through this space.", "preferredTerm": "Antecubital Fossa", "submissionValue": "ANTECUBITAL FOSSA", "synonyms": ["Antecubital Region"]}, {"conceptId": "C139185", "definition": "The part of the cingulate cortex that lies most frontal, with the most anterior portion of the cortex bending in a horseshoe shape around the genu of the corpus callosum.", "preferredTerm": "Anterior Cingulate Cortex", "submissionValue": "ANTERIOR CINGULATE CORTEX"}, {"conceptId": "C187996", "definition": "The part of the cingulate gyrus that lies inferior to the superior frontal gyrus, and is separated from it by the cingulate sulcus; it ends inferior to the rostrum of the corpus callosum.", "preferredTerm": "Anterior Cingulate Gyrus", "submissionValue": "ANTERIOR CINGULATE GYRUS"}, {"conceptId": "C32637", "definition": "The part of the lateral ventricle located in the frontal lobe, anterior to the interventricular foramen of Monroe, and bounded by the septum pellucidum, fornix, and genu of the corpus callosum.", "preferredTerm": "Frontal Horn of the Lateral Ventricle", "submissionValue": "ANTERIOR HORN OF THE LATERAL VENTRICLE", "synonyms": ["Frontal Horn of the Lateral Ventricle"]}, {"conceptId": "C32091", "definition": "A basilar artery branch that supplies the anterior portion of the inferior surface of the cerebellum.", "preferredTerm": "Anterior Inferior Cerebellar Artery", "submissionValue": "ANTERIOR INFERIOR CEREBELLAR ARTERY", "synonyms": ["AICA"]}, {"conceptId": "C32097", "definition": "A lymph node located in the anterior part of the mediastinum.", "preferredTerm": "Anterior Mediastinal Lymph Node", "submissionValue": "ANTERIOR MEDIASTINAL LYMPH NODE", "synonyms": ["Prevascular Lymph Node"]}, {"conceptId": "C139187", "definition": "A bony projection from the anterior region of the iliac crest, and is the site of attachment for the sartorius and tensor fascia latae muscles and the inguinal ligament.", "preferredTerm": "Anterior Superior Iliac Spine", "submissionValue": "ANTERIOR SUPERIOR ILIAC SPINE"}, {"conceptId": "C12825", "definition": "An artery of the lower extremity that supplies blood to the anterior part of the leg and the foot.", "preferredTerm": "Anterior Tibial Artery", "submissionValue": "ANTERIOR TIBIAL ARTERY"}, {"conceptId": "C32115", "definition": "The vein that runs parallel to the anterior tibial artery and empties into the popliteal vein.", "preferredTerm": "Anterior Tibial Vein", "submissionValue": "ANTERIOR TIBIAL VEIN"}, {"conceptId": "C12259", "definition": "The initial part of the pyloric canal of the stomach. This site contains endocrine cells that produce gastrin and somatostatin. (NCI)", "preferredTerm": "Antrum Pylori", "submissionValue": "ANTRUM PYLORI", "synonyms": ["Antrum Pylori"]}, {"conceptId": "C43362", "definition": "The distal orifice of the digestive tract located between the rectum and the external surface of the body, comprising glandular, transitional, and squamous epithelium.", "preferredTerm": "Anus", "submissionValue": "ANUS"}, {"conceptId": "C12669", "definition": "The major artery of the body; it arises from the left ventricle of the heart and terminally bifurcates into the common iliac arteries.", "preferredTerm": "Aorta", "submissionValue": "AORTA"}, {"conceptId": "C32123", "definition": "The curved segment of the aorta between the ascending and the descending segments.", "preferredTerm": "Aortic Arch", "submissionValue": "AORTIC ARCH", "synonyms": ["Aortic Arch"]}, {"conceptId": "C97112", "definition": "A small mass that is located on the inferior surface of the aortic arch. It functions as a peripheral chemoreceptor and is composed of glomus cells.", "preferredTerm": "Aortic Body", "submissionValue": "AORTIC BODY"}, {"conceptId": "C130167", "definition": "A fibrous membrane that attaches to, and provides support for, the aortic valve leaflets.", "preferredTerm": "Aortic Valve Annulus", "submissionValue": "AORTIC VALVE ANNULUS"}, {"conceptId": "C12670", "definition": "A cardiac valve located between the left ventricle and the aorta.", "preferredTerm": "Aortic Valve", "submissionValue": "AORTIC VALVE"}, {"conceptId": "C127638", "definition": "The cusp of the aortic valve that overlies the left coronary ostium.", "preferredTerm": "Left Coronary Cusp of the Aortic Valve", "submissionValue": "AORTIC VALVE, LEFT CORONARY CUSP", "synonyms": ["Aortic Valve, Left Semilunar Cusp"]}, {"conceptId": "C127639", "definition": "The cusp of the aortic valve that is positioned posteriorly relative to the left and right aortic cusps.", "preferredTerm": "Non-Coronary Cusp of the Aortic Valve", "submissionValue": "AORTIC VALVE, NON-CORONARY CUSP", "synonyms": ["Aortic Valve, Posterior Semilunar Cusp"]}, {"conceptId": "C127640", "definition": "The cusp of the aortic valve that overlies the right coronary ostium.", "preferredTerm": "Right Coronary Cusp of the Aortic Valve", "submissionValue": "AORTIC VALVE, RIGHT CORONARY CUSP", "synonyms": ["Aortic Valve, Right Semilunar Cusp"]}, {"conceptId": "C186103", "definition": "The wall that separates the aorta and pulmonary arteries during embryonic development.", "preferredTerm": "Aorticopulmonary Septum", "submissionValue": "AORTICOPULMONARY SEPTUM"}, {"conceptId": "C116166", "definition": "The segment of the blood vessels that includes the iliac artery and its origin from the aorta.", "preferredTerm": "Aortoiliac Artery Segment", "submissionValue": "AORTO-ILIAC PERIPHERAL ARTERY"}, {"conceptId": "C118775", "definition": "A lymph node located in the area between the abdominal aorta and inferior vena cava. (NCI)", "preferredTerm": "Aortocaval Lymph Node", "submissionValue": "AORTOCAVAL LYMPH NODE"}, {"conceptId": "C116165", "definition": "A lymph node located in the aortopulmonary window.", "preferredTerm": "Aortopulmonary Window Lymph Node", "submissionValue": "AORTOPULMONARY WINDOW LYMPH NODE"}, {"conceptId": "C83470", "definition": "The distal end of the appendix. (NCI)", "preferredTerm": "Appendiceal Tip", "submissionValue": "APPENDICEAL TIP"}, {"conceptId": "C49477", "definition": "The part of the skeleton that includes the bones of the upper and lower limbs, including the shoulder and pelvic girdles", "preferredTerm": "Appendicular Skeleton", "submissionValue": "APPENDICULAR SKELETON"}, {"conceptId": "C12380", "definition": "A pouch-like tissue attached to the cecum, which may exist as a diverticulum.", "preferredTerm": "Appendix", "submissionValue": "APPENDIX"}, {"conceptId": "C13190", "definition": "The watery fluid which is present in the anterior and posterior chambers of the eye. (NCI)", "preferredTerm": "Aqueous Humor", "submissionValue": "AQUEOUS HUMOR", "synonyms": ["Aqueous Humour"]}, {"conceptId": "C52754", "definition": "The integument that covers the arm.", "preferredTerm": "Arm Skin", "submissionValue": "ARM SKIN", "synonyms": ["Arm Skin"]}, {"conceptId": "C32141", "definition": "The portion of the upper extremity between the shoulder and the elbow.", "preferredTerm": "Arm", "submissionValue": "ARM", "synonyms": ["Arm", "Brachium", "Upper Arm"]}, {"conceptId": "C12372", "definition": "A blood vessel that carries blood away from the heart. (NCI)", "preferredTerm": "Artery", "submissionValue": "ARTERY", "synonyms": ["Artery"]}, {"conceptId": "C32150", "definition": "The portion of the aorta that emerges from the left ventricle and precedes the aortic arch.", "preferredTerm": "Ascending Aorta", "submissionValue": "ASCENDING AORTA"}, {"conceptId": "C127641", "definition": "The portion of the ascending aorta between the aortic annulus and the sinotubular junction.", "preferredTerm": "Aortic Root", "submissionValue": "ASCENDING AORTA, AORTIC ROOT"}, {"conceptId": "C127642", "definition": "The terminus of the aortic root; the point at which the aorta attains a tubular configuration.", "preferredTerm": "Sinotubular Junction", "submissionValue": "ASCENDING AORTA, SINOTUBULAR JUNCTION"}, {"conceptId": "C33557", "definition": "Any one of the naturally occurring sinuses of the aortic root distal to the semilunar valve.", "preferredTerm": "Sinus of Valsalva", "submissionValue": "ASCENDING AORTA, SINUS OF VALSALVA"}, {"conceptId": "C186104", "definition": "The confluence of the atrial septum and the ventricular septum.", "preferredTerm": "Atrioventricular Septum", "submissionValue": "ATRIOVENTRICULAR SEPTUM"}, {"conceptId": "C176322", "definition": "Either of the two valves in the heart situated between the atria and ventricles, i.e., the mitral valve or the tricuspid valve.", "preferredTerm": "Atrioventricular Valve", "submissionValue": "ATRIOVENTRICULAR VALVE"}, {"conceptId": "C32164", "definition": "Any of the small bones in the middle ear that transmit acoustic vibrations from the eardrum to the inner ear.", "preferredTerm": "Auditory Ossicle", "submissionValue": "AUDITORY OSSICLE", "synonyms": ["Ossicles of the Ear"]}, {"conceptId": "C32172", "definition": "The part of the skeleton that includes the skull and spinal column and sternum and ribs. (NCI)", "preferredTerm": "Axial Skeleton", "submissionValue": "AXIAL SKELETON"}, {"conceptId": "C12674", "definition": "The underside concavity where the arm and the shoulder are joined. (NCI)", "preferredTerm": "Axilla", "submissionValue": "AXILLA", "synonyms": ["Armpit", "Axilla"]}, {"conceptId": "C32169", "definition": "An artery that originates from the subclavian artery at the lateral margin of the first rib. It supplies the brachial artery.", "preferredTerm": "Axillary Artery", "submissionValue": "AXILLARY ARTERY"}, {"conceptId": "C123461", "definition": "Axillary lymph nodes located inferolateral to pectoralis minor.", "preferredTerm": "Axillary Lymph Node Level I", "submissionValue": "AXILLARY LYMPH NODE LEVEL I"}, {"conceptId": "C123462", "definition": "Axillary lymph nodes located posterior to pectoralis minor.", "preferredTerm": "Axillary Lymph Node Level II", "submissionValue": "AXILLARY LYMPH NODE LEVEL II"}, {"conceptId": "C123463", "definition": "Axillary lymph nodes located superomedial to pectoralis minor.", "preferredTerm": "Axillary Lymph Node Level III", "submissionValue": "AXILLARY LYMPH NODE LEVEL III"}, {"conceptId": "C12904", "definition": "Lymph node(s) in the axillary region.", "preferredTerm": "Axillary Lymph Node", "submissionValue": "AXILLARY LYMPH NODE"}, {"conceptId": "C32171", "definition": "A large blood vessel which returns blood to the heart from the lateral thorax, axilla and upper limb. Each side of the body contains one axillary vein.", "preferredTerm": "Axillary Vein", "submissionValue": "AXILLARY VEIN"}, {"conceptId": "C53029", "definition": "A blood vessel which returns blood to the heart from the posterior walls of the thorax and abdomen.", "preferredTerm": "Azygos Vein", "submissionValue": "AZYGOS VEIN"}, {"conceptId": "C13062", "definition": "The dorsal area between the base of the neck and the sacrum. (NCI)", "preferredTerm": "Back", "submissionValue": "BACK", "synonyms": ["Back"]}, {"conceptId": "C12447", "definition": "Clusters of neurons comprising the globus pallidus, putamen, caudate, nucleus accumbens, substantia nigra and subthalamic nucleus.", "preferredTerm": "Basal Ganglia", "submissionValue": "BASAL GANGLIA"}, {"conceptId": "C12228", "definition": "The posterior one third of the tongue behind the terminal sulcus that forms the anterior aspect of the oro-pharynx.", "preferredTerm": "Base of the Tongue", "submissionValue": "BASE OF THE TONGUE"}, {"conceptId": "C32197", "definition": "One of the moderately large superficial veins of the forearm that transports blood from the hand and the medial aspect of the forearm to the axillary vein. (NCI)", "preferredTerm": "Basilic Vein", "submissionValue": "BASILIC VEIN", "synonyms": ["Basilic Vein"]}, {"conceptId": "C186105", "definition": "The basilar portion of the occipital bone; it is present during fetal development and later fuses with the occipital bone.", "preferredTerm": "Basioccipital Bone", "submissionValue": "BASIOCCIPITAL BONE"}, {"conceptId": "C186106", "definition": "One of the bones of the orbit, situated rostrally to the basilar part of the occipital bone; it is present during fetal development and later fuses to form the posterior portion of the sphenoid bone.", "preferredTerm": "Basisphenoid Bone", "submissionValue": "BASISPHENOID BONE"}, {"conceptId": "C32200", "definition": "A muscle of the proximal arm/forelimb, in general extending from the scapula to the radius and adjacent fascia; primary function is flexion of the elbow joint and, in some species, also functions in supination of the antebrachium.", "preferredTerm": "Biceps Brachii", "submissionValue": "BICEPS BRACHII MUSCLE"}, {"conceptId": "C53147", "definition": "A muscle in the thigh, in general extending from the ischial tuberosity and posterior femur to the fibula; primary function is to extend the femorotibial joint.", "preferredTerm": "Biceps Femoris", "submissionValue": "BICEPS FEMORIS MUSCLE"}, {"conceptId": "C12376", "definition": "Any of the ducts conveying bile between the liver and the intestine, including hepatic, cystic, and common bile duct.", "preferredTerm": "Bile Duct", "submissionValue": "BILE DUCT"}, {"conceptId": "C12678", "definition": "The duct system that transports bile from its origination by hepatocytes in the liver to the small intestine. It is comprised of the common bile duct that connects the liver and gall bladder to the small intestine and the cystic duct that connects the gall bladder to the common bile duct. (NCI)", "preferredTerm": "Biliary Tract", "submissionValue": "BILIARY TRACT", "synonyms": ["Biliary Tract"]}, {"conceptId": "C48941", "definition": "The tissue layers that form the urinary bladder. They include the mucosa, submucosa, smooth muscle, and serosa.", "preferredTerm": "Bladder Wall", "submissionValue": "BLADDER WALL"}, {"conceptId": "C12414", "definition": "The distensible sac-like organ that functions as a reservoir of urine, collecting from the kidneys and eliminating via the urethra. (NCI)", "preferredTerm": "Bladder", "submissionValue": "BLADDER", "synonyms": ["Urinary Bladder"]}, {"conceptId": "C12332", "definition": "The upper, convex surface of the bladder. (NCI)", "preferredTerm": "Dome of the Bladder", "submissionValue": "BLADDER, DOME", "synonyms": ["Dome of the Bladder"]}, {"conceptId": "C48939", "definition": "The portion of the bladder that is formed by the posterior wall and is located opposite to the bladder opening. (NCI)", "preferredTerm": "Bladder Fundus", "submissionValue": "BLADDER, FUNDUS", "synonyms": ["Fundus of the Bladder"]}, {"conceptId": "C12336", "definition": "The inferior portion of the urinary bladder which is formed as the walls of the bladder converge and become contiguous with the proximal urethra. (NCI)", "preferredTerm": "Bladder Neck", "submissionValue": "BLADDER, NECK", "synonyms": ["Neck of the Bladder"]}, {"conceptId": "C12331", "definition": "The triangular area in the bladder mucosa that is formed by the two ureteral orifices and the urethral orifice. (NCI)", "preferredTerm": "Bladder Trigone", "submissionValue": "BLADDER, TRIGONE", "synonyms": ["Trigone of the Bladder"]}, {"conceptId": "C12679", "definition": "A tubular structure through which the blood circulates in the body. Blood vessels constitute a network composed of arteries, arterioles, capillaries, venules, and veins. (NCI)", "preferredTerm": "Blood Vessel", "submissionValue": "BLOOD VESSEL"}, {"conceptId": "C12434", "definition": "A liquid tissue with the primary function of transporting oxygen and carbon dioxide. It supplies the tissues with nutrients, removes waste products, and contains various components of the immune system defending the body against infection.", "preferredTerm": "Blood", "submissionValue": "BLOOD", "synonyms": ["Peripheral Blood", "Whole Blood"]}, {"conceptId": "C12258", "definition": "The main section of the digestive tube that connects the esophagus to the small intestine. The body proper excludes the upper and lower sections of the fundus and pyloric portion respectively. (NCI)", "preferredTerm": "Body of Stomach", "submissionValue": "BODY OF STOMACH", "synonyms": ["Body of Stomach"]}, {"conceptId": "C13041", "definition": "The entire physical structure of an organism. It is composed of anatomic systems, regions, cavities, and spaces. (NCI)", "preferredTerm": "Body", "submissionValue": "BODY", "synonyms": ["Whole Body"]}, {"conceptId": "C12431", "definition": "The tissue occupying the spaces of some bones. It consists of blood vessel sinuses and a network of hematopoietic cells.", "preferredTerm": "Bone Marrow", "submissionValue": "BONE MARROW"}, {"conceptId": "C12366", "definition": "Calcified connective tissue that forms the skeletal components of the body. (NCI)", "preferredTerm": "Bone", "submissionValue": "BONE"}, {"conceptId": "C12681", "definition": "An artery of the forelimb; in general it arises from the axillary artery and branches to form the radial and ulnar arteries.", "preferredTerm": "Brachial Artery", "submissionValue": "BRACHIAL ARTERY"}, {"conceptId": "C92221", "definition": "Lymph node(s) adjacent to the brachial vein.", "preferredTerm": "Brachial Lymph Node", "submissionValue": "BRACHIAL LYMPH NODE"}, {"conceptId": "C12682", "definition": "A nerve network originating from spinal nerves in the cervical and thoracic vertebrae and giving rise to multiple nerves that innervate the arm/forelimb.", "preferredTerm": "Brachial Plexus", "submissionValue": "BRACHIAL PLEXUS", "synonyms": ["Brachial Plexus"]}, {"conceptId": "C12883", "definition": "A vein of the arm/forelimb; in general it arises from the union of the radial and ulnar veins and drains into the axillary vein.", "preferredTerm": "Brachial Vein", "submissionValue": "BRACHIAL VEIN"}, {"conceptId": "C53149", "definition": "A muscle that originates from the lower two-thirds of the anterior surface of the humerus that flexes the elbow. (NCI)", "preferredTerm": "Brachialis", "submissionValue": "BRACHIALIS MUSCLE"}, {"conceptId": "C32814", "definition": "An artery of the mediastinum; in general it arises from the aortic arch and branches to form the right subclavian artery and one or both common carotid arteries.", "preferredTerm": "Innominate Artery", "submissionValue": "BRACHIOCEPHALIC ARTERY", "synonyms": ["Innominate Artery"]}, {"conceptId": "C150849", "definition": "A muscle in the forearm, in general extending from the proximal two-thirds of the lateral supracondylar ridge of the humerus and inserting into the styloid process of the radius; primary function is flexion of the elbow and pronation and supination of the forearm.", "preferredTerm": "Brachioradialis Muscle", "submissionValue": "BRACHIORADIALIS MUSCLE"}, {"conceptId": "C12441", "definition": "The part of the brain that connects the cerebral hemispheres with the spinal cord. It consists of the mesencephalon, pons, and medulla oblongata. (NCI)", "preferredTerm": "Brain Stem", "submissionValue": "BRAIN STEM", "synonyms": ["Brain Stem"]}, {"conceptId": "C12356", "definition": "The four connected cavities (hollow spaces) centrally located within the brain that connect posteriorly with the central canal of the spinal cord. (NCI)", "preferredTerm": "Brain Ventricle", "submissionValue": "BRAIN VENTRICLE", "synonyms": ["Brain Ventricle"]}, {"conceptId": "C12834", "definition": "The rostral extensions of the ventricular system of the brain consisting of two cavities, one on each side of the brain within the central regions of each cerebral hemisphere. Cerebrospinal fluid flows from the lateral ventricles into the centrally third ventricle via the foramen of Monroe. (NCI)", "preferredTerm": "Lateral Ventricle", "submissionValue": "BRAIN VENTRICLE, LATERAL"}, {"conceptId": "C12439", "definition": "An organ composed of gray and white matter that is the center for intelligence and reasoning. It is protected by the bony cranium.", "preferredTerm": "Brain", "submissionValue": "BRAIN", "synonyms": ["Nervous System, Brain"]}, {"conceptId": "C12828", "definition": "A diamond-shaped cavity filled with cerebrospinal fluid within the pons, extending between the obex in the caudal medulla and the aqueduct of Sylvius in the cerebellum.", "preferredTerm": "Fourth Ventricle", "submissionValue": "BRAIN, FOURTH VENTRICLE"}, {"conceptId": "C132390", "definition": "The area of the body surrounding the ventricles of the brain.", "preferredTerm": "Periventricular Region", "submissionValue": "BRAIN, PERIVENTRICULAR REGION"}, {"conceptId": "C12827", "definition": "A centrally placed component of the ventricular system of the brain that is located in the diencephalon; the thalamus and the hypothalamus border the third ventricle.", "preferredTerm": "Third Ventricle", "submissionValue": "BRAIN, THIRD VENTRICLE"}, {"conceptId": "C12971", "definition": "One of two hemispheric projections of variable size situated in the subcutaneous layer over the pectoralis major muscle on either side of the chest. (NCI)", "preferredTerm": "Breast", "submissionValue": "BREAST", "synonyms": ["Breast"]}, {"conceptId": "C12318", "definition": "A wide fold of peritoneum that connects the uterus to the lateral walls and floor of the pelvis, and also attaches to the ovaries, fallopian tubes, ovarian ligaments, round ligament of the uterus, and ovarian and uterine arteries.", "preferredTerm": "Broad Ligament", "submissionValue": "BROAD LIGAMENT"}, {"conceptId": "C186107", "definition": "The part of a bronchus that remains after resection.", "preferredTerm": "Bronchial Stump", "submissionValue": "BRONCHIAL STUMP"}, {"conceptId": "C12684", "definition": "The smallest subdivisions of the bronchial tree, which are both acartilagenous and aglandular.", "preferredTerm": "Bronchiole", "submissionValue": "BRONCHIOLE"}, {"conceptId": "C12683", "definition": "Tubular structure in continuation with the trachea, serving as an air passage.", "preferredTerm": "Bronchus", "submissionValue": "BRONCHUS", "synonyms": ["Bronchi"]}, {"conceptId": "C154770", "definition": "Lymph node(s) that are located superficial to the buccinator muscle.", "preferredTerm": "Buccal Lymph Node", "submissionValue": "BUCCAL LYMPH NODE", "synonyms": ["Buccinator Lymph Node"]}, {"conceptId": "C12505", "definition": "The mucosal membranes located on the inside of the cheek, in the buccal cavity. (NCI)", "preferredTerm": "Buccal Mucosa", "submissionValue": "BUCCAL MUCOSA"}, {"conceptId": "C12902", "definition": "The part of the conjunctiva that covers the eyeball.", "preferredTerm": "Bulbar Conjunctiva", "submissionValue": "BULBAR CONJUNCTIVA"}, {"conceptId": "C89806", "definition": "Either of the fleshy mounds in the rear pelvic area of the human body formed by the gluteal muscles.", "preferredTerm": "Buttock", "submissionValue": "BUTTOCK", "synonyms": ["Buttock"]}, {"conceptId": "C32239", "definition": "The first of the seven cervical vertebrae. (NCI)", "preferredTerm": "C1 Vertebra", "submissionValue": "C1 VERTEBRA", "synonyms": ["C1 Vertebra"]}, {"conceptId": "C32240", "definition": "The second of the seven cervical vertebrae. (NCI)", "preferredTerm": "C2 Vertebra", "submissionValue": "C2 VERTEBRA", "synonyms": ["C2 Vertebra"]}, {"conceptId": "C32241", "definition": "The third of the seven cervical vertebrae. (NCI)", "preferredTerm": "C3 Vertebra", "submissionValue": "C3 VERTEBRA", "synonyms": ["C3 Vertebra"]}, {"conceptId": "C32242", "definition": "The fourth of the seven cervical vertebrae. (NCI)", "preferredTerm": "C4 Vertebra", "submissionValue": "C4 VERTEBRA", "synonyms": ["C4 Vertebra"]}, {"conceptId": "C32243", "definition": "The fifth of the seven cervical vertebrae. (NCI)", "preferredTerm": "C5 Vertebra", "submissionValue": "C5 VERTEBRA", "synonyms": ["C5 Vertebra"]}, {"conceptId": "C32244", "definition": "The sixth of the seven cervical vertebrae. (NCI)", "preferredTerm": "C6 Vertebra", "submissionValue": "C6 VERTEBRA", "synonyms": ["C6 Vertebra"]}, {"conceptId": "C32245", "definition": "The seventh of the seven cervical vertebrae. (NCI)", "preferredTerm": "C7 Vertebra", "submissionValue": "C7 VERTEBRA", "synonyms": ["C7 Vertebra"]}, {"conceptId": "C142295", "definition": "A roughened surface on the superior portion of the posterior half of the calcaneus, where the calcaneal (Achilles) tendon inserts.", "preferredTerm": "Calcaneal Tuberosity", "submissionValue": "CALCANEAL TUBEROSITY"}, {"conceptId": "C32250", "definition": "The irregular and largest tarsal bone that forms the heel. (NCI)", "preferredTerm": "Calcaneum", "submissionValue": "CALCANEUS", "synonyms": ["Calcaneum", "Calcaneus Bone"]}, {"conceptId": "C32252", "definition": "A cerebral fissure that originates near the occipital lobe and terminates below the corpus callosum. (NCI)", "preferredTerm": "Calcarine Sulcus", "submissionValue": "CALCARINE SULCUS"}, {"conceptId": "C154703", "definition": "Any of the veins located within the muscles of the posterior lower leg, such as the gastrocnemial, soleal, and gemellar veins.", "preferredTerm": "Calf Muscular Vein", "submissionValue": "CALF MUSCULAR VEIN"}, {"conceptId": "C93027", "definition": "The posterior aspect of the lower extremity that extends from the knee to the foot. (NCI)", "preferredTerm": "Calf", "submissionValue": "CALF"}, {"conceptId": "C32258", "definition": "A single-cusped (pointed) and usually single-rooted tooth located between the incisors and premolars. (NCI)", "preferredTerm": "Canine Tooth", "submissionValue": "CANINE TOOTH", "synonyms": ["Canine Tooth"]}, {"conceptId": "C12856", "definition": "The largest of eight carpal bones, located in the center of the hand. (NCI)", "preferredTerm": "Capitate Bone", "submissionValue": "CAPITATE BONE", "synonyms": ["Capitate Bone"]}, {"conceptId": "C139188", "definition": "A condyloid synovial joint within the wrist connecting the capitate bone to the hamate bone.", "preferredTerm": "Capitate-Hamate Joint", "submissionValue": "CAPITATE-HAMATE JOINT"}, {"conceptId": "C139189", "definition": "A condyloid synovial joint within the wrist connecting the capitate bone to the lunate bone.", "preferredTerm": "Capitate-Lunate Joint", "submissionValue": "CAPITATE-LUNATE JOINT"}, {"conceptId": "C12729", "definition": "A valve located in the heart.", "preferredTerm": "Cardiac Valve", "submissionValue": "CARDIAC VALVE"}, {"conceptId": "C139201", "definition": "All of the tissue that comprises the solid, outer structure of the heart, including the epicardium, the myocardium, and the endocardium.", "preferredTerm": "Cardiac Wall", "submissionValue": "CARDIAC WALL"}, {"conceptId": "C121555", "definition": "A lymph node located in the angle between the heart and diaphragm.", "preferredTerm": "Cardiophrenic Lymph Node", "submissionValue": "CARDIOPHRENIC LYMPH NODE", "synonyms": ["Cardiophrenic Angle Lymph Node"]}, {"conceptId": "C12686", "definition": "A collection of organs including the heart and the blood vessels.", "preferredTerm": "Cardiovascular System", "submissionValue": "CARDIOVASCULAR SYSTEM", "synonyms": ["Circulatory System"]}, {"conceptId": "C25264", "definition": "A ridge at the bifurcation of the trachea where the primary bronchi meet.", "preferredTerm": "Carina", "submissionValue": "CARINA", "synonyms": ["Carina, Tracheal"]}, {"conceptId": "C12687", "definition": "An artery of the mediastinum and neck; in general it arises as a primary or secondary branch of the aortic arch and branches into the internal and external carotid arteries.", "preferredTerm": "Common Carotid Artery", "submissionValue": "CAROTID ARTERY", "synonyms": ["Common Carotid Artery"]}, {"conceptId": "C66852", "definition": "A cluster of cells that function as chemo-receptors, located near the bifurcation of the carotid artery.", "preferredTerm": "Carotid Body", "submissionValue": "CAROTID BODY"}, {"conceptId": "C12688", "definition": "Any of the bones of the joint located between the radius and ulna and metacarpus.", "preferredTerm": "Carpal Bone", "submissionValue": "CARPAL BONE"}, {"conceptId": "C103912", "definition": "A saddle-shaped synovial joint between the metacarpal of the thumb and the trapezium. (NCI)", "preferredTerm": "Carpometacarpal Joint 1", "submissionValue": "CARPOMETACARPAL JOINT 1", "synonyms": ["CMC1"]}, {"conceptId": "C103913", "definition": "A plane joint primarily between the second metacarpal and the trapezoid, which also connects with the trapezium and capitate. (NCI)", "preferredTerm": "Carpometacarpal Joint 2", "submissionValue": "CARPOMETACARPAL JOINT 2", "synonyms": ["CMC2"]}, {"conceptId": "C103914", "definition": "A plane joint between the third metacarpal and the capitate. (NCI)", "preferredTerm": "Carpometacarpal Joint 3", "submissionValue": "CARPOMETACARPAL JOINT 3", "synonyms": ["CMC3"]}, {"conceptId": "C103915", "definition": "A plane joint between the fourth metacarpal and the hamate. (NCI)", "preferredTerm": "Carpometacarpal Joint 4", "submissionValue": "CARPOMETACARPAL JOINT 4", "synonyms": ["CMC4"]}, {"conceptId": "C103916", "definition": "A plane joint between the fifth metacarpal and the pisiform. (NCI)", "preferredTerm": "Carpometacarpal Joint 5", "submissionValue": "CARPOMETACARPAL JOINT 5", "synonyms": ["CMC5"]}, {"conceptId": "C32265", "definition": "The articulation of the proximal bases of the metacarpal bones and the distal carpal bones in the fingers, and the first metacarpal bone and the trapezium bone of the wrist in the thumb.", "preferredTerm": "Carpometacarpal Joint", "submissionValue": "CARPOMETACARPAL JOINT"}, {"conceptId": "C12373", "definition": "A type of connective tissue composed of chondrocytes and an extracellular matrix composed of collagen, elastin, and ground substance. There are three types of cartilage; namely elastic, hyaline, and fibrocartilage.", "preferredTerm": "Cartilage", "submissionValue": "CARTILAGE"}, {"conceptId": "C176319", "definition": "Any of the vertebrae below or posterior to the sacral vertebrae and that form the tail.", "preferredTerm": "Caudal Vertebra", "submissionValue": "CAUDAL VERTEBRA"}, {"conceptId": "C12451", "definition": "The gray matter adjacent to each lateral ventricle of the brain that comprises the medial dorsal striatum of the basal ganglia.", "preferredTerm": "Caudate Nucleus", "submissionValue": "CAUDATE NUCLEUS"}, {"conceptId": "C12381", "definition": "The pouch-like portion of the proximal large intestine opening into the colon.", "preferredTerm": "Cecum", "submissionValue": "CECUM"}, {"conceptId": "C52846", "definition": "An artery of the abdomen; in general it arises from the abdominal aorta below the diaphragm and branches to form the left gastric artery, common hepatic artery, and splenic artery.", "preferredTerm": "Celiac Artery", "submissionValue": "CELIAC ARTERY", "synonyms": ["Celiac Trunk"]}, {"conceptId": "C65166", "definition": "A lymph node at the base of the celiac artery. (NCI)", "preferredTerm": "Celiac Lymph Node", "submissionValue": "CELIAC LYMPH NODE", "synonyms": ["Celiac Axis Lymph Node", "Celiac Lymph Node"]}, {"conceptId": "C12438", "definition": "The part of the nervous system that consists of the brain, spinal cord, and meninges. (NCI)", "preferredTerm": "Central Nervous System", "submissionValue": "CENTRAL NERVOUS SYSTEM"}, {"conceptId": "C32286", "definition": "A vein of the arm/forelimb; in general it arises from the dorsal venous network of the hand/forefoot and drains into the axillary vein.", "preferredTerm": "Cephalic Vein", "submissionValue": "CEPHALIC VEIN", "synonyms": ["Vena Cephalica"]}, {"conceptId": "C186108", "definition": "Any one of the individual lobes that make up the cerebellum of the brain.", "preferredTerm": "Cerebellar Lobe", "submissionValue": "CEREBELLAR LOBE"}, {"conceptId": "C12445", "definition": "The portion of the brain that extends from the brainstem through the cerebellar folia.", "preferredTerm": "Cerebellum", "submissionValue": "CEREBELLUM"}, {"conceptId": "C12691", "definition": "Any artery supplying the cerebral cortex.", "preferredTerm": "Cerebral Artery", "submissionValue": "CEREBRAL ARTERY"}, {"conceptId": "C12443", "definition": "The outer layer of the cerebrum composed of neurons and unmyelinated nerve fibers. It is responsible for memory, attention, consciousness and other higher levels of mental function.", "preferredTerm": "Cerebral Cortex", "submissionValue": "CEREBRAL CORTEX", "synonyms": ["Cerebral Cortex"]}, {"conceptId": "C32955", "definition": "The left half of the cerebrum.", "preferredTerm": "Left Cerebral Hemisphere", "submissionValue": "CEREBRAL HEMISPHERE, LEFT"}, {"conceptId": "C33472", "definition": "The right half of the cerebrum.", "preferredTerm": "Right Cerebral Hemisphere", "submissionValue": "CEREBRAL HEMISPHERE, RIGHT"}, {"conceptId": "C32291", "definition": "The paired anterior portions of the midbrain consisting of the crus cerebri, the tegmentum, and the substantia nigra.", "preferredTerm": "Cerebral Peduncle", "submissionValue": "CEREBRAL PEDUNCLE"}, {"conceptId": "C98712", "definition": "The layer located below the cerebral cortex that includes the forebrain, midbrain and hindbrain. (NCI)", "preferredTerm": "Cerebral Subcortex", "submissionValue": "CEREBRAL SUBCORTEX", "synonyms": ["Cerebral Subcortex"]}, {"conceptId": "C53037", "definition": "Any of the external or internal veins that drain the cerebral hemispheres.", "preferredTerm": "Cerebral Vein", "submissionValue": "CEREBRAL VEIN"}, {"conceptId": "C12351", "definition": "The portion of the brain comprising the frontal, parietal, temporal, and occipital lobes and extending through the thalamus.", "preferredTerm": "Cerebral Hemisphere", "submissionValue": "CEREBRUM"}, {"conceptId": "C32298", "definition": "Lymph node(s) in the cervical region, or neck.", "preferredTerm": "Cervical Lymph Node", "submissionValue": "CERVICAL LYMPH NODE"}, {"conceptId": "C69313", "definition": "The set of vertebrae immediately caudal to the skull.", "preferredTerm": "Cervical Spine", "submissionValue": "CERVICAL SPINE"}, {"conceptId": "C12693", "definition": "Any one of the seven vertebrae that are caudal to the skull, denoted as C1, C2, C3, C4, C5, C6 or C7.", "preferredTerm": "Cervical Vertebra", "submissionValue": "CERVICAL VERTEBRA"}, {"conceptId": "C178002", "definition": "The region of the body that comprises the uterine cervix and vagina. (NCI)", "preferredTerm": "Cervicovaginal Region", "submissionValue": "CERVICOVAGINAL REGION"}, {"conceptId": "C12311", "definition": "The portion of the uterus (or uterine horns) that empties into the vagina.", "preferredTerm": "Cervix Uteri", "submissionValue": "CERVIX UTERI", "synonyms": ["Cervix Uteri", "Uterine Cervix"]}, {"conceptId": "C13070", "definition": "The soft tissue on the lateral aspects of the face, generally bounded by the eyes, nose, ear, and jaw line.", "preferredTerm": "Cheek", "submissionValue": "CHEEK"}, {"conceptId": "C62484", "definition": "The total system of structures outside the lungs that move as a part of breathing; it includes all structures from the skin to the parietal pleura. (NCI)", "preferredTerm": "Chest Wall", "submissionValue": "CHEST WALL", "synonyms": ["Chest Wall"]}, {"conceptId": "C25389", "definition": "The anterior side of the thorax from the neck to the abdomen. The shape of the chest is often regarded as potential insight into a disease process, as in the case of barrel chest and respiratory dysfunction. (NCI)", "preferredTerm": "Chest", "submissionValue": "CHEST", "synonyms": ["Chest"]}, {"conceptId": "C81169", "definition": "The part of the face below the lower lip and including the protruding part of the lower jaw.", "preferredTerm": "Mentum", "submissionValue": "CHIN"}, {"conceptId": "C32307", "definition": "Any of the tendons that connect the papillary muscles to the tricuspid and mitral valves.", "preferredTerm": "Chordae Tendineae", "submissionValue": "CHORDAE TENDINEAE", "synonyms": ["Chorda Tendinea"]}, {"conceptId": "C12694", "definition": "Blood vessels and ependyma forming villous structures in the ventricles of the brain.", "preferredTerm": "Choroid Plexus", "submissionValue": "CHOROID PLEXUS"}, {"conceptId": "C12344", "definition": "A blood vessel-containing membrane of the eye that lies between the retina and the sclera. (NCI)", "preferredTerm": "Choroid", "submissionValue": "CHOROID"}, {"conceptId": "C12345", "definition": "Circumferential tissue located behind the iris and composed of muscle and epithelium.", "preferredTerm": "Ciliary Body", "submissionValue": "CILIARY BODY"}, {"conceptId": "C52713", "definition": "Part of the medial aspect of the cerebral cortex. (NCI)", "preferredTerm": "Cingulate Cortex", "submissionValue": "CINGULATE CORTEX"}, {"conceptId": "C102287", "definition": "The segment of the left circumflex artery that is distal to the third marginal branch, located in the atrioventricular groove.", "preferredTerm": "Circumflex Artery AV Groove Continuation Artery", "submissionValue": "CIRCUMFLEX ARTERY AV GROOVE CONTINUATION ARTERY", "synonyms": ["CIRC AV", "CIRCUMFLEX ARTERY AV GROOVE CONTINUATION ARTERY SEGMENT"]}, {"conceptId": "C102286", "definition": "The left circumflex coronary artery and all of its branches.", "preferredTerm": "Circumflex Artery and its Branches", "submissionValue": "CIRCUMFLEX, OBTUSE MARGINALS, LEFT POSTEROLATERAL AND LEFT POSTERIOR DESCENDING ARTERY BRANCHES"}, {"conceptId": "C12695", "definition": "The paired bone that is situated between the sternum and the shoulder.", "preferredTerm": "Clavicle", "submissionValue": "CLAVICLE"}, {"conceptId": "C176323", "definition": "The curved, pointed appendage on the distal end of a digit, composed of keratin.", "preferredTerm": "Claw", "submissionValue": "CLAW"}, {"conceptId": "C12308", "definition": "The erectile tissue in the vulva. It is composed of the corpora cavernosa and the glans clitoris.", "preferredTerm": "Clitoris", "submissionValue": "CLITORIS"}, {"conceptId": "C12494", "definition": "A sloped depression between the dorsum sellae and foramen magnum at the base of the skull.", "preferredTerm": "Clivus", "submissionValue": "CLIVUS"}, {"conceptId": "C32334", "definition": "Four vertebral segments positioned at the base of the spine that are fused. (NCI)", "preferredTerm": "Coccygeal Vertebra", "submissionValue": "COCCYGEAL VERTEBRA", "synonyms": ["Coccygeal Vertebra"]}, {"conceptId": "C12696", "definition": "A small bone located at the bottom of the spine. The coccyx is a result of 3-5 fused rudimentary vertebrae. (NCI)", "preferredTerm": "Coccyx", "submissionValue": "COCCYX", "synonyms": ["Coccyx"]}, {"conceptId": "C176317", "definition": "A lymph node located in the colon.", "preferredTerm": "Colon Lymph Node", "submissionValue": "COLON LYMPH NODE"}, {"conceptId": "C176315", "definition": "The portion of the gastrointestinal tract wall that surrounds the cavity of the colon and contains teniae coli, haustra, and epiploic appendages.", "preferredTerm": "Colon Wall", "submissionValue": "COLON WALL"}, {"conceptId": "C12382", "definition": "The portion of the large intestine which extends from the cecum (or small intestine in animals that don't have a cecum) to the rectum.", "preferredTerm": "Colon", "submissionValue": "COLON"}, {"conceptId": "C12265", "definition": "The first part of the colon (large intestine) that starts in the right lower quadrant of the abdomen and ends at the transverse colon in the right upper quadrant of the abdomen. (NCI)", "preferredTerm": "Ascending Colon", "submissionValue": "COLON, ASCENDING", "synonyms": ["Ascending Colon"]}, {"conceptId": "C12268", "definition": "The fourth portion of the large intestine (colon) that communicates with the transverse colon in the left-upper quadrant of the abdomen and the rectum below. (NCI)", "preferredTerm": "Descending Colon", "submissionValue": "COLON, DESCENDING", "synonyms": ["Descending Colon"]}, {"conceptId": "C12266", "definition": "The bend at the junction of the ascending and transverse colon.", "preferredTerm": "Hepatic Flexure", "submissionValue": "COLON, HEPATIC FLEXURE", "synonyms": ["Hepatic Flexure", "Right Colic Flexure"]}, {"conceptId": "C33929", "definition": "The portion of the large intestine that includes the descending and sigmoid colon. (NCI)", "preferredTerm": "Left Colon", "submissionValue": "COLON, LEFT", "synonyms": ["Left Colon"]}, {"conceptId": "C103438", "definition": "A portion of the large intestine that includes the sigmoid colon and rectum.", "preferredTerm": "Rectosigmoid Colon", "submissionValue": "COLON, RECTOSIGMOID"}, {"conceptId": "C12383", "definition": "The proximal segment of the large intestine that is located in the right side of the abdominal cavity. It includes the cecum (with the attached appendix) and the ascending colon. (NCI)", "preferredTerm": "Right Colon", "submissionValue": "COLON, RIGHT", "synonyms": ["Right Colon"]}, {"conceptId": "C12384", "definition": "The portion of the colon that connects to the descending colon above and the rectum below. (NCI)", "preferredTerm": "Sigmoid Colon", "submissionValue": "COLON, SIGMOID", "synonyms": ["Sigmoid Colon"]}, {"conceptId": "C12267", "definition": "The bend at the junction of the transverse and descending colon.", "preferredTerm": "Splenic Flexure", "submissionValue": "COLON, SPLENIC FLEXURE", "synonyms": ["Left Colic Flexure", "Splenic Flexure"]}, {"conceptId": "C12385", "definition": "The third division of the colon (large intestine). It communicates with the ascending colon in the upper right-hand quadrant of the abdomen and the descending colon in the upper left-hand quadrant. (NCI)", "preferredTerm": "Transverse Colon", "submissionValue": "COLON, TRANSVERSE", "synonyms": ["Transverse Colon"]}, {"conceptId": "C164003", "definition": "The mucosal membranes that line the inner surface of the colon.", "preferredTerm": "Colonic Mucosa", "submissionValue": "COLONIC MUCOSA"}, {"conceptId": "C12698", "definition": "A duct that conveys bile from the convergence of the cystic and hepatic duct to the duodenum.", "preferredTerm": "Common Bile Duct", "submissionValue": "COMMON BILE DUCT", "synonyms": ["Common Duct", "Common Hepatic Duct"]}, {"conceptId": "C32354", "definition": "An artery arising from the external iliac artery at the inguinal ligament which bifurcates forming the deep and superficial femoral arteries.", "preferredTerm": "Common Femoral Artery", "submissionValue": "COMMON FEMORAL ARTERY"}, {"conceptId": "C154771", "definition": "A vein that accompanies the common femoral artery and originates at the confluence of the femoral vein and the deep femoral vein.", "preferredTerm": "Common Femoral Vein", "submissionValue": "COMMON FEMORAL VEIN"}, {"conceptId": "C32357", "definition": "An artery arising from the bifurcation of the abdominal aorta which then bifurcates forming the internal and external iliac arteries.", "preferredTerm": "Common Iliac Artery", "submissionValue": "COMMON ILIAC ARTERY"}, {"conceptId": "C103384", "definition": "A lymph node located adjacent to the common iliac artery. (NCI)", "preferredTerm": "Common Iliac Lymph Node", "submissionValue": "COMMON ILIAC LYMPH NODE"}, {"conceptId": "C52744", "definition": "Any of the arteries arising from the superficial palmar arch which run distally on the second, third and fourth lumbricals muscles to the interdigital clefts where each artery then separates into two proper palmar digital arteries.", "preferredTerm": "Common Palmar Digital Artery", "submissionValue": "COMMON PALMAR DIGITAL ARTERY"}, {"conceptId": "C12341", "definition": "A thin tissue divided into the palpebral conjunctiva (covering the inner side of the eye lid) and the bulbar conjunctiva (covering the eyeball). (NCI)", "preferredTerm": "Conjunctiva", "submissionValue": "CONJUNCTIVA"}, {"conceptId": "C12342", "definition": "The transparent, avascular tissue covering the front of the eye and is continuous with the sclera.", "preferredTerm": "Cornea", "submissionValue": "CORNEA"}, {"conceptId": "C12707", "definition": "The endothelial layer of the cornea.", "preferredTerm": "Corneal Endothelium", "submissionValue": "CORNEAL ENDOTHELIUM"}, {"conceptId": "C12928", "definition": "The epithelial layer of the cornea.", "preferredTerm": "Corneal Epithelium", "submissionValue": "CORNEAL EPITHELIUM"}, {"conceptId": "C12699", "definition": "The stromal layer of the cornea.", "preferredTerm": "Corneal Stroma", "submissionValue": "CORNEAL STROMA"}, {"conceptId": "C12843", "definition": "One of the arteries of the heart; in general it arises from the aortic root and supplies the myocardium.", "preferredTerm": "Coronary Artery", "submissionValue": "CORONARY ARTERY"}, {"conceptId": "C32089", "definition": "A left coronary artery branch that descends on the anterior portion of the heart through the anterior interventricular groove. (NCI)", "preferredTerm": "Anterior Descending Coronary Artery", "submissionValue": "CORONARY ARTERY, ANTERIOR DESCENDING", "synonyms": ["Anterior Descending Coronary Artery", "Left Anterior Descending Coronary Artery"]}, {"conceptId": "C12872", "definition": "A coronary artery that arises from the aorta and bifurcates into the left anterior descending artery and the left circumflex artery. (NCI)", "preferredTerm": "Left Coronary Artery", "submissionValue": "CORONARY ARTERY, LEFT", "synonyms": ["Left Coronary Artery", "Left Main Coronary Artery", "Left Main Coronary Artery Segment", "LM"]}, {"conceptId": "C12875", "definition": "A coronary artery that originates above the right coronary cusp and supplies blood predominantly to the right side of the heart. (NCI)", "preferredTerm": "Right Coronary Artery", "submissionValue": "CORONARY ARTERY, RIGHT", "synonyms": ["Right Coronary Artery"]}, {"conceptId": "C32378", "definition": "The coronary vein that terminates in the right atrium and transports deoxygenated blood from the coronary circulation.", "preferredTerm": "Coronary Sinus", "submissionValue": "CORONARY SINUS"}, {"conceptId": "C12882", "definition": "A blood vessel in the heart which returns coronary blood to the right atrium.", "preferredTerm": "Coronary Vein", "submissionValue": "CORONARY VEIN"}, {"conceptId": "C12446", "definition": "A white matter structure within the brain that connects the left and right cerebral hemispheres.", "preferredTerm": "Corpus Callosum", "submissionValue": "CORPUS CALLOSUM"}, {"conceptId": "C32216", "definition": "An area within the corpus callosum between the genu (anterior region) and the splenium (posterior region).", "preferredTerm": "Body of the Corpus Callosum", "submissionValue": "CORPUS CALLOSUM, BODY"}, {"conceptId": "C32675", "definition": "The anterior portion of the corpus callosum that bends down and back.", "preferredTerm": "Genu of the Corpus Callosum", "submissionValue": "CORPUS CALLOSUM, GENU"}, {"conceptId": "C33610", "definition": "The thick, convex posterior region of the corpus callosum.", "preferredTerm": "Splenium of the Corpus Callosum", "submissionValue": "CORPUS CALLOSUM, SPLENIUM"}, {"conceptId": "C26465", "definition": "A group of cells that remain of the Graafian follicle following ovulation. This structure is composed of endocrine tissue and produces progesterone. This is needed to prepare the uterine lining for implantation by the fertilized egg. (NCI)", "preferredTerm": "Corpus Luteum", "submissionValue": "CORPUS LUTEUM", "synonyms": ["Corpus Luteum"]}, {"conceptId": "C12448", "definition": "The portion of the brain consisting of the neostriatum and globus pallidus.", "preferredTerm": "Corpus Striatum", "submissionValue": "CORPUS STRIATUM"}, {"conceptId": "C12316", "definition": "The body of the uterus.", "preferredTerm": "Corpus Uteri", "submissionValue": "CORPUS UTERI", "synonyms": ["Uterine Body", "Uterus, Corpus"]}, {"conceptId": "C163511", "definition": "A muscle of the face, in general extending from the medial superciliary arch to the skin above the middle of the supraorbital margins; primary function is to move the eyebrows.", "preferredTerm": "Corrugator Supercilii Muscle", "submissionValue": "CORRUGATOR SUPERCILII MUSCLE"}, {"conceptId": "C32391", "definition": "The cartilage positioned between the anterior end of the rib and the sternum. Its elasticity allows the ribcage to expand while breathing. (NCI)", "preferredTerm": "Costal Cartilage", "submissionValue": "COSTAL CARTILAGE", "synonyms": ["Costal Cartilage"]}, {"conceptId": "C102288", "definition": "The first hyaline cartilaginous joint between the ribs and costal cartilage.", "preferredTerm": "Costochondral Joint 1", "submissionValue": "COSTOCHONDRAL JOINT 1"}, {"conceptId": "C102289", "definition": "The seventh hyaline cartilaginous joint between the ribs and costal cartilage.", "preferredTerm": "Costochondral Joint 7", "submissionValue": "COSTOCHONDRAL JOINT 7"}, {"conceptId": "C77638", "definition": "The space that is formed by the bones of the skull, and contains the brain.", "preferredTerm": "Cranial Cavity", "submissionValue": "CRANIAL CAVITY", "synonyms": ["Intracranial Cavity"]}, {"conceptId": "C12700", "definition": "Any of the 12 paired nerves that originate in the brain stem. (NCI)", "preferredTerm": "Cranial Nerve", "submissionValue": "CRANIAL NERVE"}, {"conceptId": "C32414", "definition": "A bone on the lateral side of the tarsus between the calcaneus and the fourth and fifth metatarsal bones. (NCI)", "preferredTerm": "Cuboid Bone", "submissionValue": "CUBOID BONE", "synonyms": ["Cuboid Bone"]}, {"conceptId": "C32446", "definition": "The muscle that creates the rounded contour of the shoulder which originates from the lateral third of the clavicle, the superior surface of the acromion process, and the posterior border of the spine of the scapula and inserts on the lateral side of the shaft of the humerus. (NCI)", "preferredTerm": "Deltoid", "submissionValue": "DELTOID MUSCLE"}, {"conceptId": "C174321", "definition": "The curved or bowlike structure formed by the arrangement of teeth within the jaw.", "preferredTerm": "Dental Arch", "submissionValue": "DENTAL ARCH"}, {"conceptId": "C186109", "definition": "Dermal projection on the face, generally associated with whiskers. (Makris S, Solomon HM, Clark R, Shiota K, Barbellion S, Buschmann J, Ema M, Fujiwara M, Grote K, Hazelden KP, Hew KW, Horimoto M, Ooshima Y, Parkinson M, Wise LD. Terminology of developmental abnormalities in common laboratory mammals (Version 2). Part B. Birth Defects Res B Dev Reprod Toxicol. 2009 Aug;86(4):227-327.)", "preferredTerm": "Dermal Papillae Of The Face", "submissionValue": "DERMAL PAPILLAE OF THE FACE"}, {"conceptId": "C32455", "definition": "The portion of the aorta distal to the aortic arch which passes into the chest and abdomen to create the thoracic and abdominal segments.", "preferredTerm": "Descending Aorta", "submissionValue": "DESCENDING AORTA"}, {"conceptId": "C12702", "definition": "A musculotendinous sheet separating the thoracic cavity from the abdominal cavity.", "preferredTerm": "Diaphragm", "submissionValue": "DIAPHRAGM"}, {"conceptId": "C132391", "definition": "Lymph node located adjacent to the diaphragm.", "preferredTerm": "Diaphragmatic Lymph Node", "submissionValue": "DIAPHRAGMATIC LYMPH NODE"}, {"conceptId": "C40186", "definition": "The most distal structure of the limb, usually containing claws or nails and pads.", "preferredTerm": "Digit", "submissionValue": "DIGIT"}, {"conceptId": "C177918", "definition": "A type of artery that supplies blood to the fingers and toes. In the hand, the digital arteries include the common palmar digital arteries that arise from the superficial palmar arch, the proper palmar digital arteries that are branches of the common palmar digital arteries and occasionally have dorsal branches distal to the proximal interphalangeal joints, and the dorsal digital arteries that are branches of the dorsal metacarpal arteries. In the foot, the digital arteries include the plantar digital arteries that arise from the plantar arch and the dorsal digital arteries that are branches of the dorsal metatarsal arteries. (NCI)", "preferredTerm": "Digital Artery", "submissionValue": "DIGITAL ARTERY"}, {"conceptId": "C102290", "definition": "The segment of the left circumflex artery that is between the second and third obtuse marginal branches.", "preferredTerm": "Distal Circumflex Artery", "submissionValue": "DISTAL CIRCUMFLEX ARTERY", "synonyms": ["DCIRC", "DISTAL CIRCUMFLEX ARTERY SEGMENT"]}, {"conceptId": "C60801", "definition": "The portion of the common bile duct that is closest to the intestine and furthest from the hepatic and cystic ducts.", "preferredTerm": "Distal Common Bile Duct", "submissionValue": "DISTAL COMMON BILE DUCT"}, {"conceptId": "C174320", "definition": "The area of the body that extends from where the cystic duct meets the common bile duct to the common bile duct's insertion into the small intestine.", "preferredTerm": "Distal Extrahepatic Bile Duct Region", "submissionValue": "DISTAL EXTRAHEPATIC BILE DUCT REGION"}, {"conceptId": "C139208", "definition": "The portion of the distal femur, identified during a dual x-ray absorptiometry (DXA) scan, that contains primarily metaphyseal or trabecular bone.", "preferredTerm": "Distal Femur R1", "submissionValue": "DISTAL FEMUR R1"}, {"conceptId": "C114198", "definition": "A ginglymoid (hinge) synovial joint within the second digit of the foot articulating the middle and distal phalanges. (NCI)", "preferredTerm": "Distal Interphalangeal Joint 2 of the Foot", "submissionValue": "DISTAL INTERPHALANGEAL JOINT 2 OF THE FOOT", "synonyms": ["DIP2 of the Foot"]}, {"conceptId": "C114188", "definition": "A ginglymoid (hinge) synovial joint within the second digit of the hand articulating the middle and distal phalanges. (NCI)", "preferredTerm": "Distal Interphalangeal Joint 2 of the Hand", "submissionValue": "DISTAL INTERPHALANGEAL JOINT 2 OF THE HAND", "synonyms": ["DIP2 of the Hand"]}, {"conceptId": "C102291", "definition": "A condyloid synovial joint within the second digit of the hand or foot articulating the middle and distal phalanges. (NCI)", "preferredTerm": "Distal Interphalangeal Joint 2", "submissionValue": "DISTAL INTERPHALANGEAL JOINT 2", "synonyms": ["DIP2"]}, {"conceptId": "C114199", "definition": "A ginglymoid (hinge) synovial joint within the third digit of the foot articulating the middle and distal phalanges. (NCI)", "preferredTerm": "Distal Interphalangeal Joint 3 of the Foot", "submissionValue": "DISTAL INTERPHALANGEAL JOINT 3 OF THE FOOT", "synonyms": ["DIP3 of the Foot"]}, {"conceptId": "C114189", "definition": "A ginglymoid (hinge) synovial joint within the third digit of the hand articulating the middle and distal phalanges. (NCI)", "preferredTerm": "Distal Interphalangeal Joint 3 of the Hand", "submissionValue": "DISTAL INTERPHALANGEAL JOINT 3 OF THE HAND", "synonyms": ["DIP3 of the Hand"]}, {"conceptId": "C102292", "definition": "A condyloid synovial joint within the third digit of the hand or foot articulating the middle and distal phalanges. (NCI)", "preferredTerm": "Distal Interphalangeal Joint 3", "submissionValue": "DISTAL INTERPHALANGEAL JOINT 3", "synonyms": ["DIP3"]}, {"conceptId": "C114275", "definition": "A ginglymoid (hinge) synovial joint within the fourth digit of the foot articulating the middle and distal phalanges. (NCI)", "preferredTerm": "Distal Interphalangeal Joint 4 of the Foot", "submissionValue": "DISTAL INTERPHALANGEAL JOINT 4 OF THE FOOT", "synonyms": ["DIP4 of the Foot"]}, {"conceptId": "C114273", "definition": "A ginglymoid (hinge) synovial joint within the fourth digit of the hand articulating the middle and distal phalanges. (NCI)", "preferredTerm": "Distal Interphalangeal Joint 4 of the Hand", "submissionValue": "DISTAL INTERPHALANGEAL JOINT 4 OF THE HAND", "synonyms": ["DIP4 of the Hand"]}, {"conceptId": "C102293", "definition": "A condyloid synovial joint within the fourth digit of the hand or foot articulating the middle and distal phalanges. (NCI)", "preferredTerm": "Distal Interphalangeal Joint 4", "submissionValue": "DISTAL INTERPHALANGEAL JOINT 4", "synonyms": ["DIP4"]}, {"conceptId": "C114276", "definition": "A ginglymoid (hinge) synovial joint within the fifth digit of the foot articulating the middle and distal phalanges. (NCI)", "preferredTerm": "Distal Interphalangeal Joint 5 of the Foot", "submissionValue": "DISTAL INTERPHALANGEAL JOINT 5 OF THE FOOT", "synonyms": ["DIP5 of the Foot"]}, {"conceptId": "C114274", "definition": "A ginglymoid (hinge) synovial joint within the fifth digit of the hand articulating the middle and distal phalanges. (NCI)", "preferredTerm": "Distal Interphalangeal Joint 5 of the Hand", "submissionValue": "DISTAL INTERPHALANGEAL JOINT 5 OF THE HAND", "synonyms": ["DIP5 of the Hand"]}, {"conceptId": "C102294", "definition": "A condyloid synovial joint within the fifth digit of the hand or foot articulating the middle and distal phalanges. (NCI)", "preferredTerm": "Distal Interphalangeal Joint 5", "submissionValue": "DISTAL INTERPHALANGEAL JOINT 5", "synonyms": ["DIP5"]}, {"conceptId": "C102295", "definition": "The segment of the left anterior descending (LAD) artery that is distal to the third diagonal branch.", "preferredTerm": "Distal Left Anterior Descending Artery", "submissionValue": "DISTAL LAD ARTERY", "synonyms": ["DISTAL LAD ARTERY SEGMENT", "DLAD"]}, {"conceptId": "C139190", "definition": "The bone that forms the tip of the second finger, as counted from the thenar side of the hand.", "preferredTerm": "Hand Digit 2 Distal Phalanx", "submissionValue": "DISTAL PHALANX 2 OF THE HAND"}, {"conceptId": "C139191", "definition": "The bone that forms the tip of the third finger, as counted from the thenar side of the hand.", "preferredTerm": "Hand Digit 3 Distal Phalanx", "submissionValue": "DISTAL PHALANX 3 OF THE HAND"}, {"conceptId": "C139192", "definition": "The bone that forms the tip of the fourth finger, as counted from the thenar side of the hand.", "preferredTerm": "Hand Digit 4 Distal Phalanx", "submissionValue": "DISTAL PHALANX 4 OF THE HAND"}, {"conceptId": "C139193", "definition": "The bone that forms the tip of the fifth finger, as counted from the thenar side of the hand.", "preferredTerm": "Hand Digit 5 Distal Phalanx", "submissionValue": "DISTAL PHALANX 5 OF THE HAND"}, {"conceptId": "C139194", "definition": "The articulation of the distal head of the ulna bone and the ulnar notch of the radius.", "preferredTerm": "Distal Radioulnar Joint", "submissionValue": "DISTAL RADIOULNAR JOINT"}, {"conceptId": "C102296", "definition": "The section of the right coronary artery distal to the origin of the acute marginal artery.", "preferredTerm": "Distal Right Coronary Artery Conduit", "submissionValue": "DISTAL RIGHT CORONARY ARTERY CONDUIT", "synonyms": ["DISTAL RIGHT CORONARY ARTERY CONDUIT SEGMENT", "DRCA"]}, {"conceptId": "C106042", "definition": "Lymph node(s) that is distant to the anatomic region of interest.", "preferredTerm": "Distant Lymph Node", "submissionValue": "DISTANT LYMPH NODE"}, {"conceptId": "C12934", "definition": "A brain nucleus located in the medulla oblongata. (NCI)", "preferredTerm": "Dorsal Motor Nucleus", "submissionValue": "DORSAL MOTOR NUCLEUS"}, {"conceptId": "C32478", "definition": "An artery of the dorsal surface of the foot, originating from the anterior tibial artery of the lower leg. The following arterial branches originate from the dorsalis pedis artery: the arcuate artery of the foot and deep plantar artery. (NCI)", "preferredTerm": "Dorsalis Pedis Artery", "submissionValue": "DORSALIS PEDIS ARTERY", "synonyms": ["Dorsal Pedal Artery", "Dorsalis Pedis Artery"]}, {"conceptId": "C52854", "definition": "An embryonic blood vessel that allows blood to bypass the lungs by connecting the pulmonary artery and the proximal descending aorta.", "preferredTerm": "Ductus Arteriosus", "submissionValue": "DUCTUS ARTERIOSUS"}, {"conceptId": "C12263", "definition": "The portion of the small intestine between the stomach and jejunum.", "preferredTerm": "Duodenum", "submissionValue": "DUODENUM"}, {"conceptId": "C32488", "definition": "The outermost, toughest, and most fibrous of the three membranes (meninges) that surround and protect the brain and spinal cord. (NCI)", "preferredTerm": "Dura Mater", "submissionValue": "DURA MATER"}, {"conceptId": "C102627", "definition": "Venous channels within the dura mater of the brain which receives both blood from blood vessels within the brain as well as cerebrospinal fluid then drains into the internal jugular vein. Unlike other blood vessels, dural venous sinuses lack valves and other vessel associated layers.", "preferredTerm": "Dural Venous Sinus", "submissionValue": "DURAL VENOUS SINUS"}, {"conceptId": "C12394", "definition": "A sensory organ that contains auditory and vestibular apparatuses.", "preferredTerm": "Ear", "submissionValue": "EAR"}, {"conceptId": "C12499", "definition": "The innermost portion of the ear that contains the vestibule, cochlea and semicircular canals.", "preferredTerm": "Inner Ear", "submissionValue": "EAR, INNER", "synonyms": ["Internal Ear", "Labyrinth"]}, {"conceptId": "C12292", "definition": "The external part of the ear. (NCI)", "preferredTerm": "External Ear", "submissionValue": "EAR, OUTER", "synonyms": ["Auricle", "External Ear", "Pinna"]}, {"conceptId": "C32999", "definition": "The soft fleshy portion of the lower external ear composed of areolar and adipose connective tissues. (NCI)", "preferredTerm": "Lobule of the Auricle", "submissionValue": "EARLOBE"}, {"conceptId": "C163512", "definition": "A group of two muscles in the upper extremity, the triceps brachii and anconeus; primary function is to straighten the arm at the elbow joint.", "preferredTerm": "Elbow Extensors", "submissionValue": "ELBOW EXTENSOR MUSCLES"}, {"conceptId": "C163513", "definition": "A group of three muscles in the upper extremity, the brachialis, biceps brachii, and the brachioradialis; primary function is to bend the arm at the elbow joint.", "preferredTerm": "Elbow Flexors", "submissionValue": "ELBOW FLEXOR MUSCLES"}, {"conceptId": "C32497", "definition": "A joint involving the humerus, radius and ulna bones.", "preferredTerm": "Elbow Joint", "submissionValue": "ELBOW JOINT", "synonyms": ["Elbow", "Elbow Joint"]}, {"conceptId": "C13004", "definition": "The layer of endothelial cells and connective tissue lining the chambers of the heart. (NCI)", "preferredTerm": "Endocardium", "submissionValue": "ENDOCARDIUM"}, {"conceptId": "C12309", "definition": "The portion of the cervix which is lined by single columnar epithelium (mucosa). (NCI)", "preferredTerm": "Endocervix", "submissionValue": "ENDOCERVIX"}, {"conceptId": "C32514", "definition": "A space inside the uterus lined by a layer of mucous membranes called the endometrium.", "preferredTerm": "Endometrial Cavity", "submissionValue": "ENDOMETRIAL CAVITY", "synonyms": ["Endometrial Cavity"]}, {"conceptId": "C12313", "definition": "The mucous membrane comprising the inner layer of the uterine wall.", "preferredTerm": "Endometrium", "submissionValue": "ENDOMETRIUM"}, {"conceptId": "C97338", "definition": "A brain region in the medial temporal lobe near the hippocampus. (NCI)", "preferredTerm": "Entorhinal Cortex", "submissionValue": "ENTORHINAL CORTEX"}, {"conceptId": "C13164", "definition": "The outer membranous connective tissue layer of the heart tissue. (NCI)", "preferredTerm": "Epicardium", "submissionValue": "EPICARDIUM"}, {"conceptId": "C69300", "definition": "A bone prominence to which ligaments and tendons of the joints are attached. (NCI)", "preferredTerm": "Epicondyle", "submissionValue": "EPICONDYLE", "synonyms": ["Epicondyle"]}, {"conceptId": "C12328", "definition": "A crescent-like structure located adjacent to the testis. It consists of a single highly coiled duct and is divided into 3 regions: caput (head), corpus (body) and cauda (tail).", "preferredTerm": "Epididymis", "submissionValue": "EPIDIDYMIS"}, {"conceptId": "C41449", "definition": "The body space between the dura mater and the walls of the vertebral canal.", "preferredTerm": "Epidural Spinal Canal Space", "submissionValue": "EPIDURAL SPACE"}, {"conceptId": "C139195", "definition": "A parietal lymph node located along the inferior epigastric vessels.", "preferredTerm": "Epigastric Lymph Node", "submissionValue": "EPIGASTRIC LYMPH NODE"}, {"conceptId": "C32525", "definition": "The most superior, central area of the abdomen, lying immediately superior to the umbilicus and bounded laterally by the costal margins.", "preferredTerm": "Epigastric Region", "submissionValue": "EPIGASTRIC REGION"}, {"conceptId": "C12709", "definition": "A small cartilagenous flap-like valve that closes over the larynx during swallowing to prevent food entering the lungs. (NCI)", "preferredTerm": "Epiglottis", "submissionValue": "EPIGLOTTIS", "synonyms": ["Epiglottis"]}, {"conceptId": "C98182", "definition": "A lymph node located above and adjacent to the elbow. (NCI)", "preferredTerm": "Epitrochlear Lymph Node", "submissionValue": "EPITROCHLEAR LYMPH NODE"}, {"conceptId": "C139196", "definition": "Any lymph node located near the esophagus, including cervical, and upper, middle, and lower thoracic lymph nodes.", "preferredTerm": "Esophageal Lymph Node", "submissionValue": "ESOPHAGEAL LYMPH NODE"}, {"conceptId": "C32538", "definition": "The mucosal membranes that line the inner surface of the esophagus.", "preferredTerm": "Esophageal Mucosa", "submissionValue": "ESOPHAGEAL MUCOSA"}, {"conceptId": "C12389", "definition": "The portion of the digestive tract between the pharynx and stomach.", "preferredTerm": "Esophagus", "submissionValue": "ESOPHAGUS"}, {"conceptId": "C12252", "definition": "Clinical esophageal segment composed of smooth muscle. It corresponds to the inferior part of the lower third topographic segment of the esophagus. (NCI)", "preferredTerm": "Abdominal Esophagus", "submissionValue": "ESOPHAGUS, ABDOMINAL", "synonyms": ["Abdominal Esophagus"]}, {"conceptId": "C12250", "definition": "Clinical esophageal segment composed of skeletal muscle. It corresponds to the superior part of the upper third topographic segment of the esophagus. (NCI)", "preferredTerm": "Cervical Esophagus", "submissionValue": "ESOPHAGUS, CERVICAL", "synonyms": ["Cervical Esophagus"]}, {"conceptId": "C12255", "definition": "The lower one third of the esophagus in which the muscle layer is composed of muscle cells predominantly of the smooth type. (NCI)", "preferredTerm": "Lower Third of the Esophagus", "submissionValue": "ESOPHAGUS, LOWER THIRD", "synonyms": ["Lower Third of the Esophagus"]}, {"conceptId": "C12254", "definition": "The middle one third of the esophagus in which the muscle layer is composed of muscle cells of the striated and smooth types.", "preferredTerm": "Middle Third of the Esophagus", "submissionValue": "ESOPHAGUS, MIDDLE THIRD", "synonyms": ["Middle Third of the Esophagus"]}, {"conceptId": "C12251", "definition": "Clinical esophageal segment composed of smooth muscle. It includes the middle third topographic segment, as well as parts of the upper and lower thirds. (NCI)", "preferredTerm": "Thoracic Esophagus", "submissionValue": "ESOPHAGUS, THORACIC", "synonyms": ["Thoracic Esophagus"]}, {"conceptId": "C12253", "definition": "The upper one third of esophagus in which the muscle layer is composed of muscle cells of the striated type. (NCI)", "preferredTerm": "Upper Third of the Esophagus", "submissionValue": "ESOPHAGUS, UPPER THIRD", "synonyms": ["Upper Third of the Esophagus"]}, {"conceptId": "C12711", "definition": "A light and spongy bone that is cubical in shape. This bone is positioned at the anterior part of the cranium, sitting between the two orbits, at the roof of the nose. It consists of four parts: a horizontal or cribriform plate; a perpendicular plate; and two lateral masses or labyrinths. (NCI)", "preferredTerm": "Ethmoid Bone", "submissionValue": "ETHMOID BONE", "synonyms": ["Ethmoid Bone"]}, {"conceptId": "C12276", "definition": "A sinus of the meatuses of the nasal cavity. (NCI)", "preferredTerm": "Ethmoid Sinus", "submissionValue": "ETHMOID SINUS", "synonyms": ["Ethmoid Sinus"]}, {"conceptId": "C186110", "definition": "The lateral portions of the occipital bone lying on either side of the foramen magnum; it is present during fetal development and later fuses with the occipital bone.", "preferredTerm": "Exoccipital Bone", "submissionValue": "EXOCCIPITAL BONE"}, {"conceptId": "C187833", "definition": "A group of two muscles of the hand, the extensor carpi radialis brevis and extensor carpi radialis longus. Primary function is radial extension and abduction or deviation of the wrist.", "preferredTerm": "Extensor Carpi Radialis Muscles", "submissionValue": "EXTENSOR CARPI RADIALIS MUSCLES"}, {"conceptId": "C52914", "definition": "A muscle of the wrist, in general extending from the humeral and ulnar heads to the base of the fifth metacarpal bone; primary function is to extend and abduct the wrist toward the ulna.", "preferredTerm": "Extensor Carpi Ulnaris", "submissionValue": "EXTENSOR CARPI ULNARIS MUSCLE"}, {"conceptId": "C186111", "definition": "A muscle of the forearm, in general extending from the lateral epicondyle of the humerus to the extensor expansion of the fifth digit; primary function is to extend the fifth digit at the metacarpophalangeal joint.", "preferredTerm": "Extensor Digiti Minimi Muscle", "submissionValue": "EXTENSOR DIGITI MINIMI MUSCLE"}, {"conceptId": "C163514", "definition": "A muscle in the foot, in general extending from the superolateral surface of the anterior calcaneus to the lateral sides of the tendons of extensor digitorum longus on the second, third and fourth toes; primary function is to extend the second, third and fourth toes.", "preferredTerm": "Extensor Digitorum Brevis Muscle", "submissionValue": "EXTENSOR DIGITORUM BREVIS MUSCLE"}, {"conceptId": "C52918", "definition": "A muscle extending from the lateral surface of the tibia to the digits; primary function is the extension of the digits and flexion of the tarsal joint.", "preferredTerm": "Extensor Digitorum Longus", "submissionValue": "EXTENSOR DIGITORUM LONGUS MUSCLE", "synonyms": ["Long Digital Extensor Muscle"]}, {"conceptId": "C52916", "definition": "A muscle of the hand, in general extending from the lateral epicondyle of the humerus to the base of the proximal, middle, and distal phalanges; primary function is to extend the fingers.", "preferredTerm": "Extensor Digitorum Communis", "submissionValue": "EXTENSOR DIGITORUM MUSCLE"}, {"conceptId": "C163515", "definition": "A muscle in the foot, in general extending from the superior surface of the anterior calcaneus to the dorsal surface of the base of the proximal phalanx of the big toe; primary function is to extend the big toe.", "preferredTerm": "Extensor Hallucis Brevis Muscle", "submissionValue": "EXTENSOR HALLUCIS BREVIS MUSCLE"}, {"conceptId": "C186112", "definition": "A muscle of the lower leg, in general extending from the middle third of the medial surface of the fibula and the adjacent interosseous membrane to the base and dorsal center of the distal phalanx of the great toe; primary function is to extend the big toe and dorsiflex the ankle.", "preferredTerm": "Extensor Hallucis Longus Muscle", "submissionValue": "EXTENSOR HALLUCIS LONGUS MUSCLE"}, {"conceptId": "C186113", "definition": "A muscle of the forearm, in general extending from the posterior surface of the ulna to the base of the second proximal phalanx and the tendon of the extensor digitorum muscle; primary function is to extend the second digit at metacarpophalangeal and interphalangeal joints.", "preferredTerm": "Extensor Indicis Proprius Muscle", "submissionValue": "EXTENSOR INDICIS PROPRIUS MUSCLE"}, {"conceptId": "C186114", "definition": "A muscle of the forearm, in general extending from the posterior surface of the distal third of the radius and the adjacent interosseous membrane to the posterior surface of the base of the proximal phalanx of the thumb; primary function is to extend the thumb at the carpometacarpal and metacarpophalangeal joints.", "preferredTerm": "Extensor Pollicis Brevis Muscle", "submissionValue": "EXTENSOR POLLICIS BREVIS MUSCLE"}, {"conceptId": "C186115", "definition": "A muscle of the forearm, in general extending from the posterior surface of the middle third of the ulna and the adjacent interosseous membrane to the posterior surface of the base of the distal phalanx of the thumb; primary function is to extend the thumb at the metacarpophalangeal and interphalangeal joints and extend and abduct the wrist joint.", "preferredTerm": "Extensor Pollicis Longus Muscle", "submissionValue": "EXTENSOR POLLICIS LONGUS MUSCLE"}, {"conceptId": "C12498", "definition": "A tubular structure that runs from the outer ear to the tympanic membrane.", "preferredTerm": "External Acoustic Meatus", "submissionValue": "EXTERNAL ACOUSTIC MEATUS", "synonyms": ["Auditory Canal", "Ear Canal", "External Acoustic Meatus", "External Auditory Canal", "External Auditory Meatus"]}, {"conceptId": "C32558", "definition": "An artery arising from the bifurcation of the common iliac artery in the lower torso. The external iliac artery becomes the femoral artery and is the main blood supply for the leg.", "preferredTerm": "External Iliac Artery", "submissionValue": "EXTERNAL ILIAC ARTERY"}, {"conceptId": "C88143", "definition": "A lymph node located along the external iliac artery. (NCI)", "preferredTerm": "External Iliac Lymph Node", "submissionValue": "EXTERNAL ILIAC LYMPH NODE"}, {"conceptId": "C165584", "definition": "A lymph node that is located outside of the abdominal wall.", "preferredTerm": "Extra-Abdominal Lymph Node", "submissionValue": "EXTRAABDOMINAL LYMPH NODE"}, {"conceptId": "C32573", "definition": "The portion of the biliary tract outside the liver; the common hepatic duct joins the cystic duct to form the common bile duct. (NCI)", "preferredTerm": "Extrahepatic Bile Duct", "submissionValue": "EXTRAHEPATIC BILE DUCT"}, {"conceptId": "C174319", "definition": "The area of the body where the right and left hepatic ducts exit the liver and join to form the common hepatic duct that is proximal to the origin of the cystic duct. (PDQ)", "preferredTerm": "Extrahepatic Perihilar Bile Duct Region", "submissionValue": "EXTRAHEPATIC PERIHILAR BILE DUCT REGION"}, {"conceptId": "C33199", "definition": "A group of muscles in the orbit extending from the posterior orbit to the eye and upper eyelid; primary function is the movement of the eye and retraction of the upper eyelid.", "preferredTerm": "Extraocular Muscle", "submissionValue": "EXTRAOCULAR MUSCLE", "synonyms": ["Oculomotor Muscle"]}, {"conceptId": "C176325", "definition": "The external protuberance of the eyeball beneath the eyelid. (Makris S, Solomon HM, Clark R, Shiota K, Barbellion S, Buschmann J, Ema M, Fujiwara M, Grote K, Hazelden KP, Hew KW, Horimoto M, Ooshima Y, Parkinson M, Wise LD. Terminology of developmental abnormalities in common laboratory mammals (Version 2). Part B. Birth Defects Res B Dev Reprod Toxicol. 2009 Aug;86(4):227-327.)", "preferredTerm": "Eye Bulge", "submissionValue": "EYE BULGE"}, {"conceptId": "C12401", "definition": "The sensory organ of vision.", "preferredTerm": "Eye", "submissionValue": "EYE", "synonyms": ["Eyeball"]}, {"conceptId": "C12667", "definition": "The space in the eye filled with aqueous humor and bounded by the cornea, a small portion of the sclera, a small portion of the ciliary body, the iris and lens. (Cline et al., Dictionary of Visual Science, 4th ed, p109)", "preferredTerm": "Anterior Chamber of the Eye", "submissionValue": "EYE, ANTERIOR CHAMBER"}, {"conceptId": "C12668", "definition": "The front part of the eye, which is posteriorly bordered by posterior surfaces of the posterior lens capsule, lens zonules, and ciliary body; it includes the cornea, conjunctiva, lacrimal gland, tear film, iris, lens, ciliary body, anterior portion of the sclera, and anterior chamber.", "preferredTerm": "Anterior Eye Segment", "submissionValue": "EYE, ANTERIOR SEGMENT"}, {"conceptId": "C33885", "definition": "The largest space within the eye which is bounded by the lens and the retina and filled with the gelatinous vitreous humor. (NCI)", "preferredTerm": "Vitreous Chamber", "submissionValue": "EYE, VITREOUS CHAMBER", "synonyms": ["Postremal Chamber"]}, {"conceptId": "C32575", "definition": "The arched strip of hairs (supercilia) on the brow ridge (supercilium) above each eye socket.", "preferredTerm": "Eyebrow", "submissionValue": "EYEBROW"}, {"conceptId": "C32576", "definition": "Anyone of the short hairs that grow on the edge of the eyelid. (NCI)", "preferredTerm": "Eyelash", "submissionValue": "EYELASH"}, {"conceptId": "C12713", "definition": "The section of skin, containing muscle and conjunctiva, that covers and protects the eye.", "preferredTerm": "Eyelid", "submissionValue": "EYELID", "synonyms": ["Palpebra"]}, {"conceptId": "C13071", "definition": "The portion of the head that contains the structures such as the eyes, nose, mouth, and jaws.", "preferredTerm": "Face", "submissionValue": "FACE"}, {"conceptId": "C32577", "definition": "A synovial joint between two adjacent vertebrae. The facet joint links the articular process of one vertebra and the inferior articular process of the adjacent vertebra. (NCI)", "preferredTerm": "Facet Joint", "submissionValue": "FACET JOINT", "synonyms": ["Facet Joint"]}, {"conceptId": "C63706", "definition": "Any bone that contributes to the facial structures, except those bones that are part of the braincase. (NCI)", "preferredTerm": "Facial Bone", "submissionValue": "FACIAL BONE", "synonyms": ["Facial Bone"]}, {"conceptId": "C13073", "definition": "Any of the muscles of the face that are supplied by the facial nerve and control facial expressions.", "preferredTerm": "Facial Muscle", "submissionValue": "FACIAL MUSCLE", "synonyms": ["Mimetic Muscles"]}, {"conceptId": "C12714", "definition": "A cranial nerve extending from the brain stem between the pons and medulla, which innervates the facial muscles, glands and the tongue.", "preferredTerm": "Facial Nerve", "submissionValue": "FACIAL NERVE", "synonyms": ["Seventh Cranial Nerve"]}, {"conceptId": "C32582", "definition": "A fold of tissue consisting of two layers of peritoneum extending from the notch of the anterior margin of the liver to the anterior abdominal wall and diaphragm.", "preferredTerm": "Falciform Ligament", "submissionValue": "FALCIFORM LIGAMENT"}, {"conceptId": "C12403", "definition": "The tube through which eggs pass from an ovary.", "preferredTerm": "Fallopian Tube", "submissionValue": "FALLOPIAN TUBE", "synonyms": ["Fallopian Tube"]}, {"conceptId": "C13108", "definition": "A sheet or band of fibrous connective tissue enveloping, separating, or binding together muscles, organs and other soft structures of the body.", "preferredTerm": "Fascia", "submissionValue": "FASCIA"}, {"conceptId": "C176326", "definition": "Encapsulated adipose tissue within the body.", "preferredTerm": "Fat Pad", "submissionValue": "FAT PAD"}, {"conceptId": "C181454", "definition": "The anatomical opening formed by the arch of the hard palate at the back of the mouth, where the oral cavity and pharynx meet.", "preferredTerm": "Oropharyngeal Isthmus", "submissionValue": "FAUCES", "synonyms": ["Isthmus of Fauces", "Oropharyngeal Isthmus"]}, {"conceptId": "C61600", "definition": "Female internal and external organs of reproduction.", "preferredTerm": "Female Genitalia", "submissionValue": "FEMALE GENITALIA", "synonyms": ["Female Genitalia"]}, {"conceptId": "C12402", "definition": "The sex organs of the female.", "preferredTerm": "Female Reproductive System", "submissionValue": "FEMALE REPRODUCTIVE SYSTEM"}, {"conceptId": "C12715", "definition": "An artery of the thigh; in general it arises from the external iliac artery distal to the inguinal ligment and continues as the popliteal artery.", "preferredTerm": "Femoral Artery", "submissionValue": "FEMORAL ARTERY"}, {"conceptId": "C114186", "definition": "The rounded bony projection at the distal end of the femur.", "preferredTerm": "Femoral Condyle", "submissionValue": "FEMORAL CONDYLE"}, {"conceptId": "C32718", "definition": "The highest portion of the femoral bone that articulates with the acetabulum. (NCI)", "preferredTerm": "Head of the Femur", "submissionValue": "FEMORAL HEAD", "synonyms": ["Femur Head"]}, {"conceptId": "C98183", "definition": "A lymph node located in the upper inner portion of the thigh. (NCI)", "preferredTerm": "Femoral Lymph Node", "submissionValue": "FEMORAL LYMPH NODE"}, {"conceptId": "C61563", "definition": "The short, constricted portion of the thigh bone between the femur head and the trochanter. (NCI)", "preferredTerm": "Femoral Neck", "submissionValue": "FEMORAL NECK", "synonyms": ["Femoral Neck"]}, {"conceptId": "C12716", "definition": "A vein of the thigh; in general it arises from the popliteal vein and drains into the external iliac vein.", "preferredTerm": "Femoral Vein", "submissionValue": "FEMORAL VEIN"}, {"conceptId": "C116167", "definition": "The segment of the blood vessels that includes the popliteal artery and its origin from the femoral artery.", "preferredTerm": "Femoropopliteal Artery Segment", "submissionValue": "FEMORO-POPLITEAL PERIPHERAL ARTERY"}, {"conceptId": "C96209", "definition": "The cylindrical body of the femur. (NCI)", "preferredTerm": "Femoral Shaft", "submissionValue": "FEMUR SHAFT"}, {"conceptId": "C12717", "definition": "The bone positioned between the pelvis and the femorotibial joint.", "preferredTerm": "Femur", "submissionValue": "FEMUR", "synonyms": ["Bone, Femoral"]}, {"conceptId": "C120670", "definition": "The elongated bony body of the fibula.", "preferredTerm": "Fibular Shaft", "submissionValue": "FIBULA SHAFT"}, {"conceptId": "C12718", "definition": "The long bone that is lateral to the tibia.", "preferredTerm": "Fibula", "submissionValue": "FIBULA"}, {"conceptId": "C154772", "definition": "A vein that arises from the plantar veins of the foot, accompanies the peroneal artery, and travels up the back of the leg to join the anterior and posterior tibial veins in forming the popliteal vein on the posterior surface of the knee.", "preferredTerm": "Fibular Vein", "submissionValue": "FIBULAR VEIN"}, {"conceptId": "C163516", "definition": "A group of six muscles in the upper extremity, the abductor pollicis longus, extensor pollicis brevis, extensor pollicis longus, extensor indicis, extensor digitorum, and extensor digiti minimi muscles; primary function is to straighten the fingers to open the hand.", "preferredTerm": "Finger Extensors", "submissionValue": "FINGER EXTENSOR MUSCLES"}, {"conceptId": "C161384", "definition": "The tendons located on the dorsal side of the fingers that connect muscles of the forearm and hand to bones in the fingers, enabling extension of the fingers. (NCI)", "preferredTerm": "Finger Extensor Tendons", "submissionValue": "FINGER EXTENSOR TENDONS"}, {"conceptId": "C163517", "definition": "A group of three muscles in the upper extremity, the flexor digitorum superficialis, flexor digitorum profundus, and flexor pollicis longus muscles; primary function is to bend the fingers.", "preferredTerm": "Finger Flexors", "submissionValue": "FINGER FLEXOR MUSCLES"}, {"conceptId": "C161383", "definition": "The tendons located on the palm side of the fingers that connect the flexor muscles of the forearm and hand to bones in the fingers, enabling flexion towards the palm. (NCI)", "preferredTerm": "Finger Flexor Tendons", "submissionValue": "FINGER FLEXOR TENDONS"}, {"conceptId": "C32608", "definition": "Any of the digits of the hand. (NCI)", "preferredTerm": "Finger", "submissionValue": "FINGER", "synonyms": ["Finger"]}, {"conceptId": "C32609", "definition": "The nail at the end of a finger. (NCI)", "preferredTerm": "Fingernail", "submissionValue": "FINGERNAIL", "synonyms": ["Fingernail"]}, {"conceptId": "C187834", "definition": "The most distal end of the finger, beyond the nail bed.", "preferredTerm": "Fingertip", "submissionValue": "FINGERTIP"}, {"conceptId": "C102297", "definition": "The first artery arising from the left anterior descending (LAD) artery that supplies the anterolateral wall, when counted from proximal to distal.", "preferredTerm": "First Diagonal Branch Artery", "submissionValue": "FIRST DIAGONAL BRANCH ARTERY", "synonyms": ["1ST DIAG", "FIRST DIAGONAL BRANCH ARTERY SEGMENT"]}, {"conceptId": "C139197", "definition": "A dorsal interosseous muscle of the foot that originates on the lateral side of the first metatarsal and the medial side of the second metatarsal, and inserts into the medial side of the base of the proximal phalanx of the second toe.", "preferredTerm": "First Dorsal Interosseous Muscle of the Foot", "submissionValue": "FIRST DORSAL INTEROSSEOUS MUSCLE OF THE FOOT"}, {"conceptId": "C139198", "definition": "A dorsal interosseous muscle of the hand that originates on the proximal half of the lateral border of the index metacarpal and the full length of the medial border of the thumb metacarpal, and inserts into the lateral side of the index finger.", "preferredTerm": "First Dorsal Interosseous Muscle of the Hand", "submissionValue": "FIRST DORSAL INTEROSSEOUS MUSCLE OF THE HAND"}, {"conceptId": "C102298", "definition": "In an individual with a left-dominant heart, this is the first branch that arises from the circumflex artery atrioventricular groove continuation when counted from proximal to distal. It supplies the posterolateral wall.", "preferredTerm": "First Left Posterolateral Branch Artery", "submissionValue": "FIRST LEFT POSTEROLATERAL BRANCH ARTERY", "synonyms": ["1ST LPL", "FIRST LEFT POSTEROLATERAL BRANCH ARTERY SEGMENT"]}, {"conceptId": "C102299", "definition": "The first artery arising from the left circumflex artery that supplies the lateral wall, when counted from proximal to distal.", "preferredTerm": "First Obtuse Marginal Branch Artery", "submissionValue": "FIRST OBTUSE MARGINAL BRANCH ARTERY", "synonyms": ["1ST OM", "FIRST OBTUSE MARGINAL BRANCH ARTERY SEGMENT"]}, {"conceptId": "C102300", "definition": "In an individual with a right-dominant heart, this is the first branch that arises from the right coronary artery distal to the right posterior descending artery, when counted from proximal to distal.", "preferredTerm": "First Right Posterolateral Artery", "submissionValue": "FIRST RIGHT POSTEROLATERAL ARTERY", "synonyms": ["1ST RPL", "FIRST RIGHT POSTEROLATERAL ARTERY SEGMENT"]}, {"conceptId": "C93028", "definition": "The region on either side of the body that extends from the last rib to the hip.", "preferredTerm": "Flank", "submissionValue": "FLANK"}, {"conceptId": "C53155", "definition": "A muscle in the forearm running from the head of the humerus to the radial side of the wrist that flexes and radially abducts the hand. (NCI)", "preferredTerm": "Flexor Carpi Radialis", "submissionValue": "FLEXOR CARPI RADIALIS MUSCLE"}, {"conceptId": "C53156", "definition": "A muscle in the forearm running from the humeral and ulnar heads to the ulnar side of the wrist that flexes and abducts the hand toward the ulna. (NCI)", "preferredTerm": "Flexor Carpi Ulnaris", "submissionValue": "FLEXOR CARPI ULNARIS MUSCLE"}, {"conceptId": "C163518", "definition": "A muscle in the foot, in general extending from the medial process of the posterior calcaneal tuberosity to the borders of the middle phalanx of the four lateral toes; primary function is flexion of the four lateral toes and support of the medial and lateral longitudinal arches.", "preferredTerm": "Flexor Digitorum Brevis Muscle", "submissionValue": "FLEXOR DIGITORUM BREVIS MUSCLE"}, {"conceptId": "C52921", "definition": "A muscle in the leg/hindlimb and foot/hindpaw, in general extending from the tibia to the phalanges; primary function is to flex the digits.", "preferredTerm": "Flexor Digitorum Longus", "submissionValue": "FLEXOR DIGITORUM LONGUS MUSCLE"}, {"conceptId": "C52923", "definition": "A muscle in the forearm beginning at the head of the ulna and ending with four tendons projecting to the second, third, fourth, and fifth fingers which flexes the midcarpal, metacarpophalangeal and interphalangeal joints. (NCI)", "preferredTerm": "Flexor Digitorum Profundus", "submissionValue": "FLEXOR DIGITORUM PROFUNDUS MUSCLE"}, {"conceptId": "C150850", "definition": "A muscle in the forearm, in general extending from the humeroulnar and radial heads of the forearm to the middle phalanges of the second through fifth digits of the hand; primary function is flexion of the fingers at the proximal interphalangeal joints.", "preferredTerm": "Flexor Digitorum Superficialis Muscle", "submissionValue": "FLEXOR DIGITORUM SUPERFICIALIS MUSCLE"}, {"conceptId": "C165998", "definition": "A muscle in the foot, in general extending from the plantar surface of the cuboid bone to the medial and lateral sesamoid bones at the base of the proximal phalanx of the big toe; primary function is flexion of the big toe and the support of the medial longitudinal arch.", "preferredTerm": "Flexor Hallucis Brevis Muscle", "submissionValue": "FLEXOR HALLUCIS BREVIS MUSCLE"}, {"conceptId": "C52925", "definition": "A muscle in the leg and foot, in general extending from the fibula to the distal surface of the big toe phalanx; primary function is to flex the big toe.", "preferredTerm": "Flexor Hallucis Longus", "submissionValue": "FLEXOR HALLUCIS LONGUS MUSCLE"}, {"conceptId": "C186116", "definition": "A muscle of the hand, whose superficial head extends from the flexor retinaculum and tubercle of the trapezium bone and deep head that extends from the trapezoid and capitate bones, extending to the lateral side of the base of the proximal phalanx of the thumb; primary function is to flex the thumb at the metacarpophalangeal joint.", "preferredTerm": "Flexor Pollicis Brevis Muscle", "submissionValue": "FLEXOR POLLICIS BREVIS MUSCLE"}, {"conceptId": "C150851", "definition": "A muscle in the forearm, in general extending from the anterior surface of the radius and interosseous membrane to the palmar aspect of the base of the distal phalanx of the thumb; primary function is flexion of the thumb.", "preferredTerm": "Flexor Pollicis Longus Muscle", "submissionValue": "FLEXOR POLLICIS LONGUS MUSCLE"}, {"conceptId": "C54187", "definition": "The area of the mouth under the ventral surface of the tongue.", "preferredTerm": "Floor of Mouth", "submissionValue": "FLOOR OF MOUTH"}, {"conceptId": "C32621", "definition": "The membrane-covered space between the skull bones of a neonate or fetus where ossification is not complete and sutures are not fully formed.", "preferredTerm": "Fontanelle", "submissionValue": "FONTANELLE", "synonyms": ["Fontanel", "Soft Spot"]}, {"conceptId": "C52839", "definition": "The largest and most medial toe of the foot. (NCI)", "preferredTerm": "Foot Digit 1", "submissionValue": "FOOT DIGIT 1", "synonyms": ["Big Toe"]}, {"conceptId": "C52840", "definition": "The second toe from the medial side of the foot. (NCI)", "preferredTerm": "Foot Digit 2", "submissionValue": "FOOT DIGIT 2", "synonyms": ["Index Toe"]}, {"conceptId": "C52841", "definition": "The middle or third toe from the medial side of the foot. (NCI)", "preferredTerm": "Foot Digit 3", "submissionValue": "FOOT DIGIT 3", "synonyms": ["Middle Toe"]}, {"conceptId": "C52842", "definition": "The fourth toe from the medial side of the foot. (NCI)", "preferredTerm": "Foot Digit 4", "submissionValue": "FOOT DIGIT 4", "synonyms": ["Fourth Toe"]}, {"conceptId": "C52843", "definition": "The smallest and most lateral toe of the foot. (NCI)", "preferredTerm": "Foot Digit 5", "submissionValue": "FOOT DIGIT 5", "synonyms": ["Little Toe"]}, {"conceptId": "C52772", "definition": "A bone of the foot. (NCI)", "preferredTerm": "Foot Phalanx", "submissionValue": "FOOT PHALANX", "synonyms": ["Foot Phalanx"]}, {"conceptId": "C32622", "definition": "The entire structure distal to the ankle joint/tarsus, which includes the metatarsus and digit(s).", "preferredTerm": "Foot", "submissionValue": "FOOT"}, {"conceptId": "C186117", "definition": "A group of muscles in the ankle, the brachioradialis, pronator teres, pronator quadratus, and flexor carpi radialis muscles; primary function is to rotate the forearm so that the palm faces downward when the arm is extended at a right angle to the body.", "preferredTerm": "Forearm Pronator Muscles", "submissionValue": "FOREARM PRONATOR MUSCLES"}, {"conceptId": "C32628", "definition": "The structure on the upper limb, between the elbow and the wrist. (NCI)", "preferredTerm": "Forearm", "submissionValue": "FOREARM", "synonyms": ["Forearm"]}, {"conceptId": "C40185", "definition": "The largest part of the brain composed of the cerebral hemispheres, thalamus, hypothalamus, and the limbic system. (NCI)", "preferredTerm": "Forebrain", "submissionValue": "FOREBRAIN"}, {"conceptId": "C89803", "definition": "The part of the face between the eyebrows and the normal hairline.", "preferredTerm": "Forehead", "submissionValue": "FOREHEAD", "synonyms": ["Forehead"]}, {"conceptId": "C176321", "definition": "The anterior, front or upper limb of an animal.", "preferredTerm": "Fore Limb", "submissionValue": "FORELIMB"}, {"conceptId": "C186118", "definition": "Any of the bones that make up the digits of the forepaw.", "preferredTerm": "Forepaw Phalanx", "submissionValue": "FOREPAW PHALANX", "synonyms": ["Forepaw Phalange"]}, {"conceptId": "C33049", "definition": "A fold of skin covering the tip of the penis.", "preferredTerm": "Male Prepuce", "submissionValue": "FORESKIN", "synonyms": ["Male Prepuce"]}, {"conceptId": "C26463", "definition": "Area consisting of a small depression in the retina containing only cones and where vision is most acute.", "preferredTerm": "Fovea Centralis", "submissionValue": "FOVEA", "synonyms": ["Fovea Centralis"]}, {"conceptId": "C32635", "definition": "A bone of the skull forming the front part of the skull, root of the nose, and the roof of both orbits.", "preferredTerm": "Frontal Bone", "submissionValue": "FRONTAL BONE"}, {"conceptId": "C12352", "definition": "The part of the brain located anterior to the parietal lobes at the front of each cerebral hemisphere. (NCI)", "preferredTerm": "Frontal Lobe", "submissionValue": "FRONTAL LOBE", "synonyms": ["Frontal Lobe"]}, {"conceptId": "C12277", "definition": "The paired, mucosal lined air spaces located above the orbit and communicating with the nasal passages. (NCI)", "preferredTerm": "Frontal Sinus", "submissionValue": "FRONTAL SINUS", "synonyms": ["Frontal Sinus"]}, {"conceptId": "C186119", "definition": "A muscle of the forehead, in general extending from the galea aponeurotica at the top of the skull to the skin around the eyebrows and the top of the nose; primary function is to raise the eyebrows.", "preferredTerm": "Frontalis Muscle", "submissionValue": "FRONTALIS MUSCLE"}, {"conceptId": "C135172", "definition": "The portion of the interior of the eye that includes the sensory retina, the optic disc, and the macula.", "preferredTerm": "Eye Fundus", "submissionValue": "FUNDUS OF THE EYE"}, {"conceptId": "C12257", "definition": "The blind sac region of the glandular stomach.", "preferredTerm": "Fundus of the Stomach", "submissionValue": "FUNDUS OF THE STOMACH"}, {"conceptId": "C12315", "definition": "The upper, rounded portion of the uterus that is opposite from the cervix.", "preferredTerm": "Fundus Uteri", "submissionValue": "FUNDUS UTERI"}, {"conceptId": "C12377", "definition": "A sac-like organ located adjacent to the liver that stores and concentrates bile produced by the liver.", "preferredTerm": "Gallbladder", "submissionValue": "GALLBLADDER"}, {"conceptId": "C12719", "definition": "A cluster of nervous tissue principally composed of neuronal cell bodies external to the central nervous system (CNS). (NCI)", "preferredTerm": "Ganglion", "submissionValue": "GANGLION", "synonyms": ["Ganglia", "Ganglion", "Neural Ganglion"]}, {"conceptId": "C12256", "definition": "The region of the stomach adjacent to the esophogastric junction.", "preferredTerm": "Gastric Cardia", "submissionValue": "GASTRIC CARDIA"}, {"conceptId": "C154773", "definition": "Lymph node(s) located between the two layers of the greater omentum, either superiorly along the cardiac half of the lesser curvature of the stomach or inferiorly along the pyloric half of the greater curvature of the stomach.", "preferredTerm": "Gastric Curvature Lymph Node", "submissionValue": "GASTRIC CURVATURE LYMPH NODE"}, {"conceptId": "C32656", "definition": "The mucosal membranes that line the inner surface of the stomach.", "preferredTerm": "Gastric Mucosa", "submissionValue": "GASTRIC MUCOSA", "synonyms": ["Stomach Mucosa"]}, {"conceptId": "C32666", "definition": "A bipennate muscle extending from the femoral condyles to the calcaneus; primary function is the extension of the tarsal joint and flexion of the femorotibial joint.", "preferredTerm": "Gastrocnemius Muscle", "submissionValue": "GASTROCNEMIUS MUSCLE"}, {"conceptId": "C163519", "definition": "One of two heads of the gastrocnemius muscle, in general originating from the lateral femoral condyle.", "preferredTerm": "Lateral Head of Gastrocnemius Muscle", "submissionValue": "GASTROCNEMIUS MUSCLE, LATERAL HEAD"}, {"conceptId": "C163520", "definition": "One of two heads of the gastrocnemius muscle, in general originating from the medial femoral condyle.", "preferredTerm": "Medial Head of Gastrocnemius Muscle", "submissionValue": "GASTROCNEMIUS MUSCLE, MEDIAL HEAD"}, {"conceptId": "C32668", "definition": "The anatomical location where the esophagus joins to the stomach. (NCI)", "preferredTerm": "Gastroesophageal Junction", "submissionValue": "GASTROESOPHAGEAL JUNCTION", "synonyms": ["Gastroesophageal Junction"]}, {"conceptId": "C12378", "definition": "The system that includes the esophagus, stomach, small and large intestine, anus, liver, biliary tract, and pancreas. (NCI)", "preferredTerm": "Digestive System", "submissionValue": "GASTROINTESTINAL SYSTEM", "synonyms": ["Gastrointestinal System"]}, {"conceptId": "C34082", "definition": "The upper gastrointestinal (GI) tract is comprised of mouth, pharynx, esophagus and stomach while the lower GI tract consists of intestines and anus. The primary function of the GI tract is to ingest, digest, absorb and ultimately excrete food stuff. (NCI)", "preferredTerm": "Gastrointestinal Tract", "submissionValue": "GASTROINTESTINAL TRACT", "synonyms": ["Gastrointestinal Tract"]}, {"conceptId": "C33010", "definition": "The lower part of the gastrointestinal tract that includes the jejunum and ileum of the small intestine and the large intestine. (NCI)", "preferredTerm": "Lower Gastrointestinal Tract", "submissionValue": "GASTROINTESTINAL TRACT, LOWER", "synonyms": ["Lower Gastrointestinal Tract"]}, {"conceptId": "C176241", "definition": "The portion of the gastrointestinal tract wall that surrounds the cavities of the duodenum, jejunum, ileum, colon, rectum, and anus.", "preferredTerm": "Lower Gastrointestinal Tract Wall", "submissionValue": "GASTROINTESTINAL TRACT, LOWER, WALL"}, {"conceptId": "C33837", "definition": "The upper part of the gastrointestinal tract that includes the esophagus, stomach, and duodenum. (NCI)", "preferredTerm": "Upper Gastrointestinal Tract", "submissionValue": "GASTROINTESTINAL TRACT, UPPER", "synonyms": ["Upper Gastrointestinal Tract"]}, {"conceptId": "C176314", "definition": "The portion of the gastrointestinal tract wall that surrounds the cavities of the esophagus and stomach. The proximal duodenum is also sometimes considered part of the upper gastrointestinal tract.", "preferredTerm": "Upper Gastrointestinal Tract Wall", "submissionValue": "GASTROINTESTINAL TRACT, UPPER, WALL"}, {"conceptId": "C176233", "definition": "The multiple layers of specialized tissue that surround the cavity of the gastrointestinal tract, including the mucosa, submucosa, muscular layers, and serosa.", "preferredTerm": "Gastrointestinal Tract Wall", "submissionValue": "GASTROINTESTINAL TRACT, WALL"}, {"conceptId": "C52928", "definition": "A muscle of the tongue, in general extending from the mental spine of the mandible to the hyoid bone at the bottom of the tongue; primary function is to depress and protrude the tongue.", "preferredTerm": "Genioglossus", "submissionValue": "GENIOGLOSSUS MUSCLE"}, {"conceptId": "C176324", "definition": "A protruding body of tissue that forms in the ventral caudal region during embryonic development.", "preferredTerm": "Genital Tubercle", "submissionValue": "GENITAL TUBERCLE"}, {"conceptId": "C25177", "definition": "The external sex organs. (NCI)", "preferredTerm": "Genitalia", "submissionValue": "GENITALIA"}, {"conceptId": "C12810", "definition": "The body system that includes all organs involved in reproduction and in the formation and voidance of urine.", "preferredTerm": "Genitourinary System", "submissionValue": "GENITOURINARY SYSTEM"}, {"conceptId": "C32677", "definition": "The soft tissue surrounding the neck of individual teeth as well as covering the alveolar bone. The tissue is fibrous and continuous with the periodontal ligament and mucosal covering. (NCI)", "preferredTerm": "Gingiva", "submissionValue": "GINGIVA", "synonyms": ["Gum"]}, {"conceptId": "C139199", "definition": "The portion of the oral mucosa that surrounds the cervical aspect of teeth and the alveolar process of the jaw.", "preferredTerm": "Gingival Mucosa", "submissionValue": "GINGIVAL MUCOSA"}, {"conceptId": "C32682", "definition": "The trough in the head of the scapula that receives the head of the humerus to form the shoulder joint. (NCI)", "preferredTerm": "Glenoid Fossa", "submissionValue": "GLENOID FOSSA", "synonyms": ["Glenoid Fossa"]}, {"conceptId": "C12449", "definition": "Paired nuclei at the base of the forebrain that, along with the putamen, form the lentiform nucleus of the basal ganglia.", "preferredTerm": "Globus Pallidus", "submissionValue": "GLOBUS PALLIDUS"}, {"conceptId": "C13250", "definition": "A cluster of convoluted capillaries beginning at each nephric tubule in the kidney and held together by connective tissue.", "preferredTerm": "Glomerulus", "submissionValue": "GLOMERULUS"}, {"conceptId": "C12723", "definition": "The ninth cranial nerve.", "preferredTerm": "Glossopharyngeal Nerve", "submissionValue": "GLOSSOPHARYNGEAL NERVE"}, {"conceptId": "C12724", "definition": "The space in which the vocal cords are located. (NCI)", "preferredTerm": "Glottis", "submissionValue": "GLOTTIS", "synonyms": ["Glottis"]}, {"conceptId": "C128630", "definition": "The anterior surface of the glottic opening, located within the larynx, that constitutes the junction of the conus elasticus and the thyroepiglottic, vestibular, and vocal ligaments.", "preferredTerm": "Laryngeal Anterior Commissure", "submissionValue": "GLOTTIS, ANTERIOR COMMISSURE", "synonyms": ["Laryngeal Anterior Commissure"]}, {"conceptId": "C164282", "definition": "The posterior surface of the glottic opening at the level of the vocal cords.", "preferredTerm": "Laryngeal Posterior Commissure", "submissionValue": "GLOTTIS, POSTERIOR COMMISSURE", "synonyms": ["Laryngeal Posterior Commissure"]}, {"conceptId": "C78205", "definition": "A group of three muscles (gluteus maximus, gluteus medius, gluteus minimus) extending from the ilium and sacrum to the femur; primary function is extension and abduction of the hip joint.", "preferredTerm": "Gluteal Muscle", "submissionValue": "GLUTEAL MUSCLE"}, {"conceptId": "C52560", "definition": "The outermost and largest muscle of the buttocks. (NCI)", "preferredTerm": "Gluteus Maximus", "submissionValue": "GLUTEUS MAXIMUS"}, {"conceptId": "C52933", "definition": "A muscle of the hip and buttock, in general extending from the gluteal surface of the ilium to the lateral aspect of the greater trochanter of the femur; primary function is to abduct and rotate the thigh.", "preferredTerm": "Gluteus Medius", "submissionValue": "GLUTEUS MEDIUS"}, {"conceptId": "C12725", "definition": "A reproductive organ that produces gametes.", "preferredTerm": "Gonad", "submissionValue": "GONAD"}, {"conceptId": "C52935", "definition": "A muscle in the thigh, in general extending from the lower half of the symphysis pubis and the upper half of the pubic arch to the upper part of the medial surface of the tibia; primary function is to adduct the thigh, rotate the leg/hindlimb medially and flex the knee.", "preferredTerm": "Gracilis", "submissionValue": "GRACILIS MUSCLE"}, {"conceptId": "C33004", "definition": "A long superficial vein originating from the dorsal vein at the big toe and the dorsal venous arch of the foot and extending up the inner leg to empty into the femoral artery in the groin area.", "preferredTerm": "Long Saphenous Vein", "submissionValue": "GREAT SAPHENOUS VEIN", "synonyms": ["Long Saphenous Vein"]}, {"conceptId": "C32698", "definition": "A large, irregular, quadrilateral area of bone found at the neck of the femur. (NCI)", "preferredTerm": "Great Trochanter", "submissionValue": "GREAT TROCHANTER", "synonyms": ["Great Trochanter"]}, {"conceptId": "C102955", "definition": "Any of the major arteries or veins attached to the cardiac atria or ventricles.", "preferredTerm": "Great Blood Vessel", "submissionValue": "GREAT VESSELS"}, {"conceptId": "C12262", "definition": "The lateral and inferior border of the stomach. Attached to it is the greater omentum. (NCI)", "preferredTerm": "Greater Curvature of the Stomach", "submissionValue": "GREATER CURVATURE OF THE STOMACH", "synonyms": ["Greater Curvature of the Stomach"]}, {"conceptId": "C12936", "definition": "Lymphoid tissue located in the mucosa of the digestive tract.", "preferredTerm": "Gut-Associated Lymphoid Tissue", "submissionValue": "GUT-ASSOCIATED LYMPHOID TISSUE", "synonyms": ["GALT"]}, {"conceptId": "C32706", "definition": "The lower segment of the hair that circles the dermal papilla and the hair matrix. (NCI)", "preferredTerm": "Hair Bulb", "submissionValue": "HAIR BULB"}, {"conceptId": "C13317", "definition": "A tube-like invagination of the epidermis from which the hair shaft develops and into which the sebaceous glands open; the follicle is lined by a cellular inner and outer root sheath of epidermal origin and is invested with a fibrous sheath derived from the dermis. (NCI)", "preferredTerm": "Hair Follicle", "submissionValue": "HAIR FOLLICLE"}, {"conceptId": "C32711", "definition": "The portion of the hair that is enclosed within the hair follicle. (NCI)", "preferredTerm": "Hair Root", "submissionValue": "HAIR ROOT"}, {"conceptId": "C33543", "definition": "The segment of the hair that projects above the skin surface. (NCI)", "preferredTerm": "Shaft of the Hair", "submissionValue": "HAIR SHAFT", "synonyms": ["Shaft of the Hair"]}, {"conceptId": "C32705", "definition": "The filamentous outgrowth of the epidermis. (NCI)", "preferredTerm": "Hair", "submissionValue": "HAIR", "synonyms": ["Hair"]}, {"conceptId": "C12860", "definition": "The medial bone in the distal row of carpal bones. (NCI)", "preferredTerm": "Hamate Bone", "submissionValue": "HAMATE BONE", "synonyms": ["Hamate Bone"]}, {"conceptId": "C53042", "definition": "A group of three muscles in the lower extremity, the biceps femoris, semimembranosus muscle and semitendinosus muscle; primary function is to extend the hip when the trunk is fixed and flex the knee, and medially rotate the lower leg when the knee is bent.", "preferredTerm": "Hamstring", "submissionValue": "HAMSTRING MUSCLE"}, {"conceptId": "C178000", "definition": "Any of the arteries that supply blood to the thumb; either the ulnopalmar, radiopalmar, ulnodorsal, or radiodorsal digital artery to the thumb, or the princeps pollicis artery.", "preferredTerm": "Hand Digit 1 Artery", "submissionValue": "HAND DIGIT 1 ARTERY", "synonyms": ["Thumb Artery"]}, {"conceptId": "C52834", "definition": "The thick and short hand digit which is next to the index finger in humans. (NCI)", "preferredTerm": "Hand Digit 1", "submissionValue": "HAND DIGIT 1", "synonyms": ["Thumb"]}, {"conceptId": "C177996", "definition": "Any of the arteries that supply blood to the index finger, either the radial artery of the index finger or the ulnar proper digital artery.", "preferredTerm": "Hand Digit 2 Artery", "submissionValue": "HAND DIGIT 2 ARTERY", "synonyms": ["Index Finger Artery"]}, {"conceptId": "C52835", "definition": "The second finger from the radial side of the hand, next to the thumb. (NCI)", "preferredTerm": "Hand Digit 2", "submissionValue": "HAND DIGIT 2", "synonyms": ["Index Finger"]}, {"conceptId": "C177998", "definition": "Any of the arteries that supply blood to the middle finger, either the ulnar or radial proper digital artery.", "preferredTerm": "Hand Digit 3 Artery", "submissionValue": "HAND DIGIT 3 ARTERY", "synonyms": ["Middle Finger Artery"]}, {"conceptId": "C52836", "definition": "The middle or third finger from the radial side of the hand. (NCI)", "preferredTerm": "Hand Digit 3", "submissionValue": "HAND DIGIT 3", "synonyms": ["Middle Finger"]}, {"conceptId": "C177999", "definition": "Any of the arteries that supply blood to the ring finger, either the ulnar or radial proper digital artery.", "preferredTerm": "Hand Digit 4 Artery", "submissionValue": "HAND DIGIT 4 ARTERY", "synonyms": ["Ring Finger Artery"]}, {"conceptId": "C52837", "definition": "The fourth finger from the radial side of the hand. (NCI)", "preferredTerm": "Hand Digit 4", "submissionValue": "HAND DIGIT 4", "synonyms": ["Ring Finger"]}, {"conceptId": "C177997", "definition": "Any of the arteries that supply blood to the little finger, either the ulnar or radial proper digital artery.", "preferredTerm": "Hand Digit 5 Artery", "submissionValue": "HAND DIGIT 5 ARTERY", "synonyms": ["Little Finger Artery"]}, {"conceptId": "C52838", "definition": "The fifth and smallest finger from the radial side of the hand. (NCI)", "preferredTerm": "Hand Digit 5", "submissionValue": "HAND DIGIT 5", "synonyms": ["Little Finger"]}, {"conceptId": "C52771", "definition": "A bone of the hand. (NCI)", "preferredTerm": "Hand Phalanx", "submissionValue": "HAND PHALANX", "synonyms": ["Hand Phalanx"]}, {"conceptId": "C32712", "definition": "The distal portion of the upper extremity. It consists of the carpus, metacarpus, and digits. (NCI)", "preferredTerm": "Hand", "submissionValue": "HAND", "synonyms": ["Hand"]}, {"conceptId": "C12230", "definition": "The part of the roof of the mouth supported by bone.", "preferredTerm": "Hard Palate", "submissionValue": "HARD PALATE"}, {"conceptId": "C12418", "definition": "The area of the body comprising the skull, facial bones and the cervical vertebrae, sinuses, orbits, salivary glands, oral cavity, oropharynx, larynx, thyroid, facial and neck musculature, soft tissue and lymph nodes draining these areas.", "preferredTerm": "Head and Neck", "submissionValue": "HEAD AND NECK"}, {"conceptId": "C32719", "definition": "The upper rounded part of the fibula that articulates with the tibia.", "preferredTerm": "Head of the Fibula", "submissionValue": "HEAD OF THE FIBULA", "synonyms": ["Fibular Head"]}, {"conceptId": "C32720", "definition": "The upper rounded part of the humerus that fits into the glenoid cavity of the scapula. (NCI)", "preferredTerm": "Head of the Humerus", "submissionValue": "HEAD OF THE HUMERUS", "synonyms": ["Head of the Humerus"]}, {"conceptId": "C12419", "definition": "The portion of the body containing the mouth, the brain and multiple sensory organs.", "preferredTerm": "Head", "submissionValue": "HEAD"}, {"conceptId": "C12727", "definition": "A hollow muscular organ which receives the blood from the veins and pumps it into the arteries.", "preferredTerm": "Heart", "submissionValue": "HEART"}, {"conceptId": "C32126", "definition": "The most outer superficial part of the heart which is situated on the left 5th intercostal space. (NCI)", "preferredTerm": "Apex of the Heart", "submissionValue": "HEART, APEX", "synonyms": ["Apex of the Heart"]}, {"conceptId": "C12728", "definition": "The smaller chamber(s) of the heart that receives blood from the peripheral circulation and/or the lungs.", "preferredTerm": "Cardiac Atrium", "submissionValue": "HEART, ATRIUM", "synonyms": ["Cardiac Atrium"]}, {"conceptId": "C48589", "definition": "The superior portion of the heart located opposite to the apical portion. It is formed mainly by the left atrium. (NCI)", "preferredTerm": "Base of the Heart", "submissionValue": "HEART, BASE", "synonyms": ["Base of the Heart"]}, {"conceptId": "C34241", "definition": "An opening between the right and left atria in the fetal heart that allows blood to bypass the lungs and flow directly into the systemic circulation.", "preferredTerm": "Foramen Ovale of the Fetal Heart", "submissionValue": "HEART, FORAMEN OVALE"}, {"conceptId": "C127643", "definition": "A small muscular pouch located in the wall of the left atrium.", "preferredTerm": "Left Atrial Appendage", "submissionValue": "HEART, LEFT ATRIAL APPENDAGE"}, {"conceptId": "C12869", "definition": "The smaller chamber on the left side of the heart, which receives oxygenated blood from the pulmonary veins and pumps it through the left atrioventricular valve into the left ventricle.", "preferredTerm": "Left Atrium", "submissionValue": "HEART, LEFT ATRIUM"}, {"conceptId": "C12871", "definition": "The larger chamber on the left side of the heart, which receives oxygenated blood from the left atrium and pumps it through the aortic valve into the aorta.", "preferredTerm": "Left Ventricle", "submissionValue": "HEART, LEFT VENTRICLE", "synonyms": ["Left Ventricle"]}, {"conceptId": "C127644", "definition": "The structure through which blood flows from the left ventricle into the aortic root.", "preferredTerm": "Left Ventricular Outflow Tract", "submissionValue": "HEART, LEFT VENTRICULAR OUTFLOW TRACT"}, {"conceptId": "C127645", "definition": "The wall of the left ventricle, comprising anterior, inferior, lateral, apical, basal wall; and excluding the interventricular septum.", "preferredTerm": "Left Ventricular Wall", "submissionValue": "HEART, LEFT VENTRICULAR WALL"}, {"conceptId": "C127646", "definition": "A small muscular pouch located in the wall of the right atrium.", "preferredTerm": "Right Atrial Appendage", "submissionValue": "HEART, RIGHT ATRIAL APPENDAGE"}, {"conceptId": "C12868", "definition": "The smaller chamber on the right side of the heart, which receives deoxygenated blood from the body and pumps it through the right atrioventricular valve into the right ventricle.", "preferredTerm": "Right Atrium", "submissionValue": "HEART, RIGHT ATRIUM"}, {"conceptId": "C12870", "definition": "The larger chamber on the right side of the heart, which receives deoxygenated blood from the right atrium and pumps it through the pulmonic valve into the pulmonary arteries.", "preferredTerm": "Right Ventricle", "submissionValue": "HEART, RIGHT VENTRICLE", "synonyms": ["Right Ventricle"]}, {"conceptId": "C127647", "definition": "The lateral segment of the right ventricular wall, excluding the anterior and inferior right ventricular wall.", "preferredTerm": "Right Ventricular Free Wall", "submissionValue": "HEART, RIGHT VENTRICULAR FREE WALL"}, {"conceptId": "C127648", "definition": "The structure through which blood flows from the right ventricle into the pulmonary trunk.", "preferredTerm": "Right Ventricular Outflow Tract", "submissionValue": "HEART, RIGHT VENTRICULAR OUTFLOW TRACT"}, {"conceptId": "C127649", "definition": "The wall of the right ventricle, comprising anterior, inferior, and lateral walls; and excluding the interventricular septum.", "preferredTerm": "Right Ventricular Wall", "submissionValue": "HEART, RIGHT VENTRICULAR WALL"}, {"conceptId": "C49485", "definition": "The tissue in the heart that separates the two atria (atrial septum) and the two ventricles (ventricular septum). (NCI)", "preferredTerm": "Heart Septum", "submissionValue": "HEART, SEPTUM", "synonyms": ["Cardiac Septum"]}, {"conceptId": "C12730", "definition": "The larger chamber(s) of the heart that receives blood from an atrium and pushes it out of the heart into the peripheral circulation and/or the lungs.", "preferredTerm": "Cardiac Ventricle", "submissionValue": "HEART, VENTRICLE", "synonyms": ["Cardiac Ventricle"]}, {"conceptId": "C186120", "definition": "The anatomical space of a cardiac ventricle.", "preferredTerm": "Heart, Ventricular Chamber", "submissionValue": "HEART, VENTRICULAR CHAMBER"}, {"conceptId": "C119295", "definition": "The tissue layers that form the cardiac ventricle. They include myocardium, endocardium, and pericardium. (NCI)", "preferredTerm": "Ventricular Wall of the Heart", "submissionValue": "HEART, VENTRICULAR WALL"}, {"conceptId": "C161381", "definition": "The rounded back part of the foot below the ankle and behind the arch. (NCI)", "preferredTerm": "Heel of the Foot", "submissionValue": "HEEL OF THE FOOT"}, {"conceptId": "C161382", "definition": "The raised part of the palm of the hand that is adjacent to the wrist. (NCI)", "preferredTerm": "Heel of the Hand", "submissionValue": "HEEL OF THE HAND", "synonyms": ["Heel of the Palm"]}, {"conceptId": "C32729", "definition": "An artery arising from the celiac trunk that supplies the liver and branches to form the cystic, gastro-duodenalis and pyloric arteries.", "preferredTerm": "Common Hepatic Artery", "submissionValue": "HEPATIC ARTERY"}, {"conceptId": "C77640", "definition": "Lymph node(s) adjacent to the liver.", "preferredTerm": "Hepatic Lymph Node", "submissionValue": "HEPATIC LYMPH NODE"}, {"conceptId": "C32736", "definition": "The blood vessels that drain blood from the central veins of the liver into the inferior vena cava.", "preferredTerm": "Hepatic Vein", "submissionValue": "HEPATIC VEIN"}, {"conceptId": "C43612", "definition": "The body system that includes the liver, gallbladder, and associated ducts.", "preferredTerm": "Hepatobiliary System", "submissionValue": "HEPATOBILIARY SYSTEM"}, {"conceptId": "C98187", "definition": "A lymph node located in the hilum of the lung within the mediastinum.", "preferredTerm": "Pulmonary Hilar Lymph Node", "submissionValue": "HILAR LYMPH NODE"}, {"conceptId": "C25724", "definition": "Refers to the area associated with the hilum. (NCI)", "preferredTerm": "Hilar", "submissionValue": "HILAR", "synonyms": ["Hilar"]}, {"conceptId": "C77625", "definition": "The posterior, rear or lower limb of an animal.", "preferredTerm": "Hind Limb", "submissionValue": "HINDLIMB"}, {"conceptId": "C186121", "definition": "Any of the bones that make up the digits of the hindpaw.", "preferredTerm": "Hindpaw Phalanx", "submissionValue": "HINDPAW PHALANX", "synonyms": ["Hindpaw Phalange"]}, {"conceptId": "C53039", "definition": "A group of muscles generally extending from the pubis to the femur; primary function is adduction of the thigh.", "preferredTerm": "Adductor Group of the Leg", "submissionValue": "HIP ADDUCTORS"}, {"conceptId": "C186122", "definition": "A group of muscles in the hip, the psoas major, iliacus, rectus femoris, pectineus, and sartorius; primary function is to move the leg or knee towards the torso and bend at the waist.", "preferredTerm": "Hip Flexor Muscles", "submissionValue": "HIP FLEXOR MUSCLES"}, {"conceptId": "C32742", "definition": "A ball-and-socket joint between the head of the femur and the acetabulum. (NCI)", "preferredTerm": "Hip Joint", "submissionValue": "HIP JOINT", "synonyms": ["Coxofemoral Joint", "Hip Joint"]}, {"conceptId": "C64193", "definition": "The lateral prominence of the pelvis from the waist to the thigh. (NCI)", "preferredTerm": "Hip", "submissionValue": "HIP", "synonyms": ["Hip"]}, {"conceptId": "C12444", "definition": "A curved gray matter structure of the cerebrum that is part of the limbic system.", "preferredTerm": "Hippocampus", "submissionValue": "HIPPOCAMPUS"}, {"conceptId": "C114187", "definition": "The bone prominence at the distal end of the humerus to which ligaments and tendons of the joints are attached.", "preferredTerm": "Humeral Epicondyle", "submissionValue": "HUMERAL EPICONDYLE"}, {"conceptId": "C120671", "definition": "The cylindrical, elongated bony body of the humerus.", "preferredTerm": "Humeral Shaft", "submissionValue": "HUMERUS SHAFT"}, {"conceptId": "C12731", "definition": "The bone between the scapulohumeral and humeroulnar joints.", "preferredTerm": "Humerus", "submissionValue": "HUMERUS", "synonyms": ["Bone, Humeral"]}, {"conceptId": "C165999", "definition": "The outer edge of the hymen or hymenal remnants.", "preferredTerm": "Hymenal Ring", "submissionValue": "HYMENAL RING"}, {"conceptId": "C32752", "definition": "A U-shaped bone supporting the tongue. This bone is located at the base of the tongue and is suspended from the tips of the styloid processes of the temporal bones by the stylohyoid ligaments. (NCI)", "preferredTerm": "Hyoid Bone", "submissionValue": "HYOID BONE", "synonyms": ["Hyoid Bone"]}, {"conceptId": "C12732", "definition": "The twelfth cranial nerve.", "preferredTerm": "Hypoglossal Nerve", "submissionValue": "HYPOGLOSSAL NERVE"}, {"conceptId": "C12246", "definition": "The lower part of the pharynx that connects to the esophagus. (NCI)", "preferredTerm": "Hypopharynx", "submissionValue": "HYPOPHARYNX", "synonyms": ["Hypopharynx"]}, {"conceptId": "C12458", "definition": "A small region of the brain composed of multiple nuclei and located underneath the thalamus.", "preferredTerm": "Hypothalamus", "submissionValue": "HYPOTHALAMUS"}, {"conceptId": "C178001", "definition": "The segment of the gastrointestinal tract where the terminal ileum transitions to the cecum, and where the ileocecal sphincter regulates the movement of chyme from the small intestine into the large intestine. (NCI)", "preferredTerm": "Ileocecal Junction", "submissionValue": "ILEOCECAL JUNCTION", "synonyms": ["Ileocecal Region"]}, {"conceptId": "C176318", "definition": "A lymph node located in the ileum.", "preferredTerm": "Ileum Lymph Node", "submissionValue": "ILEUM LYMPH NODE"}, {"conceptId": "C176316", "definition": "The portion of the gastrointestinal tract wall that surrounds the cavity of the ileum and contains collections of lymphatic tissue called Peyer patches, as well as receptors for bile salts and vitamin B12.", "preferredTerm": "Ileum Wall", "submissionValue": "ILEUM WALL"}, {"conceptId": "C12387", "definition": "The portion of the small intestine between the jejunum and large intestine.", "preferredTerm": "Ileum", "submissionValue": "ILEUM"}, {"conceptId": "C33757", "definition": "The most distal section of the ileum that is continuous with the cecum. (NCI)", "preferredTerm": "Terminal Ileum", "submissionValue": "ILEUM, TERMINAL", "synonyms": ["Terminal Ileum"]}, {"conceptId": "C103818", "definition": "A predominate bone structure which borders the ilium wing stretching from the anterior superior iliac spine to the posterior superior iliac spine.", "preferredTerm": "Iliac Crest", "submissionValue": "ILIAC CREST"}, {"conceptId": "C103454", "definition": "The large smooth and concave surface of the ilium. (NCI)", "preferredTerm": "Iliac Fossa", "submissionValue": "ILIAC FOSSA"}, {"conceptId": "C32761", "definition": "Lymph node(s) adjacent to the iliac vessels in the iliosacral region and cranial to the iliofemoral lymph node.", "preferredTerm": "Iliac Lymph Node", "submissionValue": "ILIAC LYMPH NODE"}, {"conceptId": "C12734", "definition": "Veins in the pelvis, which include the common, external and internal iliac veins.", "preferredTerm": "Iliac Vein", "submissionValue": "ILIAC VEIN"}, {"conceptId": "C32764", "definition": "A combination of two muscles found in the thigh, the iliacus and the psoas major, which have different sites of origin but a common insertion on the lesser trochanter of the femur; primary function is flexion of the hip.", "preferredTerm": "Iliopsoas Muscle", "submissionValue": "ILIOPSOAS MUSCLE"}, {"conceptId": "C139207", "definition": "A dense band of avascular, regular connective tissue. It is formed as the union of the superficial and deep layers of the tensor fascia latae, creating a thick band that extends inferiorly, taking its origins from the iliac crest, the tensor fascia latae, and the gluteus maximus, travelling inferiolaterally along the thigh, and inserting on Gerdy's tubercle on the lateral aspect of the tibia. Functionally, the iliotibial band helps to flex, abduct, and medially rotate the femur at the hip joint, and it also helps to stabilize the knee laterally.", "preferredTerm": "Iliotibial Band", "submissionValue": "ILIOTIBIAL BAND"}, {"conceptId": "C32765", "definition": "The broad, dorsal, upper, and widest of the three principal bones composing either half of the pelvis. (NCI)", "preferredTerm": "Ilium", "submissionValue": "ILIUM", "synonyms": ["Ilium"]}, {"conceptId": "C32769", "definition": "A tooth between the canines in either jaw.", "preferredTerm": "Incisor", "submissionValue": "INCISOR"}, {"conceptId": "C32770", "definition": "One of the three bones comprising the middle ear. This anvil-shaped bone is positioned between the malleus and the stapes. (NCI)", "preferredTerm": "Incus", "submissionValue": "INCUS", "synonyms": ["Incus"]}, {"conceptId": "C113695", "definition": "A group of lymph nodes located in the inferior part of the mediastinum. (NCI)", "preferredTerm": "Inferior Mediastinal Lymph Node", "submissionValue": "INFERIOR MEDIASTINAL LYMPH NODE"}, {"conceptId": "C132392", "definition": "The portion of the pubic ramus that lies between the superior pubic ramus and the inferior ramus of the ischium.", "preferredTerm": "Inferior Pubic Ramus", "submissionValue": "INFERIOR PUBIC RAMUS"}, {"conceptId": "C32791", "definition": "A ridge on the outer surface of the temporal lobe below the middle sulcus. (NCI)", "preferredTerm": "Inferior Temporal Gyrus", "submissionValue": "INFERIOR TEMPORAL GYRUS"}, {"conceptId": "C12815", "definition": "A large vein that returns blood from the lower half of the body to the heart.", "preferredTerm": "Inferior Vena Cava", "submissionValue": "INFERIOR VENA CAVA", "synonyms": ["Caudal Vena Cava", "Posterior Vena Cava"]}, {"conceptId": "C63705", "definition": "A lymph node located in the area below the clavicle. (NCI)", "preferredTerm": "Infraclavicular Lymph Node", "submissionValue": "INFRACLAVICULAR LYMPH NODE", "synonyms": ["Infraclavicular Lymph Node", "Subclavicular Lymph Node"]}, {"conceptId": "C116179", "definition": "The portion of the abdominal aorta distal to the renal arteries.", "preferredTerm": "Infrarenal Aortic Segment", "submissionValue": "INFRARENAL AORTA"}, {"conceptId": "C32797", "definition": "A muscle of the rotator cuff, in general extending from the infraspinatus fossa of the scapula to the greater tubercle of the humerus; primary function is to extend and rotate the arm laterally.", "preferredTerm": "Infraspinatus", "submissionValue": "INFRASPINATUS MUSCLE"}, {"conceptId": "C12509", "definition": "The part of the brain below the tentorium cerebellum. (NCI)", "preferredTerm": "Infratentorial Brain", "submissionValue": "INFRATENTORIAL BRAIN"}, {"conceptId": "C32801", "definition": "Lymph node(s) in the inguinal region.", "preferredTerm": "Inguinal Lymph Node", "submissionValue": "INGUINAL LYMPH NODE"}, {"conceptId": "C12726", "definition": "The lower region of the anterior abdominal wall located laterally to the pubic region. (NCI)", "preferredTerm": "Inguinal Region", "submissionValue": "INGUINAL REGION", "synonyms": ["Groin"]}, {"conceptId": "C32278", "definition": "A distinct cerebral lobe positioned in the depth of the Sylvian fissures and overlaid entirely by adjacent regions of the cerebral hemispheres.", "preferredTerm": "Central Lobe", "submissionValue": "INSULAR CORTEX", "synonyms": ["Central Lobe"]}, {"conceptId": "C32818", "definition": "The wall of tissue that separates the right atrium from the left atrium in the heart.", "preferredTerm": "Interatrial Septum", "submissionValue": "INTERATRIAL SEPTUM", "synonyms": ["Atrial Septum", "Heart, Atrial Septum"]}, {"conceptId": "C32845", "definition": "A short thick blood vessel arising from the bifurcation of the common iliac artery with numerous branches that supply the organs, walls and viscera of the pelvis as well as the inner thigh.", "preferredTerm": "Internal Iliac Artery", "submissionValue": "INTERNAL ILIAC ARTERY"}, {"conceptId": "C88142", "definition": "A lymph node located along the internal iliac artery. (NCI)", "preferredTerm": "Internal Iliac Lymph Node", "submissionValue": "INTERNAL ILIAC LYMPH NODE"}, {"conceptId": "C52941", "definition": "An artery of the thoracic wall; in general it arises from the subclavian artery and branches into the musculophrenic and superior epigastric arteries.", "preferredTerm": "Internal Mammary Artery", "submissionValue": "INTERNAL MAMMARY ARTERY"}, {"conceptId": "C32853", "definition": "Lymph node(s) in or adjacent to the mammary gland.", "preferredTerm": "Internal Mammary Lymph Node", "submissionValue": "INTERNAL MAMMARY LYMPH NODE"}, {"conceptId": "C186123", "definition": "A bone of the skull situated between the parietal and supraoccipital bones.", "preferredTerm": "Interparietal Bone", "submissionValue": "INTERPARIETAL BONE"}, {"conceptId": "C114200", "definition": "A ginglymoid (hinge) synovial joint within the first digit of the foot articulating the proximal and distal phalanges. (NCI)", "preferredTerm": "Interphalangeal Joint 1 of the Foot", "submissionValue": "INTERPHALANGEAL JOINT 1 OF THE FOOT", "synonyms": ["IP1 of the Foot"]}, {"conceptId": "C102301", "definition": "A ginglymoid (hinge) synovial joint within the first digit of the hand or foot articulating the proximal and distal phalanges. (NCI)", "preferredTerm": "Interphalangeal Joint 1", "submissionValue": "INTERPHALANGEAL JOINT 1", "synonyms": ["IP1"]}, {"conceptId": "C114201", "definition": "A ginglymoid (hinge) synovial joint between the phalanges of the second digit of the foot. (NCI)", "preferredTerm": "Interphalangeal Joint 2 of the Foot", "submissionValue": "INTERPHALANGEAL JOINT 2 OF THE FOOT", "synonyms": ["IP2 of the Foot"]}, {"conceptId": "C114190", "definition": "A ginglymoid (hinge) synovial joint between the phalanges of the second digit of the hand. (NCI)", "preferredTerm": "Interphalangeal Joint 2 of the Hand", "submissionValue": "INTERPHALANGEAL JOINT 2 OF THE HAND", "synonyms": ["IP2 of the Hand"]}, {"conceptId": "C102302", "definition": "A ginglymoid (hinge) synovial joint between the phalanges of the second digit of the hand or foot. (NCI)", "preferredTerm": "Interphalangeal Joint 2", "submissionValue": "INTERPHALANGEAL JOINT 2", "synonyms": ["IP2"]}, {"conceptId": "C114202", "definition": "A ginglymoid (hinge) synovial joint between the phalanges of the third digit of the foot. (NCI)", "preferredTerm": "Interphalangeal Joint 3 of the Foot", "submissionValue": "INTERPHALANGEAL JOINT 3 OF THE FOOT", "synonyms": ["IP3 of the Foot"]}, {"conceptId": "C114191", "definition": "A ginglymoid (hinge) synovial joint between the phalanges of the third digit of the hand. (NCI)", "preferredTerm": "Interphalangeal Joint 3 of the Hand", "submissionValue": "INTERPHALANGEAL JOINT 3 OF THE HAND", "synonyms": ["IP3 of the Hand"]}, {"conceptId": "C102303", "definition": "A ginglymoid (hinge) synovial joint between the phalanges of the third digit of the hand or foot. (NCI)", "preferredTerm": "Interphalangeal Joint 3", "submissionValue": "INTERPHALANGEAL JOINT 3", "synonyms": ["IP3"]}, {"conceptId": "C114203", "definition": "A ginglymoid (hinge) synovial joint between the phalanges of the fourth digit of the foot. (NCI)", "preferredTerm": "Interphalangeal Joint 4 of the Foot", "submissionValue": "INTERPHALANGEAL JOINT 4 OF THE FOOT", "synonyms": ["IP4 of the Foot"]}, {"conceptId": "C114192", "definition": "A ginglymoid (hinge) synovial joint between the phalanges of the fourth digit of the hand. (NCI)", "preferredTerm": "Interphalangeal Joint 4 of the Hand", "submissionValue": "INTERPHALANGEAL JOINT 4 OF THE HAND", "synonyms": ["IP4 of the Hand"]}, {"conceptId": "C102304", "definition": "A ginglymoid (hinge) synovial joint between the phalanges of the fourth digit of the hand or foot. (NCI)", "preferredTerm": "Interphalangeal Joint 4", "submissionValue": "INTERPHALANGEAL JOINT 4", "synonyms": ["IP4"]}, {"conceptId": "C114204", "definition": "A ginglymoid (hinge) synovial joint between the phalanges of the fifth digit of the foot. (NCI)", "preferredTerm": "Interphalangeal Joint 5 of the Foot", "submissionValue": "INTERPHALANGEAL JOINT 5 OF THE FOOT", "synonyms": ["IP5 of the Foot"]}, {"conceptId": "C114193", "definition": "A ginglymoid (hinge) synovial joint between the phalanges of the fifth digit of the hand. (NCI)", "preferredTerm": "Interphalangeal Joint 5 of the Hand", "submissionValue": "INTERPHALANGEAL JOINT 5 OF THE HAND", "synonyms": ["IP5 of the Hand"]}, {"conceptId": "C102305", "definition": "A ginglymoid (hinge) synovial joint between the phalanges of the fifth digit of the hand or foot. (NCI)", "preferredTerm": "Interphalangeal Joint 5", "submissionValue": "INTERPHALANGEAL JOINT 5", "synonyms": ["IP5"]}, {"conceptId": "C32868", "definition": "The hinge synovial joints between the phalanges of the fingers. (NCI)", "preferredTerm": "Interphalangeal Joint of the Hand", "submissionValue": "INTERPHALANGEAL JOINT OF THE HAND", "synonyms": ["Interphalangeal Joint of the Hand"]}, {"conceptId": "C32867", "definition": "The hinge synovial joints between the bones of the toes. (NCI)", "preferredTerm": "Interphalangeal Joint of the Foot", "submissionValue": "INTERPHALANGEAL OF THE FOOT", "synonyms": ["IP of the Foot"]}, {"conceptId": "C102306", "definition": "A condyloid synovial joint within the thumb articulating the proximal and distal phalanges.", "preferredTerm": "Interphalangeal Thumb Joint", "submissionValue": "INTERPHALANGEAL THUMB JOINT", "synonyms": ["Interphalangeal Joint 1 of the Hand", "IP THUMB", "IP1 of the Hand"]}, {"conceptId": "C120672", "definition": "The bony region in the proximal portion of the femur between the greater, lesser and sub- (also called the third) trochanters.", "preferredTerm": "Intertrochanteric Region", "submissionValue": "INTERTROCHANTERIC REGION"}, {"conceptId": "C32874", "definition": "The wall that separates the left and right ventricles of the heart. (NCI)", "preferredTerm": "Interventricular Septum", "submissionValue": "INTERVENTRICULAR SEPTUM", "synonyms": ["Heart, Ventricular Septum", "Interventricular Septal Wall", "Ventricular Septum"]}, {"conceptId": "C49478", "definition": "The tissue that forms the wall of the small and large intestine.", "preferredTerm": "Intestinal Wall Tissue", "submissionValue": "INTESTINAL WALL"}, {"conceptId": "C12736", "definition": "The portion of the gastrointestinal tract that includes the small and large intestines.", "preferredTerm": "Intestine", "submissionValue": "INTESTINE"}, {"conceptId": "C12677", "definition": "The bile ducts that pass through and drain bile from the liver. (NCI)", "preferredTerm": "Intrahepatic Bile Duct", "submissionValue": "INTRAHEPATIC BILE DUCT"}, {"conceptId": "C96803", "definition": "The larger bile ducts which are located within the liver and drain bile from the smaller peripheral intrahepatic bile ducts into the right and left hepatic ducts.", "preferredTerm": "Intrahepatic Large Bile Duct", "submissionValue": "INTRAHEPATIC LARGE BILE DUCT", "synonyms": ["Perihilar Bile Duct"]}, {"conceptId": "C12359", "definition": "Any lymph node within the thoracic cavity.", "preferredTerm": "Intrathoracic Lymph Node", "submissionValue": "INTRATHORACIC LYMPH NODE"}, {"conceptId": "C12737", "definition": "The tissue in the eye that separates the anterior chamber from the posterior chamber.", "preferredTerm": "Iris", "submissionValue": "IRIS"}, {"conceptId": "C105446", "definition": "The bony prominence of the lower part of the ischium. (NCI)", "preferredTerm": "Ischial Tuberosity", "submissionValue": "ISCHIAL TUBEROSITY"}, {"conceptId": "C103455", "definition": "A tetrahedral region of adipose tissue located in the ischiorectal region with its base between the tuberosity of the ischium and the lower end of the rectum and its apex at the point where the obturator fascia and the Levator ani membrane divide.", "preferredTerm": "Ischiorectal Fossa", "submissionValue": "ISCHIORECTAL FOSSA"}, {"conceptId": "C32884", "definition": "The most posterior and ventral bone making up the pelvis. (NCI)", "preferredTerm": "Ischium", "submissionValue": "ISCHIUM", "synonyms": ["Ischium"]}, {"conceptId": "C48821", "definition": "The structures of the skull that frame the mouth.", "preferredTerm": "Jaw Bone", "submissionValue": "JAW"}, {"conceptId": "C12388", "definition": "The portion of the small intestine between the duodenum and ileum.", "preferredTerm": "Jejunum", "submissionValue": "JEJUNUM"}, {"conceptId": "C13044", "definition": "The connection point between two bones or skeletal elements. The joint may be fixed or movable. (NCI)", "preferredTerm": "Joint", "submissionValue": "JOINT", "synonyms": ["Articulation", "Joint"]}, {"conceptId": "C12738", "definition": "One of the veins of the neck; in general it arises from the junction of the maxillary and linguofacial veins and drains into the brachiocephalic or the cranial caval vein.", "preferredTerm": "Jugular Vein", "submissionValue": "JUGULAR VEIN", "synonyms": ["Vena Jugularis"]}, {"conceptId": "C186124", "definition": "The portion of the kidney that is located between the upper and lower poles and contains the renal hilum.", "preferredTerm": "Kidney Interpolar Region", "submissionValue": "KIDNEY INTERPOLAR REGION"}, {"conceptId": "C12415", "definition": "The organs of the urinary tract located in the retroperitoneal cavity adjacent to the spine and composed of the renal cortex and the renal medulla.", "preferredTerm": "Kidney", "submissionValue": "KIDNEY"}, {"conceptId": "C12739", "definition": "The division of the renal parenchyma located between the renal capsule and the renal medulla, which contains glomeruli and tubules for filtering blood.", "preferredTerm": "Renal Cortex", "submissionValue": "KIDNEY, CORTEX", "synonyms": ["Renal Cortex"]}, {"conceptId": "C32740", "definition": "The concave area of the kidney through which the renal artery enters and the renal vein and ureter exit the organ. (NCI)", "preferredTerm": "Hilar Area of the Kidney", "submissionValue": "KIDNEY, HILUM", "synonyms": ["Hilar Area of the Kidney"]}, {"conceptId": "C93180", "definition": "The lowermost portion of the kidney.", "preferredTerm": "Lower Pole of Kidney", "submissionValue": "KIDNEY, LOWER POLE", "synonyms": ["Lower Pole of the Kidney"]}, {"conceptId": "C12740", "definition": "The deepest division of the renal parenchyma, comprising the renal pyramids, which contain a dense network of nephrons, all of which are part of the blood filtration process.", "preferredTerm": "Renal Medulla", "submissionValue": "KIDNEY, MEDULLA", "synonyms": ["Renal Medulla"]}, {"conceptId": "C93179", "definition": "The uppermost portion of the kidney.", "preferredTerm": "Upper Pole of Kidney", "submissionValue": "KIDNEY, UPPER POLE", "synonyms": ["Upper Pole of the Kidney"]}, {"conceptId": "C186125", "definition": "A group of muscles in the knee, the sartorius, popliteus, gastrocnemius, gracilis, semi-tendinosis, semi-membranosis, and bicep femoris muscles; primary function is to flex the knee.", "preferredTerm": "Knee Flexor Muscles", "submissionValue": "KNEE FLEXOR MUSCLES"}, {"conceptId": "C161388", "definition": "The tendons that connect the quadriceps muscles to the kneecap, the hamstring muscles to the shin bone and fibula, and the patella to the top part of the fibula, enabling flexion, extension, and slight rotation of the knee. (NCI)", "preferredTerm": "Knee Joint Tendons", "submissionValue": "KNEE JOINT TENDONS"}, {"conceptId": "C32898", "definition": "The joint connecting the lower part of the femur with the upper part of the tibia.", "preferredTerm": "Knee Joint", "submissionValue": "KNEE JOINT", "synonyms": ["Femorotibial Joint", "Joint, Stifle", "Knee", "Tibiofemoral Joint"]}, {"conceptId": "C32899", "definition": "The first lumbar vertebra counting from the top down. (NCI)", "preferredTerm": "L1 Vertebra", "submissionValue": "L1 VERTEBRA", "synonyms": ["L1 Vertebra"]}, {"conceptId": "C32900", "definition": "The second lumbar vertebra counting from the top down. (NCI)", "preferredTerm": "L2 Vertebra", "submissionValue": "L2 VERTEBRA", "synonyms": ["L2 Vertebra"]}, {"conceptId": "C112327", "definition": "The space between the L2 and L3 vertebrae.", "preferredTerm": "L2-L3 Intervertebral Space", "submissionValue": "L2-L3 INTERVERTEBRAL SPACE"}, {"conceptId": "C32901", "definition": "The third lumbar vertebra counting from the top down. (NCI)", "preferredTerm": "L3 Vertebra", "submissionValue": "L3 VERTEBRA", "synonyms": ["L3 Vertebra"]}, {"conceptId": "C112328", "definition": "The space between the L3 and L4 vertebrae.", "preferredTerm": "L3-L4 Intervertebral Space", "submissionValue": "L3-L4 INTERVERTEBRAL SPACE"}, {"conceptId": "C32902", "definition": "The fourth lumbar vertebra counting from the top down. (NCI)", "preferredTerm": "L4 Vertebra", "submissionValue": "L4 VERTEBRA", "synonyms": ["L4 Vertebra"]}, {"conceptId": "C142296", "definition": "The space between the L4 and L5 vertebrae.", "preferredTerm": "L4-L5 Intervertebral Space", "submissionValue": "L4-L5 INTERVERTEBRAL SPACE"}, {"conceptId": "C32903", "definition": "The fifth lumbar vertebra counting from the top down. (NCI)", "preferredTerm": "L5 Vertebra", "submissionValue": "L5 VERTEBRA", "synonyms": ["L5 Vertebra"]}, {"conceptId": "C154781", "definition": "The space between the L5 and S1 vertebrae.", "preferredTerm": "L5-S1 Intervertebral Space", "submissionValue": "L5-S1 INTERVERTEBRAL SPACE"}, {"conceptId": "C120673", "definition": "A congenital anomaly of the spine, where an extra or supernumerary lumbar vertebra arises from below the 5th lumbar vertebra.", "preferredTerm": "Extra Lumbar Vertebra", "submissionValue": "L6 VERTEBRA"}, {"conceptId": "C32906", "definition": "A small rectangular thin plate forming part of the medial orbit wall. It is located posterior to the frontal process of the maxilla and articulates with the inferior nasal concha, ethmoid, frontal, and maxillary bones. (NCI)", "preferredTerm": "Lacrimal Bone", "submissionValue": "LACRIMAL BONE", "synonyms": ["Lacrimal Bone"]}, {"conceptId": "C12346", "definition": "The exocrine glands that produce the watery serous component of tears.", "preferredTerm": "Lacrimal Gland", "submissionValue": "LACRIMAL GLAND"}, {"conceptId": "C102313", "definition": "The arteries that arise from the left anterior descending (LAD) artery that supply the interventricular septum.", "preferredTerm": "Left Anterior Descending Septal Perforator Artery", "submissionValue": "LAD SEPTAL PERFORATOR ARTERY", "synonyms": ["LAD SEPTAL PERFORATOR ARTERY SEGMENTS", "LAD SP"]}, {"conceptId": "C12379", "definition": "The avillous section of the intestine composed of crypts and extending from the terminal small intestine to the external orifice.", "preferredTerm": "Large Intestine", "submissionValue": "LARGE INTESTINE", "synonyms": ["Large Bowel"]}, {"conceptId": "C12420", "definition": "The cartilaginous structure of the respiratory tract between the pharynx and the trachea.", "preferredTerm": "Larynx", "submissionValue": "LARYNX"}, {"conceptId": "C102307", "definition": "The lateral branch distal to a bifurcation of the first diagonal artery.", "preferredTerm": "Lateral First Diagonal Branch Artery", "submissionValue": "LATERAL FIRST DIAGONAL BRANCH ARTERY", "synonyms": ["LAT 1ST DIAG", "LATERAL FIRST DIAGONAL BRANCH ARTERY SEGMENT"]}, {"conceptId": "C102308", "definition": "The lateral branch distal to a bifurcation of the first obtuse marginal artery.", "preferredTerm": "Lateral First Obtuse Marginal Branch Artery", "submissionValue": "LATERAL FIRST OBTUSE MARGINAL BRANCH ARTERY", "synonyms": ["First Obtuse Marginal Lateral Branch", "LAT 1ST OM", "LATERAL FIRST OBTUSE MARGINAL BRANCH ARTERY SEGMENT"]}, {"conceptId": "C139202", "definition": "A bone prominence at the distal end of the humerus to which the radial collateral ligament of the elbow joint, the anconeus and supinator muscles, and the common extensor tendon are attached.", "preferredTerm": "Lateral Humeral Epicondyle", "submissionValue": "LATERAL HUMERAL EPICONDYLE"}, {"conceptId": "C102309", "definition": "The lateral branch distal to a bifurcation of the ramus intermedius artery.", "preferredTerm": "Lateral Ramus Intermedius Artery", "submissionValue": "LATERAL RAMUS INTERMEDIUS ARTERY", "synonyms": ["LAT RAMUS", "LATERAL RAMUS INTERMEDIUS ARTERY SEGMENT"]}, {"conceptId": "C102310", "definition": "The lateral branch distal to a bifurcation of the second diagonal artery.", "preferredTerm": "Lateral Second Diagonal Branch Artery", "submissionValue": "LATERAL SECOND DIAGONAL BRANCH ARTERY", "synonyms": ["LAT 2ND DIAG", "LATERAL SECOND DIAGONAL BRANCH ARTERY SEGMENT"]}, {"conceptId": "C102311", "definition": "The lateral branch distal to a bifurcation of the second obtuse marginal artery.", "preferredTerm": "Lateral Second Obtuse Marginal Branch Artery", "submissionValue": "LATERAL SECOND OBTUSE MARGINAL BRANCH ARTERY", "synonyms": ["LAT 2ND OM", "LATERAL SECOND OBTUSE MARGINAL BRANCH ARTERY SEGMENT", "Second Obtuse Marginal Lateral Branch"]}, {"conceptId": "C102312", "definition": "The lateral branch distal to a bifurcation of the third diagonal artery.", "preferredTerm": "Lateral Third Diagonal Branch Artery", "submissionValue": "LATERAL THIRD DIAGONAL BRANCH ARTERY", "synonyms": ["LAT 3RD DIAG", "LATERAL THIRD DIAGONAL BRANCH ARTERY SEGMENT"]}, {"conceptId": "C102425", "definition": "The lateral branch distal to a bifurcation of the third obtuse marginal artery.", "preferredTerm": "Lateral Third Obtuse Marginal Branch Artery", "submissionValue": "LATERAL THIRD OBTUSE MARGINAL BRANCH ARTERY", "synonyms": ["LAT 3RD OM", "LATERAL THIRD OBTUSE MARGINAL BRANCH ARTERY SEGMENT", "Third Obtuse Marginal Lateral Branch"]}, {"conceptId": "C33150", "definition": "A muscle of the back, in general extending from the thoracolumbar vertebrae and scapula to the proximal humerus; primary function is adduction, extension, and medial rotation of the shoulder joint.", "preferredTerm": "Musculus Latissimus Dorsi", "submissionValue": "LATISSIMUS DORSI MUSCLE", "synonyms": ["Musculus Latissimus Dorsi"]}, {"conceptId": "C116175", "definition": "The opening of the left anterior descending coronary artery at its origin.", "preferredTerm": "Left Anterior Descending Artery Ostium", "submissionValue": "LEFT ANTERIOR DESCENDING ARTERY OSTIUM"}, {"conceptId": "C116177", "definition": "The first posterolateral branch originating from the posterior atrioventricular left circumflex artery in left dominant and mixed circulations.", "preferredTerm": "Left Atrioventricular Artery", "submissionValue": "LEFT ATRIOVENTRICULAR ARTERY"}, {"conceptId": "C116176", "definition": "The opening of the left circumflex artery at its origin.", "preferredTerm": "Left Circumflex Artery Ostium", "submissionValue": "LEFT CIRCUMFLEX ARTERY OSTIUM"}, {"conceptId": "C12874", "definition": "An artery arising from the bifurcation of the left coronary artery that runs along the coronary groove.", "preferredTerm": "Circumflex Branch of the Left Coronary Artery", "submissionValue": "LEFT CIRCUMFLEX CORONARY ARTERY"}, {"conceptId": "C116174", "definition": "The portion of the distal end of the left main coronary artery that branches into the left anterior descending artery and the left circumflex artery.", "preferredTerm": "Left Main Coronary Artery Bifurcation", "submissionValue": "LEFT MAIN CORONARY ARTERY BIFURCATION"}, {"conceptId": "C116173", "definition": "The segment of the left main coronary artery that is bounded by its ostium and bifurcation.", "preferredTerm": "Left Main Coronary Artery Body", "submissionValue": "LEFT MAIN CORONARY ARTERY BODY"}, {"conceptId": "C116172", "definition": "The opening of the left coronary artery at its origin.", "preferredTerm": "Left Main Coronary Artery Ostium", "submissionValue": "LEFT MAIN CORONARY ARTERY OSTIUM"}, {"conceptId": "C116178", "definition": "The second posterolateral branch originating from the posterior atrioventricular left circumflex artery in left dominant and mixed circulations.", "preferredTerm": "Left Posterior Descending Artery", "submissionValue": "LEFT POSTERIOR DESCENDING ARTERY"}, {"conceptId": "C102314", "definition": "In an individual with a left-dominant heart, this branch arises from the circumflex artery atrioventricular groove continuation and supplies the inferior apex of the heart.", "preferredTerm": "Left Posterolateral Descending Artery", "submissionValue": "LEFT POSTEROLATERAL DESCENDING ARTERY", "synonyms": ["LEFT POSTEROLATERAL DESCENDING ARTERY SEGMENT", "LPDA"]}, {"conceptId": "C127650", "definition": "The apical cap division of the left ventricular myocardium as determined using the AHA 17-Segment Model (Cerqueira MD, Weissman NJ, Dilsizian V, Jacobs AK, Kaul S, Laskey WK, Pennell DJ, Rumberger JA, Ryan T, Verani MS; American Heart Association Writing Group on Myocardial Segmentation and Registration for Cardiac Imaging. Standardized myocardial segmentation and nomenclature for tomographic imaging of the heart. A statement for healthcare professionals from the Cardiac Imaging Committee of the Council on Clinical Cardiology of the American Heart Association. Circulation. 2002 Jan 29;105(4):539-42.).", "preferredTerm": "Left Ventricular Apex Segment", "submissionValue": "LEFT VENTRICULAR APEX SEGMENT"}, {"conceptId": "C127651", "definition": "The anterior portion of the apical division of the left ventricular myocardium as determined using the AHA 17-Segment Model (Cerqueira MD, Weissman NJ, Dilsizian V, Jacobs AK, Kaul S, Laskey WK, Pennell DJ, Rumberger JA, Ryan T, Verani MS; American Heart Association Writing Group on Myocardial Segmentation and Registration for Cardiac Imaging. Standardized myocardial segmentation and nomenclature for tomographic imaging of the heart. A statement for healthcare professionals from the Cardiac Imaging Committee of the Council on Clinical Cardiology of the American Heart Association. Circulation. 2002 Jan 29;105(4):539-42.).", "preferredTerm": "Left Ventricular Apical Anterior Segment", "submissionValue": "LEFT VENTRICULAR APICAL ANTERIOR SEGMENT"}, {"conceptId": "C127652", "definition": "The inferior portion of the apical division of the left ventricular myocardium as determined using the AHA 17-Segment Model (Cerqueira MD, Weissman NJ, Dilsizian V, Jacobs AK, Kaul S, Laskey WK, Pennell DJ, Rumberger JA, Ryan T, Verani MS; American Heart Association Writing Group on Myocardial Segmentation and Registration for Cardiac Imaging. Standardized myocardial segmentation and nomenclature for tomographic imaging of the heart. A statement for healthcare professionals from the Cardiac Imaging Committee of the Council on Clinical Cardiology of the American Heart Association. Circulation. 2002 Jan 29;105(4):539-42.).", "preferredTerm": "Left Ventricular Apical Inferior Segment", "submissionValue": "LEFT VENTRICULAR APICAL INFERIOR SEGMENT"}, {"conceptId": "C127653", "definition": "The lateral portion of the apical division of the left ventricular myocardium as determined using the AHA 17-Segment Model (Cerqueira MD, Weissman NJ, Dilsizian V, Jacobs AK, Kaul S, Laskey WK, Pennell DJ, Rumberger JA, Ryan T, Verani MS; American Heart Association Writing Group on Myocardial Segmentation and Registration for Cardiac Imaging. Standardized myocardial segmentation and nomenclature for tomographic imaging of the heart. A statement for healthcare professionals from the Cardiac Imaging Committee of the Council on Clinical Cardiology of the American Heart Association. Circulation. 2002 Jan 29;105(4):539-42.).", "preferredTerm": "Left Ventricular Apical Lateral Segment", "submissionValue": "LEFT VENTRICULAR APICAL LATERAL SEGMENT"}, {"conceptId": "C127654", "definition": "The septal portion of the apical division of the left ventricular myocardium as determined using the AHA 17-Segment Model (Cerqueira MD, Weissman NJ, Dilsizian V, Jacobs AK, Kaul S, Laskey WK, Pennell DJ, Rumberger JA, Ryan T, Verani MS; American Heart Association Writing Group on Myocardial Segmentation and Registration for Cardiac Imaging. Standardized myocardial segmentation and nomenclature for tomographic imaging of the heart. A statement for healthcare professionals from the Cardiac Imaging Committee of the Council on Clinical Cardiology of the American Heart Association. Circulation. 2002 Jan 29;105(4):539-42.).", "preferredTerm": "Left Ventricular Apical Septal Segment", "submissionValue": "LEFT VENTRICULAR APICAL SEPTAL SEGMENT"}, {"conceptId": "C127655", "definition": "The anterior portion of the basal division of the left ventricular myocardium as determined using the AHA 17-Segment Model (Cerqueira MD, Weissman NJ, Dilsizian V, Jacobs AK, Kaul S, Laskey WK, Pennell DJ, Rumberger JA, Ryan T, Verani MS; American Heart Association Writing Group on Myocardial Segmentation and Registration for Cardiac Imaging. Standardized myocardial segmentation and nomenclature for tomographic imaging of the heart. A statement for healthcare professionals from the Cardiac Imaging Committee of the Council on Clinical Cardiology of the American Heart Association. Circulation. 2002 Jan 29;105(4):539-42.).", "preferredTerm": "Left Ventricular Basal Anterior Segment", "submissionValue": "LEFT VENTRICULAR BASAL ANTERIOR SEGMENT"}, {"conceptId": "C127656", "definition": "The anterolateral portion of the basal division of the left ventricular myocardium as determined using the AHA 17-Segment Model (Cerqueira MD, Weissman NJ, Dilsizian V, Jacobs AK, Kaul S, Laskey WK, Pennell DJ, Rumberger JA, Ryan T, Verani MS; American Heart Association Writing Group on Myocardial Segmentation and Registration for Cardiac Imaging. Standardized myocardial segmentation and nomenclature for tomographic imaging of the heart. A statement for healthcare professionals from the Cardiac Imaging Committee of the Council on Clinical Cardiology of the American Heart Association. Circulation. 2002 Jan 29;105(4):539-42.).", "preferredTerm": "Left Ventricular Basal Anterolateral Segment", "submissionValue": "LEFT VENTRICULAR BASAL ANTEROLATERAL SEGMENT"}, {"conceptId": "C127657", "definition": "The anteroseptal portion of the basal division of the left ventricular myocardium as determined using the AHA 17-Segment Model (Cerqueira MD, Weissman NJ, Dilsizian V, Jacobs AK, Kaul S, Laskey WK, Pennell DJ, Rumberger JA, Ryan T, Verani MS; American Heart Association Writing Group on Myocardial Segmentation and Registration for Cardiac Imaging. Standardized myocardial segmentation and nomenclature for tomographic imaging of the heart. A statement for healthcare professionals from the Cardiac Imaging Committee of the Council on Clinical Cardiology of the American Heart Association. Circulation. 2002 Jan 29;105(4):539-42.).", "preferredTerm": "Left Ventricular Basal Anteroseptal Segment", "submissionValue": "LEFT VENTRICULAR BASAL ANTEROSEPTAL SEGMENT"}, {"conceptId": "C127658", "definition": "The inferior portion of the basal division of the left ventricular myocardium as determined using the AHA 17-Segment Model (Cerqueira MD, Weissman NJ, Dilsizian V, Jacobs AK, Kaul S, Laskey WK, Pennell DJ, Rumberger JA, Ryan T, Verani MS; American Heart Association Writing Group on Myocardial Segmentation and Registration for Cardiac Imaging. Standardized myocardial segmentation and nomenclature for tomographic imaging of the heart. A statement for healthcare professionals from the Cardiac Imaging Committee of the Council on Clinical Cardiology of the American Heart Association. Circulation. 2002 Jan 29;105(4):539-42.).", "preferredTerm": "Left Ventricular Basal Inferior Segment", "submissionValue": "LEFT VENTRICULAR BASAL INFERIOR SEGMENT"}, {"conceptId": "C127659", "definition": "The inferolateral portion of the basal division of the left ventricular myocardium as determined using the AHA 17-Segment Model (Cerqueira MD, Weissman NJ, Dilsizian V, Jacobs AK, Kaul S, Laskey WK, Pennell DJ, Rumberger JA, Ryan T, Verani MS; American Heart Association Writing Group on Myocardial Segmentation and Registration for Cardiac Imaging. Standardized myocardial segmentation and nomenclature for tomographic imaging of the heart. A statement for healthcare professionals from the Cardiac Imaging Committee of the Council on Clinical Cardiology of the American Heart Association. Circulation. 2002 Jan 29;105(4):539-42.).", "preferredTerm": "Left Ventricular Basal Inferolateral Segment", "submissionValue": "LEFT VENTRICULAR BASAL INFEROLATERAL SEGMENT"}, {"conceptId": "C127660", "definition": "The inferoseptal portion of the basal division of the left ventricular myocardium as determined using the AHA 17-Segment Model (Cerqueira MD, Weissman NJ, Dilsizian V, Jacobs AK, Kaul S, Laskey WK, Pennell DJ, Rumberger JA, Ryan T, Verani MS; American Heart Association Writing Group on Myocardial Segmentation and Registration for Cardiac Imaging. Standardized myocardial segmentation and nomenclature for tomographic imaging of the heart. A statement for healthcare professionals from the Cardiac Imaging Committee of the Council on Clinical Cardiology of the American Heart Association. Circulation. 2002 Jan 29;105(4):539-42.).", "preferredTerm": "Left Ventricular Basal Inferoseptal Segment", "submissionValue": "LEFT VENTRICULAR BASAL INFEROSEPTAL SEGMENT"}, {"conceptId": "C102315", "definition": "The outermost layer of cardiac tissue lining of the left ventricle.", "preferredTerm": "Left Ventricular Epicardium", "submissionValue": "LEFT VENTRICULAR EPICARDIUM"}, {"conceptId": "C127661", "definition": "The anterior portion of the mid-cavity division of the left ventricular myocardium as determined using the AHA 17-Segment Model (Cerqueira MD, Weissman NJ, Dilsizian V, Jacobs AK, Kaul S, Laskey WK, Pennell DJ, Rumberger JA, Ryan T, Verani MS; American Heart Association Writing Group on Myocardial Segmentation and Registration for Cardiac Imaging. Standardized myocardial segmentation and nomenclature for tomographic imaging of the heart. A statement for healthcare professionals from the Cardiac Imaging Committee of the Council on Clinical Cardiology of the American Heart Association. Circulation. 2002 Jan 29;105(4):539-42.).", "preferredTerm": "Left Ventricular Mid Anterior Segment", "submissionValue": "LEFT VENTRICULAR MID ANTERIOR SEGMENT"}, {"conceptId": "C127662", "definition": "The anterolateral portion of the mid-cavity division of the left ventricular myocardium as determined using the AHA 17-Segment Model (Cerqueira MD, Weissman NJ, Dilsizian V, Jacobs AK, Kaul S, Laskey WK, Pennell DJ, Rumberger JA, Ryan T, Verani MS; American Heart Association Writing Group on Myocardial Segmentation and Registration for Cardiac Imaging. Standardized myocardial segmentation and nomenclature for tomographic imaging of the heart. A statement for healthcare professionals from the Cardiac Imaging Committee of the Council on Clinical Cardiology of the American Heart Association. Circulation. 2002 Jan 29;105(4):539-42.).", "preferredTerm": "Left Ventricular Mid Anterolateral Segment", "submissionValue": "LEFT VENTRICULAR MID ANTEROLATERAL SEGMENT"}, {"conceptId": "C127663", "definition": "The anteroseptal portion of the mid-cavity division of the left ventricular myocardium as determined using the AHA 17-Segment Model (Cerqueira MD, Weissman NJ, Dilsizian V, Jacobs AK, Kaul S, Laskey WK, Pennell DJ, Rumberger JA, Ryan T, Verani MS; American Heart Association Writing Group on Myocardial Segmentation and Registration for Cardiac Imaging. Standardized myocardial segmentation and nomenclature for tomographic imaging of the heart. A statement for healthcare professionals from the Cardiac Imaging Committee of the Council on Clinical Cardiology of the American Heart Association. Circulation. 2002 Jan 29;105(4):539-42.).", "preferredTerm": "Left Ventricular Mid Anteroseptal Segment", "submissionValue": "LEFT VENTRICULAR MID ANTEROSEPTAL SEGMENT"}, {"conceptId": "C127664", "definition": "The inferior portion of the mid-cavity division of the left ventricular myocardium as determined using the AHA 17-Segment Model (Cerqueira MD, Weissman NJ, Dilsizian V, Jacobs AK, Kaul S, Laskey WK, Pennell DJ, Rumberger JA, Ryan T, Verani MS; American Heart Association Writing Group on Myocardial Segmentation and Registration for Cardiac Imaging. Standardized myocardial segmentation and nomenclature for tomographic imaging of the heart. A statement for healthcare professionals from the Cardiac Imaging Committee of the Council on Clinical Cardiology of the American Heart Association. Circulation. 2002 Jan 29;105(4):539-42.).", "preferredTerm": "Left Ventricular Mid Inferior Segment", "submissionValue": "LEFT VENTRICULAR MID INFERIOR SEGMENT"}, {"conceptId": "C127665", "definition": "The inferolateral portion of the mid-cavity division of the left ventricular myocardium as determined using the AHA 17-Segment Model (Cerqueira MD, Weissman NJ, Dilsizian V, Jacobs AK, Kaul S, Laskey WK, Pennell DJ, Rumberger JA, Ryan T, Verani MS; American Heart Association Writing Group on Myocardial Segmentation and Registration for Cardiac Imaging. Standardized myocardial segmentation and nomenclature for tomographic imaging of the heart. A statement for healthcare professionals from the Cardiac Imaging Committee of the Council on Clinical Cardiology of the American Heart Association. Circulation. 2002 Jan 29;105(4):539-42.).", "preferredTerm": "Left Ventricular Mid Inferolateral Segment", "submissionValue": "LEFT VENTRICULAR MID INFEROLATERAL SEGMENT"}, {"conceptId": "C127666", "definition": "The inferoseptal portion of the mid-cavity division of the left ventricular myocardium as determined using the AHA 17-Segment Model (Cerqueira MD, Weissman NJ, Dilsizian V, Jacobs AK, Kaul S, Laskey WK, Pennell DJ, Rumberger JA, Ryan T, Verani MS; American Heart Association Writing Group on Myocardial Segmentation and Registration for Cardiac Imaging. Standardized myocardial segmentation and nomenclature for tomographic imaging of the heart. A statement for healthcare professionals from the Cardiac Imaging Committee of the Council on Clinical Cardiology of the American Heart Association. Circulation. 2002 Jan 29;105(4):539-42.).", "preferredTerm": "Left Ventricular Mid Inferoseptal Segment", "submissionValue": "LEFT VENTRICULAR MID INFEROSEPTAL SEGMENT"}, {"conceptId": "C52749", "definition": "The integument that covers the leg.", "preferredTerm": "Leg Skin", "submissionValue": "LEG SKIN", "synonyms": ["Leg Skin"]}, {"conceptId": "C32974", "definition": "The portion of the lower extremity between the knee and the ankle.", "preferredTerm": "Leg", "submissionValue": "LEG", "synonyms": ["Leg"]}, {"conceptId": "C12743", "definition": "The structure of the eye through which light is focused onto the retina.", "preferredTerm": "Lens", "submissionValue": "LENS", "synonyms": ["Crystalline Lens", "Ocular Lens"]}, {"conceptId": "C32979", "definition": "The two innermost layers of tissue that cover the brain and spinal cord, the arachnoid mater and the pia mater. (NCI)", "preferredTerm": "Leptomeninges", "submissionValue": "LEPTOMENINGES"}, {"conceptId": "C12261", "definition": "The medial border of the stomach. It is concave in shape and extends from the cardiac orifice to the pyloric orifice.", "preferredTerm": "Lesser Curvature of the Stomach", "submissionValue": "LESSER CURVATURE OF THE STOMACH"}, {"conceptId": "C32982", "definition": "A cone-shaped projection in the shaft of the femur in which the iliopsoas muscle is attached. (NCI)", "preferredTerm": "Lesser Trochanter", "submissionValue": "LESSER TROCHANTER"}, {"conceptId": "C13046", "definition": "Band of fibrous tissue connecting bone to bone or cartilage to bone thereby supporting or strengthening a joint. (NCI)", "preferredTerm": "Ligament", "submissionValue": "LIGAMENT", "synonyms": ["Ligament"]}, {"conceptId": "C12429", "definition": "A jointed extremity of the upper/thoracic or lower/pelvic regions.", "preferredTerm": "Limb", "submissionValue": "LIMB", "synonyms": ["Extremity"]}, {"conceptId": "C12742", "definition": "The limb that is composed of the hip, thigh, leg and foot. (NCI)", "preferredTerm": "Lower Extremity", "submissionValue": "LIMB, LOWER", "synonyms": ["Lower Extremity"]}, {"conceptId": "C12671", "definition": "The region of the body that extends distal to the scapulohumeral joint.", "preferredTerm": "Upper Extremity", "submissionValue": "LIMB, UPPER", "synonyms": ["Upper Extremity"]}, {"conceptId": "C40373", "definition": "A small tongue-like projection from the lower portion of the upper lobe of the left lung.", "preferredTerm": "Lingula of the Lung", "submissionValue": "LINGULA OF THE LUNG"}, {"conceptId": "C12220", "definition": "Fleshy fold which surrounds the opening of the mouth. (NCI)", "preferredTerm": "Lip", "submissionValue": "LIP", "synonyms": ["Lip", "Vermillion of the Lip"]}, {"conceptId": "C12222", "definition": "The external surface of the lower lip. (NCI)", "preferredTerm": "External Lower Lip", "submissionValue": "LIP, LOWER", "synonyms": ["External Lower Lip"]}, {"conceptId": "C12221", "definition": "The external surface of the upper lip. (NCI)", "preferredTerm": "External Upper Lip", "submissionValue": "LIP, UPPER", "synonyms": ["External Upper Lip"]}, {"conceptId": "C32996", "definition": "A groove on the surface of the liver.", "preferredTerm": "Liver Fissure", "submissionValue": "LIVER FISSURE", "synonyms": ["Liver Fissure"]}, {"conceptId": "C49579", "definition": "Any of the large divisions of the liver.", "preferredTerm": "Liver Lobe", "submissionValue": "LIVER LOBE"}, {"conceptId": "C12392", "definition": "An abdominal organ that has variable lobation which are composed mainly of hepatic lobules.", "preferredTerm": "Liver", "submissionValue": "LIVER"}, {"conceptId": "C33000", "definition": "The lobe of the liver situated posteriorly located between the left lobe and the inferior vena cava.", "preferredTerm": "Caudate Lobe", "submissionValue": "LIVER, CAUDATE LOBE", "synonyms": ["Couinaud Segment I"]}, {"conceptId": "C79733", "definition": "The lateral segment of the left lobe of the liver, located to the left of the inferior portion of the falciform ligament, anteriorly overlapping the stomach. (NCI)", "preferredTerm": "Left Anterolateral Segment", "submissionValue": "LIVER, LEFT LOBE ANTEROLATERAL SEGMENT", "synonyms": ["Couinaud Segment III"]}, {"conceptId": "C79735", "definition": "The medial segment of the left lobe of the liver, located inferiorly. (NCI)", "preferredTerm": "Left Inferomedial Segment", "submissionValue": "LIVER, LEFT LOBE INFEROMEDIAL SEGMENT", "synonyms": ["Couinaud Segment IVb"]}, {"conceptId": "C79732", "definition": "The lateral segment of the left lobe of the liver, located to the left of the superior portion of the falciform ligament and the fissure for the ligamentum venosum. (NCI)", "preferredTerm": "Left Posterolateral Segment", "submissionValue": "LIVER, LEFT LOBE POSTEROLATERAL SEGMENT", "synonyms": ["Couinaud Segment II"]}, {"conceptId": "C79734", "definition": "The medial segment of the left lobe of the liver, located superiorly. (NCI)", "preferredTerm": "Left Superomedial Segment", "submissionValue": "LIVER, LEFT LOBE SUPEROMEDIAL SEGMENT", "synonyms": ["Couinaud segment IVa"]}, {"conceptId": "C32965", "definition": "The smaller lobe of the liver extending into the left side of the body.", "preferredTerm": "Left Lobe of the Liver", "submissionValue": "LIVER, LEFT LOBE"}, {"conceptId": "C112404", "definition": "An oblong shaped area of the liver that is situated inferior to the right lobe, bounded by the anterior margin of the liver and the porta hepatis.", "preferredTerm": "Quadrate Lobe of Liver", "submissionValue": "LIVER, QUADRATE LOBE"}, {"conceptId": "C79736", "definition": "The anterior segment of the right lobe of the liver, located inferiorly. (NCI)", "preferredTerm": "Right Anteroinferior Segment", "submissionValue": "LIVER, RIGHT LOBE ANTEROINFERIOR SEGMENT", "synonyms": ["Couinaud Segment V"]}, {"conceptId": "C79739", "definition": "The anterior segment of the right lobe of the liver, located superiorly. (NCI)", "preferredTerm": "Right Anterosuperior Segment", "submissionValue": "LIVER, RIGHT LOBE ANTEROSUPERIOR SEGMENT", "synonyms": ["Couinaud Segment VIII"]}, {"conceptId": "C79737", "definition": "The posterior segment of the right lobe of the liver, located inferiorly. (NCI)", "preferredTerm": "Right Posteroinferior Segment", "submissionValue": "LIVER, RIGHT LOBE POSTEROINFERIOR SEGMENT", "synonyms": ["Couinaud Segment VI"]}, {"conceptId": "C79738", "definition": "The posterior segment of the right lobe of the liver, located superiorly. (NCI)", "preferredTerm": "Right Posterosuperior Segment", "submissionValue": "LIVER, RIGHT LOBE POSTEROSUPERIOR SEGMENT", "synonyms": ["Couinaud Segment VII"]}, {"conceptId": "C33481", "definition": "The larger lobe of the liver extending into the right side of the body.", "preferredTerm": "Right Lobe of the Liver", "submissionValue": "LIVER, RIGHT LOBE"}, {"conceptId": "C97333", "definition": "A brainstem nucleus. It is the major brain site for the synthesis and secretion of norepinephrine. (NCI)", "preferredTerm": "Locus Coeruleus", "submissionValue": "LOCUS CERULEUS"}, {"conceptId": "C176234", "definition": "A lymph node located in the lower gastrointestinal tract.", "preferredTerm": "Lower Gastrointestinal Tract Lymph Node", "submissionValue": "LOWER GASTROINTESTINAL TRACT LYMPH NODE"}, {"conceptId": "C132512", "definition": "Any lymph nodes located within close proximity to the lower third of the internal jugular vein, extending from the inferior border of the cricoid cartilage (superiorly) to the clavicle (inferiorly). The anterior (medial) boundary is the lateral border of the sternohyoid muscle and the posterior (lateral) boundary is the posterior border of the sternocleidomastoid muscle. (AJCC 8th ed.)", "preferredTerm": "Lower Jugular Lymph Node Group (Level IV)", "submissionValue": "LOWER JUGULAR LYMPH NODE"}, {"conceptId": "C33012", "definition": "The part of the respiratory system below the bifurcation of the trachea. It includes the lungs and the parts of the lungs such as the bronchi, bronchioles and alveoli.", "preferredTerm": "Lower Respiratory System", "submissionValue": "LOWER RESPIRATORY SYSTEM"}, {"conceptId": "C34004", "definition": "The area of the body below the ribs and above the hipbones. (NCI)", "preferredTerm": "Lumbar Region", "submissionValue": "LUMBAR REGION"}, {"conceptId": "C69314", "definition": "The vertebrae located below the thoracic and above the sacral vertebrae.", "preferredTerm": "Lumbar Spine", "submissionValue": "LUMBAR SPINE"}, {"conceptId": "C12744", "definition": "Any of the vertebrae situated between the thoracic vertebrae and the sacrum in the lower part of the spine.", "preferredTerm": "Lumbar Vertebra", "submissionValue": "LUMBAR VERTEBRA", "synonyms": ["Lumbar Vertebra"]}, {"conceptId": "C48824", "definition": "The part of the spine in the lower back that consists of the lumbar region and the sacrum.", "preferredTerm": "Lumbosacral Region", "submissionValue": "LUMBOSACRAL SPINE", "synonyms": ["Lumbosacral Region"]}, {"conceptId": "C186126", "definition": "A group of muscles in the sole of the foot that extend from the tendons of the flexor digitorum longus muscle to the medial bases of the proximal phalanges and the extensor expansion of the second through fifth digits; primary function is to flex and adduct the lateral four toes at the metatarsophalangeal joints and extend them at the interphalangeal joints.", "preferredTerm": "Lumbrical Muscles of the Foot", "submissionValue": "LUMBRICAL MUSCLES OF THE FOOT"}, {"conceptId": "C150852", "definition": "One of a group of four short muscles in the hand that extend from the radial and ulnar sides of the tendons of the flexor digitorum profundus to the radial lateral band of the extensor expansion tendon; primary function is extension of the proximal and distal interphalangeal joints.", "preferredTerm": "Lumbrical Muscle", "submissionValue": "LUMBRICAL MUSCLES OF THE HAND"}, {"conceptId": "C12786", "definition": "The bone in the proximal row of carpal bones that lies between the scaphoid and triquetral bones. (NCI)", "preferredTerm": "Lunate Bone", "submissionValue": "LUNATE BONE", "synonyms": ["Lunate Bone"]}, {"conceptId": "C34021", "definition": "Any of the large divisions of the lung.", "preferredTerm": "Lung Lobe", "submissionValue": "LUNG LOBE"}, {"conceptId": "C12468", "definition": "A thoracic organ that has variable lobation and is the primary respiratory organ of mammals.", "preferredTerm": "Lung", "submissionValue": "LUNG"}, {"conceptId": "C49282", "definition": "The wedge-shaped area at the central portion of the lung through which the bronchi, vessels and nerves enter or exit the organ. (NCI)", "preferredTerm": "Hilar Area of the Lung", "submissionValue": "LUNG, HILUM", "synonyms": ["Hilar Area of the Lung"]}, {"conceptId": "C33020", "definition": "The larger lobe of the left lung, situated below and behind the oblique fissure. (NCI)", "preferredTerm": "Lower Lobe of the Left Lung", "submissionValue": "LUNG, LEFT LOWER LOBE", "synonyms": ["Lower Lobe of the Left Lung"]}, {"conceptId": "C33021", "definition": "The smaller lobe of the left lung, situated above and in front the oblique fissure, which includes the apex. (NCI)", "preferredTerm": "Upper Lobe of the Left Lung", "submissionValue": "LUNG, LEFT UPPER LOBE", "synonyms": ["Upper Lobe of the Left Lung"]}, {"conceptId": "C32967", "definition": "The 2-lobed lung located on the left side of the body. (NCI)", "preferredTerm": "Left Lung", "submissionValue": "LUNG, LEFT", "synonyms": ["Left Lung"]}, {"conceptId": "C132393", "definition": "The anterior basal segment of the inferior lobe of the left lung.", "preferredTerm": "Left Lung, Inferior Lobe, Anterior Basal Segment", "submissionValue": "LUNG, LEFT, INFERIOR LOBE, ANTERIOR BASAL SEGMENT"}, {"conceptId": "C132394", "definition": "The lateral basal segment of the inferior lobe of the left lung.", "preferredTerm": "Left Lung, Inferior Lobe, Lateral Basal Segment", "submissionValue": "LUNG, LEFT, INFERIOR LOBE, LATERAL BASAL SEGMENT"}, {"conceptId": "C132395", "definition": "The medial basal segment of the inferior lobe of the left lung.", "preferredTerm": "Left Lung, Inferior Lobe, Medial Basal Segment", "submissionValue": "LUNG, LEFT, INFERIOR LOBE, MEDIAL BASAL SEGMENT"}, {"conceptId": "C132396", "definition": "The posterior basal segment of the inferior lobe of the left lung.", "preferredTerm": "Left Lung, Inferior Lobe, Posterior Basal Segment", "submissionValue": "LUNG, LEFT, INFERIOR LOBE, POSTERIOR BASAL SEGMENT"}, {"conceptId": "C132397", "definition": "The superior segment of the inferior lobe of the left lung.", "preferredTerm": "Left Lung, Inferior Lobe, Superior Segment", "submissionValue": "LUNG, LEFT, INFERIOR LOBE, SUPERIOR SEGMENT"}, {"conceptId": "C132398", "definition": "The anterior segment of the superior lobe of the left lung.", "preferredTerm": "Left Lung, Superior Lobe, Anterior Segment", "submissionValue": "LUNG, LEFT, SUPERIOR LOBE, ANTERIOR SEGMENT"}, {"conceptId": "C132399", "definition": "The apicoposterior segment of the superior lobe of the left lung.", "preferredTerm": "Left Lung, Superior Lobe, Apicoposterior Segment", "submissionValue": "LUNG, LEFT, SUPERIOR LOBE, APICOPOSTERIOR SEGMENT"}, {"conceptId": "C132400", "definition": "The inferior lingular segment of the superior lobe of the left lung.", "preferredTerm": "Left Lung, Superior Lobe, Inferior Lingular Segment", "submissionValue": "LUNG, LEFT, SUPERIOR LOBE, INFERIOR LINGULAR SEGMENT"}, {"conceptId": "C132401", "definition": "The superior lingular segment of the superior lobe of the left lung.", "preferredTerm": "Left Lung, Superior Lobe, Superior Lingular Segment", "submissionValue": "LUNG, LEFT, SUPERIOR LOBE, SUPERIOR LINGULAR SEGMENT"}, {"conceptId": "C33022", "definition": "The lobe of the right lung situated below the oblique fissure. (NCI)", "preferredTerm": "Lower Lobe of the Right Lung", "submissionValue": "LUNG, RIGHT LOWER LOBE", "synonyms": ["Lower Lobe of the Right Lung"]}, {"conceptId": "C12286", "definition": "The smallest lobe of the right lung, situated above the oblique fissure and below the horizontal fissure. (NCI)", "preferredTerm": "Middle Lobe of the Right Lung", "submissionValue": "LUNG, RIGHT MIDDLE LOBE", "synonyms": ["Middle Lobe of the Right Lung"]}, {"conceptId": "C33023", "definition": "The lobe of the right lung, situated above the horizontal fissure, which includes the apex. (NCI)", "preferredTerm": "Upper Lobe of the Right Lung", "submissionValue": "LUNG, RIGHT UPPER LOBE", "synonyms": ["Upper Lobe of the Right Lung"]}, {"conceptId": "C33483", "definition": "The 3-lobed lung located on the right side of the body. (NCI)", "preferredTerm": "Right Lung", "submissionValue": "LUNG, RIGHT", "synonyms": ["Right Lung"]}, {"conceptId": "C132402", "definition": "The anterior basal segment of the inferior lobe of the right lung.", "preferredTerm": "Right Lung, Inferior Lobe, Anterior Basal Segment", "submissionValue": "LUNG, RIGHT, INFERIOR LOBE, ANTERIOR BASAL SEGMENT"}, {"conceptId": "C132403", "definition": "The lateral basal segment of the inferior lobe of the right lung.", "preferredTerm": "Right Lung, Inferior Lobe, Lateral Basal Segment", "submissionValue": "LUNG, RIGHT, INFERIOR LOBE, LATERAL BASAL SEGMENT"}, {"conceptId": "C132404", "definition": "The medial basal segment of the inferior lobe of the right lung.", "preferredTerm": "Right Lung, Inferior Lobe, Medial Basal Segment", "submissionValue": "LUNG, RIGHT, INFERIOR LOBE, MEDIAL BASAL SEGMENT"}, {"conceptId": "C132405", "definition": "The posterior basal segment of the inferior lobe of the right lung.", "preferredTerm": "Right Lung, Inferior Lobe, Posterior Basal Segment", "submissionValue": "LUNG, RIGHT, INFERIOR LOBE, POSTERIOR BASAL SEGMENT"}, {"conceptId": "C132406", "definition": "The superior segment of the inferior lobe of the right lung.", "preferredTerm": "Right Lung, Inferior Lobe, Superior Segment", "submissionValue": "LUNG, RIGHT, INFERIOR LOBE, SUPERIOR SEGMENT"}, {"conceptId": "C132407", "definition": "The lateral segment of the middle lobe of the right lung.", "preferredTerm": "Right Lung, Middle Lobe, Lateral Segment", "submissionValue": "LUNG, RIGHT, MIDDLE LOBE, LATERAL SEGMENT"}, {"conceptId": "C132408", "definition": "The medial segment of the middle lobe of the right lung.", "preferredTerm": "Right Lung, Middle Lobe, Medial Segment", "submissionValue": "LUNG, RIGHT, MIDDLE LOBE, MEDIAL SEGMENT"}, {"conceptId": "C132409", "definition": "The anterior segment of the superior lobe of the right lung.", "preferredTerm": "Right Lung, Superior Lobe, Anterior Segment", "submissionValue": "LUNG, RIGHT, SUPERIOR LOBE, ANTERIOR SEGMENT"}, {"conceptId": "C132410", "definition": "The apical segment of the superior lobe of the right lung.", "preferredTerm": "Right Lung, Superior Lobe, Apical Segment", "submissionValue": "LUNG, RIGHT, SUPERIOR LOBE, APICAL SEGMENT"}, {"conceptId": "C132411", "definition": "The posterior segment of the superior lobe of the right lung.", "preferredTerm": "Right Lung, Superior Lobe, Posterior Segment", "submissionValue": "LUNG, RIGHT, SUPERIOR LOBE, POSTERIOR SEGMENT"}, {"conceptId": "C33031", "definition": "The concave side of the lymph node. (NCI)", "preferredTerm": "Lymph Node Hilum", "submissionValue": "LYMPH NODE HILUM", "synonyms": ["Lymph Node Hilum"]}, {"conceptId": "C12745", "definition": "Secondary lymphoid organ associated with lymphatic vessels and consisting of an outer cortex, inner medulla and sinuses.", "preferredTerm": "Lymph Node", "submissionValue": "LYMPH NODE", "synonyms": ["Lymphatic Gland"]}, {"conceptId": "C26464", "definition": "An oval-shaped, yellow pigmented area located on the center of the retina, which contains a high density of cones for high-acuity vision.", "preferredTerm": "Macula", "submissionValue": "MACULA"}, {"conceptId": "C32968", "definition": "One of the two main bronchi. It is narrower but longer than the right main bronchus and connects to the left lung. (NCI)", "preferredTerm": "Left Main Bronchus", "submissionValue": "MAIN BRONCHUS, LEFT", "synonyms": ["Left Main Bronchus"]}, {"conceptId": "C33486", "definition": "One of the two main bronchi. It is wider but shorter than the left main bronchus and connects to the right lung. (NCI)", "preferredTerm": "Right Main Bronchus", "submissionValue": "MAIN BRONCHUS, RIGHT", "synonyms": ["Right Main Bronchus"]}, {"conceptId": "C61599", "definition": "Male internal and external organs of reproduction.", "preferredTerm": "Male Genitalia", "submissionValue": "MALE GENITALIA", "synonyms": ["Male Genitalia"]}, {"conceptId": "C12722", "definition": "The sex organs of the male.", "preferredTerm": "Male Reproductive System", "submissionValue": "MALE REPRODUCTIVE SYSTEM"}, {"conceptId": "C33051", "definition": "A hammer-shaped bone, part of three interconnected small bones located in the middle ear. It is attached to the inner surface of the tympanic membrane and its function is to transmit sound vibrations. (NCI)", "preferredTerm": "Malleus", "submissionValue": "MALLEUS", "synonyms": ["Malleus"]}, {"conceptId": "C12367", "definition": "The exocrine glands of the mammae that produce milk in females, and are composed of lobules, alveolar ducts and alveoli.", "preferredTerm": "Mammary Gland", "submissionValue": "MAMMARY GLAND"}, {"conceptId": "C12290", "definition": "The lower jaw bone holding the lower teeth. (NCI)", "preferredTerm": "Mandible", "submissionValue": "MANDIBLE", "synonyms": ["Bone, Mandibular", "Inferior Maxillary Bone", "Lower Jaw", "Mandible"]}, {"conceptId": "C13074", "definition": "A muscle extending from the zygomatic arch to the lateral surface of mandibular ramus; primary function is elevation of the mandible (closing of the mouth).", "preferredTerm": "Masseter Muscle", "submissionValue": "MASSETER MUSCLE"}, {"conceptId": "C12503", "definition": "A honeycombed section of bone located near the base of the skull, protruding behind the outer ear. It is connected to the middle ear. (NCI)", "preferredTerm": "Mastoid Process", "submissionValue": "MASTOID PROCESS", "synonyms": ["Mastoid Process"]}, {"conceptId": "C26470", "definition": "The upper jaw bone holding the upper teeth.", "preferredTerm": "Maxilla", "submissionValue": "MAXILLA"}, {"conceptId": "C12275", "definition": "A pyramidal-shaped, thin-walled, air-filled cavity located in the maxilla. It is lined by mucus membrane and periosteum (mucoperiosteum) which contains cilia. It is adjacent to the nasal cavity and communicates with the middle meatus of the nose. It is the largest paranasal sinus and is composed of three recesses: alveolar, zygomatic, and infraorbital. (NCI)", "preferredTerm": "Maxillary Sinus", "submissionValue": "MAXILLARY SINUS", "synonyms": ["Maxillary Sinus"]}, {"conceptId": "C139204", "definition": "A rounded, bony projection on the inner side of the distal end of the femur to which the medial collateral and 