{"_links": {"parentClass": {"href": "/mdr/sendig/genetox-1-0/classes/Findings", "title": "Findings", "type": "Class"}, "parentProduct": {"href": "/mdr/sendig/genetox-1-0", "title": "Standard for Exchange of Nonclinical Data Implementation Guide: Genetic Toxicology", "type": "Implementation Guide"}, "self": {"href": "/mdr/sendig/genetox-1-0/datasets/GV", "title": "Genetic Toxicology - In Vivo", "type": "SDTM Dataset"}}, "datasetStructure": "One record per test per specimen material type per observation time per subject", "datasetVariables": [{"_links": {"modelClassVariable": {"href": "/mdr/sdtm/1-5/classes/GeneralObservations/variables/STUDYID", "title": "Study Identifier", "type": "Class Variable"}, "parentDataset": {"href": "/mdr/sendig/genetox-1-0/datasets/GV", "title": "Genetic Toxicology - In Vivo", "type": "SDTM Dataset"}, "parentProduct": {"href": "/mdr/sendig/genetox-1-0", "title": "Standard for Exchange of Nonclinical Data Implementation Guide: Genetic Toxicology", "type": "Implementation Guide"}, "rootItem": {"href": "/mdr/root/sendig/datasets/GV/variables/STUDYID", "title": "Version-agnostic anchor resource for SENDIG variable GV.STUDYID", "type": "Root Data Element"}, "self": {"href": "/mdr/sendig/genetox-1-0/datasets/GV/variables/STUDYID", "title": "Study Identifier", "type": "SDTM Dataset Variable"}}, "core": "Req", "description": "Unique identifier for a study.", "label": "Study Identifier", "name": "STUDYID", "ordinal": "1", "role": "Identifier", "simpleDatatype": "Char"}, {"_links": {"modelClassVariable": {"href": "/mdr/sdtm/1-5/classes/GeneralObservations/variables/DOMAIN", "title": "Domain Abbreviation", "type": "Class Variable"}, "parentDataset": {"href": "/mdr/sendig/genetox-1-0/datasets/GV", "title": "Genetic Toxicology - In Vivo", "type": "SDTM Dataset"}, "parentProduct": {"href": "/mdr/sendig/genetox-1-0", "title": "Standard for Exchange of Nonclinical Data Implementation Guide: Genetic Toxicology", "type": "Implementation Guide"}, "rootItem": {"href": "/mdr/root/sendig/datasets/GV/variables/DOMAIN", "title": "Version-agnostic anchor resource for SENDIG variable GV.DOMAIN", "type": "Root Data Element"}, "self": {"href": "/mdr/sendig/genetox-1-0/datasets/GV/variables/DOMAIN", "title": "Domain Abbreviation", "type": "SDTM Dataset Variable"}}, "core": "Req", "description": "Two-character abbreviation for the domain.", "label": "Domain Abbreviation", "name": "DOMAIN", "ordinal": "2", "role": "Identifier", "simpleDatatype": "Char", "valueList": ["GV"]}, {"_links": {"modelClassVariable": {"href": "/mdr/sdtm/1-5/classes/GeneralObservations/variables/USUBJID", "title": "Unique Subject Identifier", "type": "Class Variable"}, "parentDataset": {"href": "/mdr/sendig/genetox-1-0/datasets/GV", "title": "Genetic Toxicology - In Vivo", "type": "SDTM Dataset"}, "parentProduct": {"href": "/mdr/sendig/genetox-1-0", "title": "Standard for Exchange of Nonclinical Data Implementation Guide: Genetic Toxicology", "type": "Implementation Guide"}, "rootItem": {"href": "/mdr/root/sendig/datasets/GV/variables/USUBJID", "title": "Version-agnostic anchor resource for SENDIG variable GV.USUBJID", "type": "Root Data Element"}, "self": {"href": "/mdr/sendig/genetox-1-0/datasets/GV/variables/USUBJID", "title": "Unique Subject Identifier", "type": "SDTM Dataset Variable"}}, "core": "Req", "description": "Identifier used to uniquely identify a subject across all studies for all application or submissions involving the product.", "label": "Unique Subject Identifier", "name": "USUBJID", "ordinal": "3", "role": "Identifier", "simpleDatatype": "Char"}, {"_links": {"modelClassVariable": {"href": "/mdr/sdtm/1-5/classes/GeneralObservations/variables/--SEQ", "title": "Sequence Number", "type": "Class Variable"}, "parentDataset": {"href": "/mdr/sendig/genetox-1-0/datasets/GV", "title": "Genetic Toxicology - In Vivo", "type": "SDTM Dataset"}, "parentProduct": {"href": "/mdr/sendig/genetox-1-0", "title": "Standard for Exchange of Nonclinical Data Implementation Guide: Genetic Toxicology", "type": "Implementation Guide"}, "rootItem": {"href": "/mdr/root/sendig/datasets/GV/variables/GVSEQ", "title": "Version-agnostic anchor resource for SENDIG variable GV.GVSEQ", "type": "Root Data Element"}, "self": {"href": "/mdr/sendig/genetox-1-0/datasets/GV/variables/GVSEQ", "title": "Sequence Number", "type": "SDTM Dataset Variable"}}, "core": "Req", "description": "The sequence number must be unique for each record within a USUBJID.", "label": "Sequence Number", "name": "GVSEQ", "ordinal": "4", "role": "Identifier", "simpleDatatype": "Num"}, {"_links": {"modelClassVariable": {"href": "/mdr/sdtm/1-5/classes/GeneralObservations/variables/--GRPID", "title": "Group ID", "type": "Class Variable"}, "parentDataset": {"href": "/mdr/sendig/genetox-1-0/datasets/GV", "title": "Genetic Toxicology - In Vivo", "type": "SDTM Dataset"}, "parentProduct": {"href": "/mdr/sendig/genetox-1-0", "title": "Standard for Exchange of Nonclinical Data Implementation Guide: Genetic Toxicology", "type": "Implementation Guide"}, "rootItem": {"href": "/mdr/root/sendig/datasets/GV/variables/GVGRPID", "title": "Version-agnostic anchor resource for SENDIG variable GV.GVGRPID", "type": "Root Data Element"}, "self": {"href": "/mdr/sendig/genetox-1-0/datasets/GV/variables/GVGRPID", "title": "Group ID", "type": "SDTM Dataset Variable"}}, "core": "Perm", "description": "Optional group identifier, used to link together a block of related records within a subject in a domain.", "label": "Group ID", "name": "GVGRPID", "ordinal": "5", "role": "Identifier", "simpleDatatype": "Char"}, {"_links": {"modelClassVariable": {"href": "/mdr/sdtm/1-5/classes/GeneralObservations/variables/--REFID", "title": "Reference ID", "type": "Class Variable"}, "parentDataset": {"href": "/mdr/sendig/genetox-1-0/datasets/GV", "title": "Genetic Toxicology - In Vivo", "type": "SDTM Dataset"}, "parentProduct": {"href": "/mdr/sendig/genetox-1-0", "title": "Standard for Exchange of Nonclinical Data Implementation Guide: Genetic Toxicology", "type": "Implementation Guide"}, "rootItem": {"href": "/mdr/root/sendig/datasets/GV/variables/GVREFID", "title": "Version-agnostic anchor resource for SENDIG variable GV.GVREFID", "type": "Root Data Element"}, "self": {"href": "/mdr/sendig/genetox-1-0/datasets/GV/variables/GVREFID", "title": "Specimen Identifier", "type": "SDTM Dataset Variable"}}, "core": "Perm", "description": "Slide or gel label. Examples: 1101-1 or 1101-2 for the first and second slides for animal 1101 or 1101A and 1101B respectively, or sample label for flow cytometry results. May be blank for example when the record represents an animal level result.", "label": "Specimen Identifier", "name": "GVREFID", "ordinal": "6", "role": "Identifier", "simpleDatatype": "Char"}, {"_links": {"modelClassVariable": {"href": "/mdr/sdtm/1-5/classes/GeneralObservations/variables/--SPID", "title": "Sponsor-Defined Identifier", "type": "Class Variable"}, "parentDataset": {"href": "/mdr/sendig/genetox-1-0/datasets/GV", "title": "Genetic Toxicology - In Vivo", "type": "SDTM Dataset"}, "parentProduct": {"href": "/mdr/sendig/genetox-1-0", "title": "Standard for Exchange of Nonclinical Data Implementation Guide: Genetic Toxicology", "type": "Implementation Guide"}, "rootItem": {"href": "/mdr/root/sendig/datasets/GV/variables/GVSPID", "title": "Version-agnostic anchor resource for SENDIG variable GV.GVSPID", "type": "Root Data Element"}, "self": {"href": "/mdr/sendig/genetox-1-0/datasets/GV/variables/GVSPID", "title": "Sponsor-Defined Identifier", "type": "SDTM Dataset Variable"}}, "core": "Perm", "description": "Sponsor-defined reference number. Example: Line number on the Lab page.", "label": "Sponsor-Defined Identifier", "name": "GVSPID", "ordinal": "7", "role": "Topic", "simpleDatatype": "Char"}, {"_links": {"modelClassVariable": {"href": "/mdr/sdtm/1-5/classes/Findings/variables/--TESTCD", "title": "Short Name of Measurement, Test or Examination", "type": "Class Variable"}, "parentDataset": {"href": "/mdr/sendig/genetox-1-0/datasets/GV", "title": "Genetic Toxicology - In Vivo", "type": "SDTM Dataset"}, "parentProduct": {"href": "/mdr/sendig/genetox-1-0", "title": "Standard for Exchange of Nonclinical Data Implementation Guide: Genetic Toxicology", "type": "Implementation Guide"}, "rootItem": {"href": "/mdr/root/sendig/datasets/GV/variables/GVTESTCD", "title": "Version-agnostic anchor resource for SENDIG variable GV.GVTESTCD", "type": "Root Data Element"}, "self": {"href": "/mdr/sendig/genetox-1-0/datasets/GV/variables/GVTESTCD", "title": "Lab Test or Examination Short Name", "type": "SDTM Dataset Variable"}}, "codelistSubmissionValues": ["GVTESTCD"], "core": "Req", "description": "Short name of the measurement, test, or examination described in GVTEST. It can be used as a column name when converting a dataset from a vertical to a horizontal format. The value in GVTESTCD cannot be longer than 8 characters, nor can it start with a number (e.g., \"1TEST\" is not valid). GVTESTCD cannot contain characters other than letters, numbers, or underscores. Examples: NCE, PCE.", "label": "Lab Test or Examination Short Name", "name": "GVTESTCD", "ordinal": "8", "role": "Grouping Qualifier", "simpleDatatype": "Char"}, {"_links": {"modelClassVariable": {"href": "/mdr/sdtm/1-5/classes/Findings/variables/--TEST", "title": "Name of Measurement, Test or Examination", "type": "Class Variable"}, "parentDataset": {"href": "/mdr/sendig/genetox-1-0/datasets/GV", "title": "Genetic Toxicology - In Vivo", "type": "SDTM Dataset"}, "parentProduct": {"href": "/mdr/sendig/genetox-1-0", "title": "Standard for Exchange of Nonclinical Data Implementation Guide: Genetic Toxicology", "type": "Implementation Guide"}, "rootItem": {"href": "/mdr/root/sendig/datasets/GV/variables/GVTEST", "title": "Version-agnostic anchor resource for SENDIG variable GV.GVTEST", "type": "Root Data Element"}, "self": {"href": "/mdr/sendig/genetox-1-0/datasets/GV/variables/GVTEST", "title": "Lab Test or Examination Name", "type": "SDTM Dataset Variable"}}, "codelistSubmissionValues": ["GVTEST"], "core": "Req", "description": "Long name for GVTESTCD. The value in GVTEST cannot be longer than 40 characters. Examples: Normochromatic Erythrocytes, Immature Erythrocytes .", "label": "Lab Test or Examination Name", "name": "GVTEST", "ordinal": "9", "role": "Grouping Qualifier", "simpleDatatype": "Char"}, {"_links": {"modelClassVariable": {"href": "/mdr/sdtm/1-5/classes/Findings/variables/--CAT", "title": "Category", "type": "Class Variable"}, "parentDataset": {"href": "/mdr/sendig/genetox-1-0/datasets/GV", "title": "Genetic Toxicology - In Vivo", "type": "SDTM Dataset"}, "parentProduct": {"href": "/mdr/sendig/genetox-1-0", "title": "Standard for Exchange of Nonclinical Data Implementation Guide: Genetic Toxicology", "type": "Implementation Guide"}, "rootItem": {"href": "/mdr/root/sendig/datasets/GV/variables/GVCAT", "title": "Version-agnostic anchor resource for SENDIG variable GV.GVCAT", "type": "Root Data Element"}, "self": {"href": "/mdr/sendig/genetox-1-0/datasets/GV/variables/GVCAT", "title": "Category for Genetox In-Vivo Test", "type": "SDTM Dataset Variable"}}, "codelistSubmissionValues": ["GVCAT"], "core": "Exp", "description": "Assay Type - IN VIVO COMET, IN VIVO MICRONUCLEUS.", "label": "Category for Genetox In-Vivo Test", "name": "GVCAT", "ordinal": "10", "role": "Record Qualifier", "simpleDatatype": "Char"}, {"_links": {"modelClassVariable": {"href": "/mdr/sdtm/1-5/classes/Findings/variables/--SCAT", "title": "Subcategory", "type": "Class Variable"}, "parentDataset": {"href": "/mdr/sendig/genetox-1-0/datasets/GV", "title": "Genetic Toxicology - In Vivo", "type": "SDTM Dataset"}, "parentProduct": {"href": "/mdr/sendig/genetox-1-0", "title": "Standard for Exchange of Nonclinical Data Implementation Guide: Genetic Toxicology", "type": "Implementation Guide"}, "rootItem": {"href": "/mdr/root/sendig/datasets/GV/variables/GVSCAT", "title": "Version-agnostic anchor resource for SENDIG variable GV.GVSCAT", "type": "Root Data Element"}, "self": {"href": "/mdr/sendig/genetox-1-0/datasets/GV/variables/GVSCAT", "title": "Subcategory for Genetox In-Vivo Test", "type": "SDTM Dataset Variable"}}, "codelistSubmissionValues": ["GVSCAT"], "core": "Exp", "description": "Analysis Intention: Cytotoxicity, Genotoxicity.", "label": "Subcategory for Genetox In-Vivo Test", "name": "GVSCAT", "ordinal": "11", "role": "Record Qualifier", "simpleDatatype": "Char"}, {"_links": {"modelClassVariable": {"href": "/mdr/sdtm/1-5/classes/Findings/variables/--ORRES", "title": "Result or Finding in Original Units", "type": "Class Variable"}, "parentDataset": {"href": "/mdr/sendig/genetox-1-0/datasets/GV", "title": "Genetic Toxicology - In Vivo", "type": "SDTM Dataset"}, "parentProduct": {"href": "/mdr/sendig/genetox-1-0", "title": "Standard for Exchange of Nonclinical Data Implementation Guide: Genetic Toxicology", "type": "Implementation Guide"}, "rootItem": {"href": "/mdr/root/sendig/datasets/GV/variables/GVORRES", "title": "Version-agnostic anchor resource for SENDIG variable GV.GVORRES", "type": "Root Data Element"}, "self": {"href": "/mdr/sendig/genetox-1-0/datasets/GV/variables/GVORRES", "title": "Result or Findings as Collected", "type": "SDTM Dataset Variable"}}, "core": "Exp", "description": "Result of the measurement or finding as originally received or collected.", "label": "Result or Findings as Collected", "name": "GVORRES", "ordinal": "12", "role": "Record Qualifier", "simpleDatatype": "Char"}, {"_links": {"codelist": [{"href": "/mdr/root/ct/sendct/codelists/C71620", "title": "Version-agnostic anchor resource for codelist C71620", "type": "Root Value Domain"}], "modelClassVariable": {"href": "/mdr/sdtm/1-5/classes/Findings/variables/--ORRESU", "title": "Original Units", "type": "Class Variable"}, "parentDataset": {"href": "/mdr/sendig/genetox-1-0/datasets/GV", "title": "Genetic Toxicology - In Vivo", "type": "SDTM Dataset"}, "parentProduct": {"href": "/mdr/sendig/genetox-1-0", "title": "Standard for Exchange of Nonclinical Data Implementation Guide: Genetic Toxicology", "type": "Implementation Guide"}, "rootItem": {"href": "/mdr/root/sendig/datasets/GV/variables/GVORRESU", "title": "Version-agnostic anchor resource for SENDIG variable GV.GVORRESU", "type": "Root Data Element"}, "self": {"href": "/mdr/sendig/genetox-1-0/datasets/GV/variables/GVORRESU", "title": "Unit of the Original Result", "type": "SDTM Dataset Variable"}}, "codelistSubmissionValues": ["UNIT"], "core": "Exp", "description": "The unit for the original result. The unit of the original result should be mapped to a synonymous unit on the Controlled Terminology list.", "label": "Unit of the Original Result", "name": "GVORRESU", "ordinal": "13", "role": "Variable Qualifier", "simpleDatatype": "Char"}, {"_links": {"modelClassVariable": {"href": "/mdr/sdtm/1-5/classes/Findings/variables/--STRESC", "title": "Result or Finding in Standard Format", "type": "Class Variable"}, "parentDataset": {"href": "/mdr/sendig/genetox-1-0/datasets/GV", "title": "Genetic Toxicology - In Vivo", "type": "SDTM Dataset"}, "parentProduct": {"href": "/mdr/sendig/genetox-1-0", "title": "Standard for Exchange of Nonclinical Data Implementation Guide: Genetic Toxicology", "type": "Implementation Guide"}, "rootItem": {"href": "/mdr/root/sendig/datasets/GV/variables/GVSTRESC", "title": "Version-agnostic anchor resource for SENDIG variable GV.GVSTRESC", "type": "Root Data Element"}, "self": {"href": "/mdr/sendig/genetox-1-0/datasets/GV/variables/GVSTRESC", "title": "Standardized Result in Character Format", "type": "SDTM Dataset Variable"}}, "core": "Exp", "description": "Contains the result value for all findings, copied or derived from GVORRES in a standard format or standard units. GVSTRESC should store all results or findings in character format; if results are numeric, they should also be stored in numeric format in GVSTRESN.", "label": "Standardized Result in Character Format", "name": "GVSTRESC", "ordinal": "14", "role": "Variable Qualifier", "simpleDatatype": "Char"}, {"_links": {"modelClassVariable": {"href": "/mdr/sdtm/1-5/classes/Findings/variables/--STRESN", "title": "Numeric Result/Finding in Standard Units", "type": "Class Variable"}, "parentDataset": {"href": "/mdr/sendig/genetox-1-0/datasets/GV", "title": "Genetic Toxicology - In Vivo", "type": "SDTM Dataset"}, "parentProduct": {"href": "/mdr/sendig/genetox-1-0", "title": "Standard for Exchange of Nonclinical Data Implementation Guide: Genetic Toxicology", "type": "Implementation Guide"}, "rootItem": {"href": "/mdr/root/sendig/datasets/GV/variables/GVSTRESN", "title": "Version-agnostic anchor resource for SENDIG variable GV.GVSTRESN", "type": "Root Data Element"}, "self": {"href": "/mdr/sendig/genetox-1-0/datasets/GV/variables/GVSTRESN", "title": "Standardized Result in Numeric Format", "type": "SDTM Dataset Variable"}}, "core": "Exp", "description": "Used for numeric results or findings in standard format; contains the numeric form of GVSTRESC. GVSTRESN should store all numeric test results or findings.", "label": "Standardized Result in Numeric Format", "name": "GVSTRESN", "ordinal": "15", "role": "Variable Qualifier", "simpleDatatype": "Num"}, {"_links": {"codelist": [{"href": "/mdr/root/ct/sendct/codelists/C71620", "title": "Version-agnostic anchor resource for codelist C71620", "type": "Root Value Domain"}], "modelClassVariable": {"href": "/mdr/sdtm/1-5/classes/Findings/variables/--STRESU", "title": "Standard Units", "type": "Class Variable"}, "parentDataset": {"href": "/mdr/sendig/genetox-1-0/datasets/GV", "title": "Genetic Toxicology - In Vivo", "type": "SDTM Dataset"}, "parentProduct": {"href": "/mdr/sendig/genetox-1-0", "title": "Standard for Exchange of Nonclinical Data Implementation Guide: Genetic Toxicology", "type": "Implementation Guide"}, "rootItem": {"href": "/mdr/root/sendig/datasets/GV/variables/GVSTRESU", "title": "Version-agnostic anchor resource for SENDIG variable GV.GVSTRESU", "type": "Root Data Element"}, "self": {"href": "/mdr/sendig/genetox-1-0/datasets/GV/variables/GVSTRESU", "title": "Unit of the Standardized Result", "type": "SDTM Dataset Variable"}}, "codelistSubmissionValues": ["UNIT"], "core": "Exp", "description": "Standardized unit used for GVSTRESC and GVSTRESN.", "label": "Unit of the Standardized Result", "name": "GVSTRESU", "ordinal": "16", "role": "Record Qualifier", "simpleDatatype": "Char"}, {"_links": {"codelist": [{"href": "/mdr/root/ct/sendct/codelists/C66789", "title": "Version-agnostic anchor resource for codelist C66789", "type": "Root Value Domain"}], "modelClassVariable": {"href": "/mdr/sdtm/1-5/classes/Findings/variables/--STAT", "title": "Completion Status", "type": "Class Variable"}, "parentDataset": {"href": "/mdr/sendig/genetox-1-0/datasets/GV", "title": "Genetic Toxicology - In Vivo", "type": "SDTM Dataset"}, "parentProduct": {"href": "/mdr/sendig/genetox-1-0", "title": "Standard for Exchange of Nonclinical Data Implementation Guide: Genetic Toxicology", "type": "Implementation Guide"}, "rootItem": {"href": "/mdr/root/sendig/datasets/GV/variables/GVSTAT", "title": "Version-agnostic anchor resource for SENDIG variable GV.GVSTAT", "type": "Root Data Element"}, "self": {"href": "/mdr/sendig/genetox-1-0/datasets/GV/variables/GVSTAT", "title": "Completion Status", "type": "SDTM Dataset Variable"}}, "codelistSubmissionValues": ["ND"], "core": "Perm", "description": "Used to indicate when a test is not done or result is missing. Should be null if a result exists in GVORRES.", "label": "Completion Status", "name": "GVSTAT", "ordinal": "17", "role": "Variable Qualifier", "simpleDatatype": "Char"}, {"_links": {"modelClassVariable": {"href": "/mdr/sdtm/1-5/classes/Findings/variables/--REASND", "title": "Reason Not Done", "type": "Class Variable"}, "parentDataset": {"href": "/mdr/sendig/genetox-1-0/datasets/GV", "title": "Genetic Toxicology - In Vivo", "type": "SDTM Dataset"}, "parentProduct": {"href": "/mdr/sendig/genetox-1-0", "title": "Standard for Exchange of Nonclinical Data Implementation Guide: Genetic Toxicology", "type": "Implementation Guide"}, "rootItem": {"href": "/mdr/root/sendig/datasets/GV/variables/GVREASND", "title": "Version-agnostic anchor resource for SENDIG variable GV.GVREASND", "type": "Root Data Element"}, "self": {"href": "/mdr/sendig/genetox-1-0/datasets/GV/variables/GVREASND", "title": "Reason Not Done", "type": "SDTM Dataset Variable"}}, "core": "Perm", "description": "Describes why GVSTAT is NOT DONE, such as BROKEN EQUIPMENT or SPECIMEN LOST.", "label": "Reason Not Done", "name": "GVREASND", "ordinal": "18", "role": "Variable Qualifier", "simpleDatatype": "Char"}, {"_links": {"codelist": [{"href": "/mdr/root/ct/sendct/codelists/C77529", "title": "Version-agnostic anchor resource for codelist C77529", "type": "Root Value Domain"}], "modelClassVariable": {"href": "/mdr/sdtm/1-5/classes/Findings/variables/--SPEC", "title": "Specimen Material Type", "type": "Class Variable"}, "parentDataset": {"href": "/mdr/sendig/genetox-1-0/datasets/GV", "title": "Genetic Toxicology - In Vivo", "type": "SDTM Dataset"}, "parentProduct": {"href": "/mdr/sendig/genetox-1-0", "title": "Standard for Exchange of Nonclinical Data Implementation Guide: Genetic Toxicology", "type": "Implementation Guide"}, "rootItem": {"href": "/mdr/root/sendig/datasets/GV/variables/GVSPEC", "title": "Version-agnostic anchor resource for SENDIG variable GV.GVSPEC", "type": "Root Data Element"}, "self": {"href": "/mdr/sendig/genetox-1-0/datasets/GV/variables/GVSPEC", "title": "Specimen Material Type", "type": "SDTM Dataset Variable"}}, "codelistSubmissionValues": ["SPEC"], "core": "Exp", "description": "Defines the type of tissue, organ, or fluid specimen used as the object for the finding. Examples: \"WHOLE BLOOD\", \"BONE MARROW\", \"BONE MARROW, FEMUR\".", "label": "Specimen Material Type", "name": "GVSPEC", "ordinal": "19", "role": "Record Qualifier", "simpleDatatype": "Char"}, {"_links": {"modelClassVariable": {"href": "/mdr/sdtm/1-5/classes/Findings/variables/--ANTREG", "title": "Anatomical Region", "type": "Class Variable"}, "parentDataset": {"href": "/mdr/sendig/genetox-1-0/datasets/GV", "title": "Genetic Toxicology - In Vivo", "type": "SDTM Dataset"}, "parentProduct": {"href": "/mdr/sendig/genetox-1-0", "title": "Standard for Exchange of Nonclinical Data Implementation Guide: Genetic Toxicology", "type": "Implementation Guide"}, "rootItem": {"href": "/mdr/root/sendig/datasets/GV/variables/GVANTREG", "title": "Version-agnostic anchor resource for SENDIG variable GV.GVANTREG", "type": "Root Data Element"}, "self": {"href": "/mdr/sendig/genetox-1-0/datasets/GV/variables/GVANTREG", "title": "Anatomical Region of Specimen", "type": "SDTM Dataset Variable"}}, "core": "Perm", "description": "Defines the specific anatomical or biological region of a tissue, organ specimen, or the region from which the specimen was obtained, such as a section or part of what is defined in the GVSPEC variable. If the anatomical region is not included in the specimen description GVSPEC, it may be included in this variable. This field can be a combination of terms where needed. This field can be null if not applicable. Examples: CORTEX, MEDULLA, MUCOSA, SEROSA, ISLET, ZONA FASICULATA, ZONA RETICULARIS, CRANIAL, MEDIAN, ACCESSORY, SPINAL, LUMBAR, FRONTAL.", "label": "Anatomical Region of Specimen", "name": "GVANTREG", "ordinal": "20", "role": "Record Qualifier", "simpleDatatype": "Char"}, {"_links": {"modelClassVariable": {"href": "/mdr/sdtm/1-5/classes/Findings/variables/--SPCCND", "title": "Specimen Condition", "type": "Class Variable"}, "parentDataset": {"href": "/mdr/sendig/genetox-1-0/datasets/GV", "title": "Genetic Toxicology - In Vivo", "type": "SDTM Dataset"}, "parentProduct": {"href": "/mdr/sendig/genetox-1-0", "title": "Standard for Exchange of Nonclinical Data Implementation Guide: Genetic Toxicology", "type": "Implementation Guide"}, "rootItem": {"href": "/mdr/root/sendig/datasets/GV/variables/GVSPCCND", "title": "Version-agnostic anchor resource for SENDIG variable GV.GVSPCCND", "type": "Root Data Element"}, "self": {"href": "/mdr/sendig/genetox-1-0/datasets/GV/variables/GVSPCCND", "title": "Specimen Condition", "type": "SDTM Dataset Variable"}}, "core": "Perm", "description": "Free or standardized text describing the condition of the specimen. Example: CLOTTED, etc.", "label": "Specimen Condition", "name": "GVSPCCND", "ordinal": "21", "role": "Timing", "simpleDatatype": "Char"}, {"_links": {"codelist": [{"href": "/mdr/root/ct/sendct/codelists/C66742", "title": "Version-agnostic anchor resource for codelist C66742", "type": "Root Value Domain"}], "modelClassVariable": {"href": "/mdr/sdtm/1-5/classes/Findings/variables/--SPCUFL", "title": "Specimen Usability for the Test", "type": "Class Variable"}, "parentDataset": {"href": "/mdr/sendig/genetox-1-0/datasets/GV", "title": "Genetic Toxicology - In Vivo", "type": "SDTM Dataset"}, "parentProduct": {"href": "/mdr/sendig/genetox-1-0", "title": "Standard for Exchange of Nonclinical Data Implementation Guide: Genetic Toxicology", "type": "Implementation Guide"}, "rootItem": {"href": "/mdr/root/sendig/datasets/GV/variables/GVSPCUFL", "title": "Version-agnostic anchor resource for SENDIG variable GV.GVSPCUFL", "type": "Root Data Element"}, "self": {"href": "/mdr/sendig/genetox-1-0/datasets/GV/variables/GVSPCUFL", "title": "Specimen Usability for the Test", "type": "SDTM Dataset Variable"}}, "codelistSubmissionValues": ["NY"], "core": "Perm", "description": "Describes the usability of the specimen for the test. Should be N if the specimen is not usable; otherwise it should be null.", "label": "Specimen Usability for the Test", "name": "GVSPCUFL", "ordinal": "22", "role": "Timing", "simpleDatatype": "Char"}, {"_links": {"codelist": [{"href": "/mdr/root/ct/sendct/codelists/C99073", "title": "Version-agnostic anchor resource for codelist C99073", "type": "Root Value Domain"}], "modelClassVariable": {"href": "/mdr/sdtm/1-5/classes/Findings/variables/--LAT", "title": "Laterality", "type": "Class Variable"}, "parentDataset": {"href": "/mdr/sendig/genetox-1-0/datasets/GV", "title": "Genetic Toxicology - In Vivo", "type": "SDTM Dataset"}, "parentProduct": {"href": "/mdr/sendig/genetox-1-0", "title": "Standard for Exchange of Nonclinical Data Implementation Guide: Genetic Toxicology", "type": "Implementation Guide"}, "rootItem": {"href": "/mdr/root/sendig/datasets/GV/variables/GVLAT", "title": "Version-agnostic anchor resource for SENDIG variable GV.GVLAT", "type": "Root Data Element"}, "self": {"href": "/mdr/sendig/genetox-1-0/datasets/GV/variables/GVLAT", "title": "Specimen Laterality within Subject", "type": "SDTM Dataset Variable"}}, "codelistSubmissionValues": ["LAT"], "core": "Perm", "description": "Qualifier for laterality of the specimen within the subject for paired specimens. Examples: LEFT, RIGHT, BILATERAL.", "label": "Specimen Laterality within Subject", "name": "GVLAT", "ordinal": "23", "role": "Timing", "simpleDatatype": "Char"}, {"_links": {"codelist": [{"href": "/mdr/root/ct/sendct/codelists/C99074", "title": "Version-agnostic anchor resource for codelist C99074", "type": "Root Value Domain"}], "modelClassVariable": {"href": "/mdr/sdtm/1-5/classes/Findings/variables/--DIR", "title": "Directionality", "type": "Class Variable"}, "parentDataset": {"href": "/mdr/sendig/genetox-1-0/datasets/GV", "title": "Genetic Toxicology - In Vivo", "type": "SDTM Dataset"}, "parentProduct": {"href": "/mdr/sendig/genetox-1-0", "title": "Standard for Exchange of Nonclinical Data Implementation Guide: Genetic Toxicology", "type": "Implementation Guide"}, "rootItem": {"href": "/mdr/root/sendig/datasets/GV/variables/GVDIR", "title": "Version-agnostic anchor resource for SENDIG variable GV.GVDIR", "type": "Root Data Element"}, "self": {"href": "/mdr/sendig/genetox-1-0/datasets/GV/variables/GVDIR", "title": "Specimen Directionality within Subject", "type": "SDTM Dataset Variable"}}, "codelistSubmissionValues": ["DIR"], "core": "Perm", "description": "Qualifier for directionality of the specimen within the subject. Examples: DORSAL, PROXIMAL.", "label": "Specimen Directionality within Subject", "name": "GVDIR", "ordinal": "24", "role": "Timing", "simpleDatatype": "Char"}, {"_links": {"modelClassVariable": {"href": "/mdr/sdtm/1-5/classes/Findings/variables/--METHOD", "title": "Method of Test or Examination", "type": "Class Variable"}, "parentDataset": {"href": "/mdr/sendig/genetox-1-0/datasets/GV", "title": "Genetic Toxicology - In Vivo", "type": "SDTM Dataset"}, "parentProduct": {"href": "/mdr/sendig/genetox-1-0", "title": "Standard for Exchange of Nonclinical Data Implementation Guide: Genetic Toxicology", "type": "Implementation Guide"}, "rootItem": {"href": "/mdr/root/sendig/datasets/GV/variables/GVMETHOD", "title": "Version-agnostic anchor resource for SENDIG variable GV.GVMETHOD", "type": "Root Data Element"}, "self": {"href": "/mdr/sendig/genetox-1-0/datasets/GV/variables/GVMETHOD", "title": "Method of Test or Examination", "type": "SDTM Dataset Variable"}}, "codelistSubmissionValues": ["GVMETHOD"], "core": "Req", "description": "Method of the test or examination. Examples: flow cytometry, microscopy, fluorescent microscopy etc.", "label": "Method of Test or Examination", "name": "GVMETHOD", "ordinal": "25", "role": "Timing", "simpleDatatype": "Char"}, {"_links": {"codelist": [{"href": "/mdr/root/ct/sendct/codelists/C66742", "title": "Version-agnostic anchor resource for codelist C66742", "type": "Root Value Domain"}], "modelClassVariable": {"href": "/mdr/sdtm/1-5/classes/Findings/variables/--BLFL", "title": "Baseline Flag", "type": "Class Variable"}, "parentDataset": {"href": "/mdr/sendig/genetox-1-0/datasets/GV", "title": "Genetic Toxicology - In Vivo", "type": "SDTM Dataset"}, "parentProduct": {"href": "/mdr/sendig/genetox-1-0", "title": "Standard for Exchange of Nonclinical Data Implementation Guide: Genetic Toxicology", "type": "Implementation Guide"}, "rootItem": {"href": "/mdr/root/sendig/datasets/GV/variables/GVBLFL", "title": "Version-agnostic anchor resource for SENDIG variable GV.GVBLFL", "type": "Root Data Element"}, "self": {"href": "/mdr/sendig/genetox-1-0/datasets/GV/variables/GVBLFL", "title": "Baseline Flag", "type": "SDTM Dataset Variable"}}, "codelistSubmissionValues": ["NY"], "core": "Exp", "description": "A baseline indicator may be used to calculate differences or changes from baseline. Value should be Y or null. The baseline flag is sponsor defined.", "label": "Baseline Flag", "name": "GVBLFL", "ordinal": "26", "role": "Timing", "simpleDatatype": "Char"}, {"_links": {"codelist": [{"href": "/mdr/root/ct/sendct/codelists/C66742", "title": "Version-agnostic anchor resource for codelist C66742", "type": "Root Value Domain"}], "modelClassVariable": {"href": "/mdr/sdtm/1-5/classes/Findings/variables/--FAST", "title": "Fasting Status", "type": "Class Variable"}, "parentDataset": {"href": "/mdr/sendig/genetox-1-0/datasets/GV", "title": "Genetic Toxicology - In Vivo", "type": "SDTM Dataset"}, "parentProduct": {"href": "/mdr/sendig/genetox-1-0", "title": "Standard for Exchange of Nonclinical Data Implementation Guide: Genetic Toxicology", "type": "Implementation Guide"}, "rootItem": {"href": "/mdr/root/sendig/datasets/GV/variables/GVFAST", "title": "Version-agnostic anchor resource for SENDIG variable GV.GVFAST", "type": "Root Data Element"}, "self": {"href": "/mdr/sendig/genetox-1-0/datasets/GV/variables/GVFAST", "title": "Fasting Status", "type": "SDTM Dataset Variable"}}, "codelistSubmissionValues": ["NY"], "core": "Perm", "description": "Indicator used to identify fasting status. The value should be Y or null.", "label": "Fasting Status", "name": "GVFAST", "ordinal": "27", "role": "Timing", "simpleDatatype": "Char"}, {"_links": {"codelist": [{"href": "/mdr/root/ct/sendct/codelists/C66742", "title": "Version-agnostic anchor resource for codelist C66742", "type": "Root Value Domain"}], "modelClassVariable": {"href": "/mdr/sdtm/1-5/classes/Findings/variables/--DRVFL", "title": "Derived Flag", "type": "Class Variable"}, "parentDataset": {"href": "/mdr/sendig/genetox-1-0/datasets/GV", "title": "Genetic Toxicology - In Vivo", "type": "SDTM Dataset"}, "parentProduct": {"href": "/mdr/sendig/genetox-1-0", "title": "Standard for Exchange of Nonclinical Data Implementation Guide: Genetic Toxicology", "type": "Implementation Guide"}, "rootItem": {"href": "/mdr/root/sendig/datasets/GV/variables/GVDRVFL", "title": "Version-agnostic anchor resource for SENDIG variable GV.GVDRVFL", "type": "Root Data Element"}, "self": {"href": "/mdr/sendig/genetox-1-0/datasets/GV/variables/GVDRVFL", "title": "Derived Flag", "type": "SDTM Dataset Variable"}}, "codelistSubmissionValues": ["NY"], "core": "Perm", "description": "Used to indicate a derived record. The value should be Y or null. Records that represent the average of other records, or are not as originally received or collected are examples of records that might be derived for the submission datasets.", "label": "Derived Flag", "name": "GVDRVFL", "ordinal": "28", "role": "Timing", "simpleDatatype": "Char"}, {"_links": {"codelist": [{"href": "/mdr/root/ct/sendct/codelists/C66742", "title": "Version-agnostic anchor resource for codelist C66742", "type": "Root Value Domain"}], "modelClassVariable": {"href": "/mdr/sdtm/1-5/classes/Findings/variables/--EXCLFL", "title": "Exclude from Statistics", "type": "Class Variable"}, "parentDataset": {"href": "/mdr/sendig/genetox-1-0/datasets/GV", "title": "Genetic Toxicology - In Vivo", "type": "SDTM Dataset"}, "parentProduct": {"href": "/mdr/sendig/genetox-1-0", "title": "Standard for Exchange of Nonclinical Data Implementation Guide: Genetic Toxicology", "type": "Implementation Guide"}, "rootItem": {"href": "/mdr/root/sendig/datasets/GV/variables/GVEXCLFL", "title": "Version-agnostic anchor resource for SENDIG variable GV.GVEXCLFL", "type": "Root Data Element"}, "self": {"href": "/mdr/sendig/genetox-1-0/datasets/GV/variables/GVEXCLFL", "title": "Exclusion Flag", "type": "SDTM Dataset Variable"}}, "codelistSubmissionValues": ["NY"], "core": "Perm", "description": "Y if the result should be excluded from all calculations, otherwise null.", "label": "Exclusion Flag", "name": "GVEXCLFL", "ordinal": "29", "role": "Timing", "simpleDatatype": "Char"}, {"_links": {"modelClassVariable": {"href": "/mdr/sdtm/1-5/classes/Findings/variables/--REASEX", "title": "Reason for Exclusion from Statistics", "type": "Class Variable"}, "parentDataset": {"href": "/mdr/sendig/genetox-1-0/datasets/GV", "title": "Genetic Toxicology - In Vivo", "type": "SDTM Dataset"}, "parentProduct": {"href": "/mdr/sendig/genetox-1-0", "title": "Standard for Exchange of Nonclinical Data Implementation Guide: Genetic Toxicology", "type": "Implementation Guide"}, "rootItem": {"href": "/mdr/root/sendig/datasets/GV/variables/GVREASEX", "title": "Version-agnostic anchor resource for SENDIG variable GV.GVREASEX", "type": "Root Data Element"}, "self": {"href": "/mdr/sendig/genetox-1-0/datasets/GV/variables/GVREASEX", "title": "Reason for Exclusion", "type": "SDTM Dataset Variable"}}, "core": "Perm", "description": "The reason the result should be excluded from all calculations. Used only when GVEXCLFL is Y.", "label": "Reason for Exclusion", "name": "GVREASEX", "ordinal": "30", "role": "Timing", "simpleDatatype": "Char"}, {"_links": {"codelist": [{"href": "/mdr/root/ct/sendct/codelists/C66742", "title": "Version-agnostic anchor resource for codelist C66742", "type": "Root Value Domain"}], "modelClassVariable": {"href": "/mdr/sdtm/1-5/classes/Findings/variables/--USCHFL", "title": "Unscheduled Flag", "type": "Class Variable"}, "parentDataset": {"href": "/mdr/sendig/genetox-1-0/datasets/GV", "title": "Genetic Toxicology - In Vivo", "type": "SDTM Dataset"}, "parentProduct": {"href": "/mdr/sendig/genetox-1-0", "title": "Standard for Exchange of Nonclinical Data Implementation Guide: Genetic Toxicology", "type": "Implementation Guide"}, "rootItem": {"href": "/mdr/root/sendig/datasets/GV/variables/GVUSCHFL", "title": "Version-agnostic anchor resource for SENDIG variable GV.GVUSCHFL", "type": "Root Data Element"}, "self": {"href": "/mdr/sendig/genetox-1-0/datasets/GV/variables/GVUSCHFL", "title": "Unscheduled Flag", "type": "SDTM Dataset Variable"}}, "codelistSubmissionValues": ["NY"], "core": "Perm", "description": "Indicates whether the timing of the specimen collection was unscheduled. If a specimen collection was performed based upon a schedule defined in the protocol, this flag should be null. Expected values are Y or null.", "label": "Unscheduled Flag", "name": "GVUSCHFL", "ordinal": "31", "role": "Timing", "simpleDatatype": "Char"}, {"_links": {"modelClassVariable": {"href": "/mdr/sdtm/1-5/classes/GeneralObservations/variables/--DTC", "title": "Date/Time of Collection", "type": "Class Variable"}, "parentDataset": {"href": "/mdr/sendig/genetox-1-0/datasets/GV", "title": "Genetic Toxicology - In Vivo", "type": "SDTM Dataset"}, "parentProduct": {"href": "/mdr/sendig/genetox-1-0", "title": "Standard for Exchange of Nonclinical Data Implementation Guide: Genetic Toxicology", "type": "Implementation Guide"}, "rootItem": {"href": "/mdr/root/sendig/datasets/GV/variables/GVDTC", "title": "Version-agnostic anchor resource for SENDIG variable GV.GVDTC", "type": "Root Data Element"}, "self": {"href": "/mdr/sendig/genetox-1-0/datasets/GV/variables/GVDTC", "title": "Date/Time of Specimen Collection", "type": "SDTM Dataset Variable"}}, "core": "Exp", "describedValueDomain": "ISO 8601", "description": "Date/Time in ISO 8601 format. For live subjects, this is the date/time of specimen collection or observation. For post-mortem specimen collection, this is the date/time of death.", "label": "Date/Time of Specimen Collection", "name": "GVDTC", "ordinal": "32", "role": "Timing", "simpleDatatype": "Char"}, {"_links": {"modelClassVariable": {"href": "/mdr/sdtm/1-5/classes/GeneralObservations/variables/--DY", "title": "Study Day of Visit/Collection/Exam", "type": "Class Variable"}, "parentDataset": {"href": "/mdr/sendig/genetox-1-0/datasets/GV", "title": "Genetic Toxicology - In Vivo", "type": "SDTM Dataset"}, "parentProduct": {"href": "/mdr/sendig/genetox-1-0", "title": "Standard for Exchange of Nonclinical Data Implementation Guide: Genetic Toxicology", "type": "Implementation Guide"}, "rootItem": {"href": "/mdr/root/sendig/datasets/GV/variables/GVDY", "title": "Version-agnostic anchor resource for SENDIG variable GV.GVDY", "type": "Root Data Element"}, "self": {"href": "/mdr/sendig/genetox-1-0/datasets/GV/variables/GVDY", "title": "Study Day of Specimen Collection", "type": "SDTM Dataset Variable"}}, "core": "Perm", "description": "Study day of the specimen collection in integer days. The algorithm for calculations must be relative to the sponsor-defined RFSTDTC variable in the Demographics (DM) domain.", "label": "Study Day of Specimen Collection", "name": "GVDY", "ordinal": "33", "role": "Timing", "simpleDatatype": "Num"}, {"_links": {"modelClassVariable": {"href": "/mdr/sdtm/1-5/classes/GeneralObservations/variables/--NOMDY", "title": "Nominal Study Day for Tabulations", "type": "Class Variable"}, "parentDataset": {"href": "/mdr/sendig/genetox-1-0/datasets/GV", "title": "Genetic Toxicology - In Vivo", "type": "SDTM Dataset"}, "parentProduct": {"href": "/mdr/sendig/genetox-1-0", "title": "Standard for Exchange of Nonclinical Data Implementation Guide: Genetic Toxicology", "type": "Implementation Guide"}, "rootItem": {"href": "/mdr/root/sendig/datasets/GV/variables/GVNOMDY", "title": "Version-agnostic anchor resource for SENDIG variable GV.GVNOMDY", "type": "Root Data Element"}, "self": {"href": "/mdr/sendig/genetox-1-0/datasets/GV/variables/GVNOMDY", "title": "Nominal Study Day for Tabulations", "type": "SDTM Dataset Variable"}}, "core": "Exp", "description": "The nominal study day used by data-collection and reporting systems for grouping records for observations that may be scheduled to occur on different days into a single study day (such as for output on a tabulation report). It should be an integer. Best practice is to utilize the first day of data collection for interval attempting to group.", "label": "Nominal Study Day for Tabulations", "name": "GVNOMDY", "ordinal": "34", "role": "Timing", "simpleDatatype": "Num"}, {"_links": {"modelClassVariable": {"href": "/mdr/sdtm/1-5/classes/GeneralObservations/variables/--NOMLBL", "title": "Label for Nominal Study Day", "type": "Class Variable"}, "parentDataset": {"href": "/mdr/sendig/genetox-1-0/datasets/GV", "title": "Genetic Toxicology - In Vivo", "type": "SDTM Dataset"}, "parentProduct": {"href": "/mdr/sendig/genetox-1-0", "title": "Standard for Exchange of Nonclinical Data Implementation Guide: Genetic Toxicology", "type": "Implementation Guide"}, "rootItem": {"href": "/mdr/root/sendig/datasets/GV/variables/GVNOMLBL", "title": "Version-agnostic anchor resource for SENDIG variable GV.GVNOMLBL", "type": "Root Data Element"}, "self": {"href": "/mdr/sendig/genetox-1-0/datasets/GV/variables/GVNOMLBL", "title": "Label for Nominal Study Day", "type": "SDTM Dataset Variable"}}, "core": "Perm", "description": "GVNOMLBL is to provide additional information needed to further clarify content of GVNOMDY for Grouping. GVNOMLBL should not duplicate any other information in another variable for that record, and should only be populated when additional information is needed to further clarify content of GVNOMDY for grouping and is useful.", "label": "Label for Nominal Study Day", "name": "GVNOMLBL", "ordinal": "35", "role": "Timing", "simpleDatatype": "Char"}, {"_links": {"modelClassVariable": {"href": "/mdr/sdtm/1-5/classes/GeneralObservations/variables/--TPT", "title": "Planned Time Point Name", "type": "Class Variable"}, "parentDataset": {"href": "/mdr/sendig/genetox-1-0/datasets/GV", "title": "Genetic Toxicology - In Vivo", "type": "SDTM Dataset"}, "parentProduct": {"href": "/mdr/sendig/genetox-1-0", "title": "Standard for Exchange of Nonclinical Data Implementation Guide: Genetic Toxicology", "type": "Implementation Guide"}, "rootItem": {"href": "/mdr/root/sendig/datasets/GV/variables/GVTPT", "title": "Version-agnostic anchor resource for SENDIG variable GV.GVTPT", "type": "Root Data Element"}, "self": {"href": "/mdr/sendig/genetox-1-0/datasets/GV/variables/GVTPT", "title": "Planned Time Point Name", "type": "SDTM Dataset Variable"}}, "core": "Perm", "description": "Text Description of time when specimen should be taken. \\n This may be represented as an elapsed time relative to a fixed reference point, such as time of last dose. See GVTPTNUM and GVTPTREF. Examples: Start of dosing, 5 min post dosing.", "label": "Planned Time Point Name", "name": "GVTPT", "ordinal": "36", "role": "Timing", "simpleDatatype": "Char"}, {"_links": {"modelClassVariable": {"href": "/mdr/sdtm/1-5/classes/GeneralObservations/variables/--TPTNUM", "title": "Planned Time Point Number", "type": "Class Variable"}, "parentDataset": {"href": "/mdr/sendig/genetox-1-0/datasets/GV", "title": "Genetic Toxicology - In Vivo", "type": "SDTM Dataset"}, "parentProduct": {"href": "/mdr/sendig/genetox-1-0", "title": "Standard for Exchange of Nonclinical Data Implementation Guide: Genetic Toxicology", "type": "Implementation Guide"}, "rootItem": {"href": "/mdr/root/sendig/datasets/GV/variables/GVTPTNUM", "title": "Version-agnostic anchor resource for SENDIG variable GV.GVTPTNUM", "type": "Root Data Element"}, "self": {"href": "/mdr/sendig/genetox-1-0/datasets/GV/variables/GVTPTNUM", "title": "Planned Time Point Number", "type": "SDTM Dataset Variable"}}, "core": "Perm", "description": "Numerical version of GVTPT to aid in sorting.", "label": "Planned Time Point Number", "name": "GVTPTNUM", "ordinal": "37", "role": "Timing", "simpleDatatype": "Num"}, {"_links": {"modelClassVariable": {"href": "/mdr/sdtm/1-5/classes/GeneralObservations/variables/--ELTM", "title": "Planned Elapsed Time from Time Point Ref", "type": "Class Variable"}, "parentDataset": {"href": "/mdr/sendig/genetox-1-0/datasets/GV", "title": "Genetic Toxicology - In Vivo", "type": "SDTM Dataset"}, "parentProduct": {"href": "/mdr/sendig/genetox-1-0", "title": "Standard for Exchange of Nonclinical Data Implementation Guide: Genetic Toxicology", "type": "Implementation Guide"}, "rootItem": {"href": "/mdr/root/sendig/datasets/GV/variables/GVELTM", "title": "Version-agnostic anchor resource for SENDIG variable GV.GVELTM", "type": "Root Data Element"}, "self": {"href": "/mdr/sendig/genetox-1-0/datasets/GV/variables/GVELTM", "title": "Planned Elapsed Time from Time Point Ref", "type": "SDTM Dataset Variable"}}, "core": "Perm", "describedValueDomain": "ISO 8601", "description": "Elapsed time (in ISO 8601) relative to a planned fixed reference (GVTPTREF). This variable is useful where there are repetitive measures. Not a clock time or a date/time variable. Represented as an ISO 8601 duration. Examples: \"-P15M\" to represent the period of 15 minutes prior to the reference point indicated by GVTPTREF, or \"P8H\" to represent the period of 8 hours after the reference point indicated by GVTPTREF.", "label": "Planned Elapsed Time from Time Point Ref", "name": "GVELTM", "ordinal": "38", "role": "Timing", "simpleDatatype": "Char"}, {"_links": {"modelClassVariable": {"href": "/mdr/sdtm/1-5/classes/GeneralObservations/variables/--TPTREF", "title": "Time Point Reference", "type": "Class Variable"}, "parentDataset": {"href": "/mdr/sendig/genetox-1-0/datasets/GV", "title": "Genetic Toxicology - In Vivo", "type": "SDTM Dataset"}, "parentProduct": {"href": "/mdr/sendig/genetox-1-0", "title": "Standard for Exchange of Nonclinical Data Implementation Guide: Genetic Toxicology", "type": "Implementation Guide"}, "rootItem": {"href": "/mdr/root/sendig/datasets/GV/variables/GVTPTREF", "title": "Version-agnostic anchor resource for SENDIG variable GV.GVTPTREF", "type": "Root Data Element"}, "self": {"href": "/mdr/sendig/genetox-1-0/datasets/GV/variables/GVTPTREF", "title": "Time Point Reference", "type": "SDTM Dataset Variable"}}, "core": "Perm", "description": "Name of the fixed reference point referred to by GVELTM, if used for GVTPTNUM, and GVTPT. Examples: Day 28 DOSE.", "label": "Time Point Reference", "name": "GVTPTREF", "ordinal": "39", "role": "Timing", "simpleDatatype": "Char"}, {"_links": {"modelClassVariable": {"href": "/mdr/sdtm/1-5/classes/GeneralObservations/variables/--RFTDTC", "title": "Date/Time of Reference Time Point", "type": "Class Variable"}, "parentDataset": {"href": "/mdr/sendig/genetox-1-0/datasets/GV", "title": "Genetic Toxicology - In Vivo", "type": "SDTM Dataset"}, "parentProduct": {"href": "/mdr/sendig/genetox-1-0", "title": "Standard for Exchange of Nonclinical Data Implementation Guide: Genetic Toxicology", "type": "Implementation Guide"}, "rootItem": {"href": "/mdr/root/sendig/datasets/GV/variables/GVRFTDTC", "title": "Version-agnostic anchor resource for SENDIG variable GV.GVRFTDTC", "type": "Root Data Element"}, "self": {"href": "/mdr/sendig/genetox-1-0/datasets/GV/variables/GVRFTDTC", "title": "Date/Time of Reference Time Point", "type": "SDTM Dataset Variable"}}, "core": "Perm", "describedValueDomain": "ISO 8601", "description": "Date/Time of the reference time point, GVTPTREF.", "label": "Date/Time of Reference Time Point", "name": "GVRFTDTC", "ordinal": "40", "role": "Timing", "simpleDatatype": "Char"}], "description": "Pending", "label": "Genetic Toxicology - In Vivo", "name": "GV", "ordinal": "1"}
