{"_links": {"parentClass": {"href": "/mdr/sdtmig/3-3/classes/Events", "title": "Events Observation Class", "type": "Class"}, "parentProduct": {"href": "/mdr/sdtmig/3-3", "title": "Study Data Tabulation Model Implementation Guide: Human Clinical Trials Version 3.3 (Final)", "type": "Implementation Guide"}, "priorVersion": {"href": "/mdr/sdtmig/3-2/datasets/CE", "title": "Clinical Events", "type": "SDTM Dataset"}, "self": {"href": "/mdr/sdtmig/3-3/datasets/CE", "title": "Clinical Events", "type": "SDTM Dataset"}}, "datasetStructure": "One record per event per subject", "datasetVariables": [{"_links": {"modelClassVariable": {"href": "/mdr/sdtm/1-7/classes/GeneralObservations/variables/STUDYID", "title": "Study Identifier", "type": "Class Variable"}, "parentDataset": {"href": "/mdr/sdtmig/3-3/datasets/CE", "title": "Clinical Events", "type": "SDTM Dataset"}, "parentProduct": {"href": "/mdr/sdtmig/3-3", "title": "Study Data Tabulation Model Implementation Guide: Human Clinical Trials Version 3.3 (Final)", "type": "Implementation Guide"}, "priorVersion": {"href": "/mdr/sdtmig/3-2/datasets/CE/variables/STUDYID", "title": "Study Identifier", "type": "SDTM Dataset Variable"}, "rootItem": {"href": "/mdr/root/sdtmig/datasets/CE/variables/STUDYID", "title": "Version-agnostic anchor resource for SDTMIG variable CE.STUDYID", "type": "Root Data Element"}, "self": {"href": "/mdr/sdtmig/3-3/datasets/CE/variables/STUDYID", "title": "Study Identifier", "type": "SDTM Dataset Variable"}}, "core": "Req", "description": "Unique identifier for a study.", "label": "Study Identifier", "name": "STUDYID", "ordinal": "1", "role": "Identifier", "simpleDatatype": "Char"}, {"_links": {"modelClassVariable": {"href": "/mdr/sdtm/1-7/classes/GeneralObservations/variables/DOMAIN", "title": "Domain Abbreviation", "type": "Class Variable"}, "parentDataset": {"href": "/mdr/sdtmig/3-3/datasets/CE", "title": "Clinical Events", "type": "SDTM Dataset"}, "parentProduct": {"href": "/mdr/sdtmig/3-3", "title": "Study Data Tabulation Model Implementation Guide: Human Clinical Trials Version 3.3 (Final)", "type": "Implementation Guide"}, "priorVersion": {"href": "/mdr/sdtmig/3-2/datasets/CE/variables/DOMAIN", "title": "Domain Abbreviation", "type": "SDTM Dataset Variable"}, "rootItem": {"href": "/mdr/root/sdtmig/datasets/CE/variables/DOMAIN", "title": "Version-agnostic anchor resource for SDTMIG variable CE.DOMAIN", "type": "Root Data Element"}, "self": {"href": "/mdr/sdtmig/3-3/datasets/CE/variables/DOMAIN", "title": "Domain Abbreviation", "type": "SDTM Dataset Variable"}}, "core": "Req", "description": "Two-character abbreviation for the domain.", "label": "Domain Abbreviation", "name": "DOMAIN", "ordinal": "2", "role": "Identifier", "simpleDatatype": "Char", "valueList": ["CE"]}, {"_links": {"modelClassVariable": {"href": "/mdr/sdtm/1-7/classes/GeneralObservations/variables/USUBJID", "title": "Unique Subject Identifier", "type": "Class Variable"}, "parentDataset": {"href": "/mdr/sdtmig/3-3/datasets/CE", "title": "Clinical Events", "type": "SDTM Dataset"}, "parentProduct": {"href": "/mdr/sdtmig/3-3", "title": "Study Data Tabulation Model Implementation Guide: Human Clinical Trials Version 3.3 (Final)", "type": "Implementation Guide"}, "priorVersion": {"href": "/mdr/sdtmig/3-2/datasets/CE/variables/USUBJID", "title": "Unique Subject Identifier", "type": "SDTM Dataset Variable"}, "rootItem": {"href": "/mdr/root/sdtmig/datasets/CE/variables/USUBJID", "title": "Version-agnostic anchor resource for SDTMIG variable CE.USUBJID", "type": "Root Data Element"}, "self": {"href": "/mdr/sdtmig/3-3/datasets/CE/variables/USUBJID", "title": "Unique Subject Identifier", "type": "SDTM Dataset Variable"}}, "core": "Req", "description": "Identifier used to uniquely identify a subject across all studies for all applications or submissions involving the product.", "label": "Unique Subject Identifier", "name": "USUBJID", "ordinal": "3", "role": "Identifier", "simpleDatatype": "Char"}, {"_links": {"modelClassVariable": {"href": "/mdr/sdtm/1-7/classes/GeneralObservations/variables/--SEQ", "title": "Sequence Number", "type": "Class Variable"}, "parentDataset": {"href": "/mdr/sdtmig/3-3/datasets/CE", "title": "Clinical Events", "type": "SDTM Dataset"}, "parentProduct": {"href": "/mdr/sdtmig/3-3", "title": "Study Data Tabulation Model Implementation Guide: Human Clinical Trials Version 3.3 (Final)", "type": "Implementation Guide"}, "priorVersion": {"href": "/mdr/sdtmig/3-2/datasets/CE/variables/CESEQ", "title": "Sequence Number", "type": "SDTM Dataset Variable"}, "rootItem": {"href": "/mdr/root/sdtmig/datasets/CE/variables/CESEQ", "title": "Version-agnostic anchor resource for SDTMIG variable CE.CESEQ", "type": "Root Data Element"}, "self": {"href": "/mdr/sdtmig/3-3/datasets/CE/variables/CESEQ", "title": "Sequence Number", "type": "SDTM Dataset Variable"}}, "core": "Req", "description": "Sequence Number given to ensure uniqueness of subject records within adomain. May be any valid number.", "label": "Sequence Number", "name": "CESEQ", "ordinal": "4", "role": "Identifier", "simpleDatatype": "Num"}, {"_links": {"modelClassVariable": {"href": "/mdr/sdtm/1-7/classes/GeneralObservations/variables/--GRPID", "title": "Group ID", "type": "Class Variable"}, "parentDataset": {"href": "/mdr/sdtmig/3-3/datasets/CE", "title": "Clinical Events", "type": "SDTM Dataset"}, "parentProduct": {"href": "/mdr/sdtmig/3-3", "title": "Study Data Tabulation Model Implementation Guide: Human Clinical Trials Version 3.3 (Final)", "type": "Implementation Guide"}, "priorVersion": {"href": "/mdr/sdtmig/3-2/datasets/CE/variables/CEGRPID", "title": "Group ID", "type": "SDTM Dataset Variable"}, "rootItem": {"href": "/mdr/root/sdtmig/datasets/CE/variables/CEGRPID", "title": "Version-agnostic anchor resource for SDTMIG variable CE.CEGRPID", "type": "Root Data Element"}, "self": {"href": "/mdr/sdtmig/3-3/datasets/CE/variables/CEGRPID", "title": "Group ID", "type": "SDTM Dataset Variable"}}, "core": "Perm", "description": "Used to link together a block of related records for a subject within a domain.", "label": "Group ID", "name": "CEGRPID", "ordinal": "5", "role": "Identifier", "simpleDatatype": "Char"}, {"_links": {"modelClassVariable": {"href": "/mdr/sdtm/1-7/classes/GeneralObservations/variables/--REFID", "title": "Reference ID", "type": "Class Variable"}, "parentDataset": {"href": "/mdr/sdtmig/3-3/datasets/CE", "title": "Clinical Events", "type": "SDTM Dataset"}, "parentProduct": {"href": "/mdr/sdtmig/3-3", "title": "Study Data Tabulation Model Implementation Guide: Human Clinical Trials Version 3.3 (Final)", "type": "Implementation Guide"}, "priorVersion": {"href": "/mdr/sdtmig/3-2/datasets/CE/variables/CEREFID", "title": "Reference ID", "type": "SDTM Dataset Variable"}, "rootItem": {"href": "/mdr/root/sdtmig/datasets/CE/variables/CEREFID", "title": "Version-agnostic anchor resource for SDTMIG variable CE.CEREFID", "type": "Root Data Element"}, "self": {"href": "/mdr/sdtmig/3-3/datasets/CE/variables/CEREFID", "title": "Reference ID", "type": "SDTM Dataset Variable"}}, "core": "Perm", "description": "Internal or external identifier such as lab specimen ID, or UUID for an ECG waveform or a medical image.", "label": "Reference ID", "name": "CEREFID", "ordinal": "6", "role": "Identifier", "simpleDatatype": "Char"}, {"_links": {"modelClassVariable": {"href": "/mdr/sdtm/1-7/classes/GeneralObservations/variables/--SPID", "title": "Sponsor-Defined Identifier", "type": "Class Variable"}, "parentDataset": {"href": "/mdr/sdtmig/3-3/datasets/CE", "title": "Clinical Events", "type": "SDTM Dataset"}, "parentProduct": {"href": "/mdr/sdtmig/3-3", "title": "Study Data Tabulation Model Implementation Guide: Human Clinical Trials Version 3.3 (Final)", "type": "Implementation Guide"}, "priorVersion": {"href": "/mdr/sdtmig/3-2/datasets/CE/variables/CESPID", "title": "Sponsor-Defined Identifier", "type": "SDTM Dataset Variable"}, "rootItem": {"href": "/mdr/root/sdtmig/datasets/CE/variables/CESPID", "title": "Version-agnostic anchor resource for SDTMIG variable CE.CESPID", "type": "Root Data Element"}, "self": {"href": "/mdr/sdtmig/3-3/datasets/CE/variables/CESPID", "title": "Sponsor-Defined Identifier", "type": "SDTM Dataset Variable"}}, "core": "Perm", "description": "Sponsor-defined identifier.", "label": "Sponsor-Defined Identifier", "name": "CESPID", "ordinal": "7", "role": "Identifier", "simpleDatatype": "Char"}, {"_links": {"modelClassVariable": {"href": "/mdr/sdtm/1-7/classes/Events/variables/--TERM", "title": "Reported Term", "type": "Class Variable"}, "parentDataset": {"href": "/mdr/sdtmig/3-3/datasets/CE", "title": "Clinical Events", "type": "SDTM Dataset"}, "parentProduct": {"href": "/mdr/sdtmig/3-3", "title": "Study Data Tabulation Model Implementation Guide: Human Clinical Trials Version 3.3 (Final)", "type": "Implementation Guide"}, "priorVersion": {"href": "/mdr/sdtmig/3-2/datasets/CE/variables/CETERM", "title": "Reported Term for the Clinical Event", "type": "SDTM Dataset Variable"}, "rootItem": {"href": "/mdr/root/sdtmig/datasets/CE/variables/CETERM", "title": "Version-agnostic anchor resource for SDTMIG variable CE.CETERM", "type": "Root Data Element"}, "self": {"href": "/mdr/sdtmig/3-3/datasets/CE/variables/CETERM", "title": "Reported Term for the Clinical Event", "type": "SDTM Dataset Variable"}}, "core": "Req", "description": "Term for the medical condition or event. Most likely preprinted on CRF.", "label": "Reported Term for the Clinical Event", "name": "CETERM", "ordinal": "8", "role": "Topic", "simpleDatatype": "Char"}, {"_links": {"modelClassVariable": {"href": "/mdr/sdtm/1-7/classes/Events/variables/--DECOD", "title": "Dictionary-Derived Term", "type": "Class Variable"}, "parentDataset": {"href": "/mdr/sdtmig/3-3/datasets/CE", "title": "Clinical Events", "type": "SDTM Dataset"}, "parentProduct": {"href": "/mdr/sdtmig/3-3", "title": "Study Data Tabulation Model Implementation Guide: Human Clinical Trials Version 3.3 (Final)", "type": "Implementation Guide"}, "priorVersion": {"href": "/mdr/sdtmig/3-2/datasets/CE/variables/CEDECOD", "title": "Dictionary-Derived Term", "type": "SDTM Dataset Variable"}, "rootItem": {"href": "/mdr/root/sdtmig/datasets/CE/variables/CEDECOD", "title": "Version-agnostic anchor resource for SDTMIG variable CE.CEDECOD", "type": "Root Data Element"}, "self": {"href": "/mdr/sdtmig/3-3/datasets/CE/variables/CEDECOD", "title": "Dictionary-Derived Term", "type": "SDTM Dataset Variable"}}, "core": "Perm", "description": "Controlled terminology for the name of the clinical event. The sponsor is expected to provide the dictionary name and version used to map the terms utilizing the external codelist element in the Define-XML document.", "label": "Dictionary-Derived Term", "name": "CEDECOD", "ordinal": "9", "role": "Synonym Qualifier", "simpleDatatype": "Char"}, {"_links": {"modelClassVariable": {"href": "/mdr/sdtm/1-7/classes/Events/variables/--CAT", "title": "Category", "type": "Class Variable"}, "parentDataset": {"href": "/mdr/sdtmig/3-3/datasets/CE", "title": "Clinical Events", "type": "SDTM Dataset"}, "parentProduct": {"href": "/mdr/sdtmig/3-3", "title": "Study Data Tabulation Model Implementation Guide: Human Clinical Trials Version 3.3 (Final)", "type": "Implementation Guide"}, "priorVersion": {"href": "/mdr/sdtmig/3-2/datasets/CE/variables/CECAT", "title": "Category for Clinical Event", "type": "SDTM Dataset Variable"}, "rootItem": {"href": "/mdr/root/sdtmig/datasets/CE/variables/CECAT", "title": "Version-agnostic anchor resource for SDTMIG variable CE.CECAT", "type": "Root Data Element"}, "self": {"href": "/mdr/sdtmig/3-3/datasets/CE/variables/CECAT", "title": "Category for the Clinical Event", "type": "SDTM Dataset Variable"}}, "core": "Perm", "description": "Used to define a category of related records.", "label": "Category for the Clinical Event", "name": "CECAT", "ordinal": "10", "role": "Grouping Qualifier", "simpleDatatype": "Char"}, {"_links": {"modelClassVariable": {"href": "/mdr/sdtm/1-7/classes/Events/variables/--SCAT", "title": "Subcategory", "type": "Class Variable"}, "parentDataset": {"href": "/mdr/sdtmig/3-3/datasets/CE", "title": "Clinical Events", "type": "SDTM Dataset"}, "parentProduct": {"href": "/mdr/sdtmig/3-3", "title": "Study Data Tabulation Model Implementation Guide: Human Clinical Trials Version 3.3 (Final)", "type": "Implementation Guide"}, "priorVersion": {"href": "/mdr/sdtmig/3-2/datasets/CE/variables/CESCAT", "title": "Subcategory for Clinical Event", "type": "SDTM Dataset Variable"}, "rootItem": {"href": "/mdr/root/sdtmig/datasets/CE/variables/CESCAT", "title": "Version-agnostic anchor resource for SDTMIG variable CE.CESCAT", "type": "Root Data Element"}, "self": {"href": "/mdr/sdtmig/3-3/datasets/CE/variables/CESCAT", "title": "Subcategory for the Clinical Event", "type": "SDTM Dataset Variable"}}, "core": "Perm", "description": "A further categorization of the condition or event.", "label": "Subcategory for the Clinical Event", "name": "CESCAT", "ordinal": "11", "role": "Grouping Qualifier", "simpleDatatype": "Char"}, {"_links": {"codelist": [{"href": "/mdr/root/ct/sdtmct/codelists/C66742", "title": "Version-agnostic anchor resource for codelist C66742", "type": "Root Value Domain"}], "modelClassVariable": {"href": "/mdr/sdtm/1-7/classes/Events/variables/--PRESP", "title": "Pre-Specified", "type": "Class Variable"}, "parentDataset": {"href": "/mdr/sdtmig/3-3/datasets/CE", "title": "Clinical Events", "type": "SDTM Dataset"}, "parentProduct": {"href": "/mdr/sdtmig/3-3", "title": "Study Data Tabulation Model Implementation Guide: Human Clinical Trials Version 3.3 (Final)", "type": "Implementation Guide"}, "priorVersion": {"href": "/mdr/sdtmig/3-2/datasets/CE/variables/CEPRESP", "title": "Clinical Event Pre-Specified", "type": "SDTM Dataset Variable"}, "rootItem": {"href": "/mdr/root/sdtmig/datasets/CE/variables/CEPRESP", "title": "Version-agnostic anchor resource for SDTMIG variable CE.CEPRESP", "type": "Root Data Element"}, "self": {"href": "/mdr/sdtmig/3-3/datasets/CE/variables/CEPRESP", "title": "Clinical Event Pre-specified", "type": "SDTM Dataset Variable"}}, "core": "Perm", "description": "Used to indicate whether the Event in CETERM was pre-specified. Value is \"Y\" for pre-specified events and null for spontaneously reported events.", "label": "Clinical Event Pre-specified", "name": "CEPRESP", "ordinal": "12", "role": "Variable Qualifier", "simpleDatatype": "Char"}, {"_links": {"codelist": [{"href": "/mdr/root/ct/sdtmct/codelists/C66742", "title": "Version-agnostic anchor resource for codelist C66742", "type": "Root Value Domain"}], "modelClassVariable": {"href": "/mdr/sdtm/1-7/classes/Events/variables/--OCCUR", "title": "Occurrence Indicator", "type": "Class Variable"}, "parentDataset": {"href": "/mdr/sdtmig/3-3/datasets/CE", "title": "Clinical Events", "type": "SDTM Dataset"}, "parentProduct": {"href": "/mdr/sdtmig/3-3", "title": "Study Data Tabulation Model Implementation Guide: Human Clinical Trials Version 3.3 (Final)", "type": "Implementation Guide"}, "priorVersion": {"href": "/mdr/sdtmig/3-2/datasets/CE/variables/CEOCCUR", "title": "Clinical Event Occurrence", "type": "SDTM Dataset Variable"}, "rootItem": {"href": "/mdr/root/sdtmig/datasets/CE/variables/CEOCCUR", "title": "Version-agnostic anchor resource for SDTMIG variable CE.CEOCCUR", "type": "Root Data Element"}, "self": {"href": "/mdr/sdtmig/3-3/datasets/CE/variables/CEOCCUR", "title": "Clinical Event Occurrence", "type": "SDTM Dataset Variable"}}, "core": "Perm", "description": "Used when the occurrence of specific events is solicited, to indicate whether or not a clinical event occurred. Values are null for spontaneously reported events.", "label": "Clinical Event Occurrence", "name": "CEOCCUR", "ordinal": "13", "role": "Record Qualifier", "simpleDatatype": "Char"}, {"_links": {"codelist": [{"href": "/mdr/root/ct/sdtmct/codelists/C66789", "title": "Version-agnostic anchor resource for codelist C66789", "type": "Root Value Domain"}], "modelClassVariable": {"href": "/mdr/sdtm/1-7/classes/Events/variables/--STAT", "title": "Completion Status", "type": "Class Variable"}, "parentDataset": {"href": "/mdr/sdtmig/3-3/datasets/CE", "title": "Clinical Events", "type": "SDTM Dataset"}, "parentProduct": {"href": "/mdr/sdtmig/3-3", "title": "Study Data Tabulation Model Implementation Guide: Human Clinical Trials Version 3.3 (Final)", "type": "Implementation Guide"}, "priorVersion": {"href": "/mdr/sdtmig/3-2/datasets/CE/variables/CESTAT", "title": "Completion Status", "type": "SDTM Dataset Variable"}, "rootItem": {"href": "/mdr/root/sdtmig/datasets/CE/variables/CESTAT", "title": "Version-agnostic anchor resource for SDTMIG variable CE.CESTAT", "type": "Root Data Element"}, "self": {"href": "/mdr/sdtmig/3-3/datasets/CE/variables/CESTAT", "title": "Completion Status", "type": "SDTM Dataset Variable"}}, "core": "Perm", "description": "The status indicates that a question from a pre-specified list was not answered.", "label": "Completion Status", "name": "CESTAT", "ordinal": "14", "role": "Record Qualifier", "simpleDatatype": "Char"}, {"_links": {"modelClassVariable": {"href": "/mdr/sdtm/1-7/classes/Events/variables/--REASND", "title": "Reason Not Done", "type": "Class Variable"}, "parentDataset": {"href": "/mdr/sdtmig/3-3/datasets/CE", "title": "Clinical Events", "type": "SDTM Dataset"}, "parentProduct": {"href": "/mdr/sdtmig/3-3", "title": "Study Data Tabulation Model Implementation Guide: Human Clinical Trials Version 3.3 (Final)", "type": "Implementation Guide"}, "priorVersion": {"href": "/mdr/sdtmig/3-2/datasets/CE/variables/CEREASND", "title": "Reason Clinical Event Not Collected", "type": "SDTM Dataset Variable"}, "rootItem": {"href": "/mdr/root/sdtmig/datasets/CE/variables/CEREASND", "title": "Version-agnostic anchor resource for SDTMIG variable CE.CEREASND", "type": "Root Data Element"}, "self": {"href": "/mdr/sdtmig/3-3/datasets/CE/variables/CEREASND", "title": "Reason Clinical Event Not Collected", "type": "SDTM Dataset Variable"}}, "core": "Perm", "description": "Describes the reason clinical event data was not collected. Used in conjunction with CESTAT when value is \"NOT DONE\".", "label": "Reason Clinical Event Not Collected", "name": "CEREASND", "ordinal": "15", "role": "Record Qualifier", "simpleDatatype": "Char"}, {"_links": {"modelClassVariable": {"href": "/mdr/sdtm/1-7/classes/Events/variables/--BODSYS", "title": "Body System or Organ Class", "type": "Class Variable"}, "parentDataset": {"href": "/mdr/sdtmig/3-3/datasets/CE", "title": "Clinical Events", "type": "SDTM Dataset"}, "parentProduct": {"href": "/mdr/sdtmig/3-3", "title": "Study Data Tabulation Model Implementation Guide: Human Clinical Trials Version 3.3 (Final)", "type": "Implementation Guide"}, "priorVersion": {"href": "/mdr/sdtmig/3-2/datasets/CE/variables/CEBODSYS", "title": "Body System or Organ Class", "type": "SDTM Dataset Variable"}, "rootItem": {"href": "/mdr/root/sdtmig/datasets/CE/variables/CEBODSYS", "title": "Version-agnostic anchor resource for SDTMIG variable CE.CEBODSYS", "type": "Root Data Element"}, "self": {"href": "/mdr/sdtmig/3-3/datasets/CE/variables/CEBODSYS", "title": "Body System or Organ Class", "type": "SDTM Dataset Variable"}}, "core": "Perm", "description": "Dictionary-derived. Body system or organ class that is involved in an event or measurement from a standard hierarchy (e.g., MedDRA). When using a multiaxial dictionary such as MedDRA, this should contain the SOC used for the sponsor's analyses and summary tables which may not necessarily be the primary SOC.", "label": "Body System or Organ Class", "name": "CEBODSYS", "ordinal": "16", "role": "Record Qualifier", "simpleDatatype": "Char"}, {"_links": {"modelClassVariable": {"href": "/mdr/sdtm/1-7/classes/Events/variables/--SEV", "title": "Severity/Intensity", "type": "Class Variable"}, "parentDataset": {"href": "/mdr/sdtmig/3-3/datasets/CE", "title": "Clinical Events", "type": "SDTM Dataset"}, "parentProduct": {"href": "/mdr/sdtmig/3-3", "title": "Study Data Tabulation Model Implementation Guide: Human Clinical Trials Version 3.3 (Final)", "type": "Implementation Guide"}, "priorVersion": {"href": "/mdr/sdtmig/3-2/datasets/CE/variables/CESEV", "title": "Severity/Intensity", "type": "SDTM Dataset Variable"}, "rootItem": {"href": "/mdr/root/sdtmig/datasets/CE/variables/CESEV", "title": "Version-agnostic anchor resource for SDTMIG variable CE.CESEV", "type": "Root Data Element"}, "self": {"href": "/mdr/sdtmig/3-3/datasets/CE/variables/CESEV", "title": "Severity/Intensity", "type": "SDTM Dataset Variable"}}, "core": "Perm", "description": "The severity or intensity of the event. Examples: \"MILD\", \"MODERATE\", \"SEVERE\".", "label": "Severity/Intensity", "name": "CESEV", "ordinal": "17", "role": "Record Qualifier", "simpleDatatype": "Char"}, {"_links": {"modelClassVariable": {"href": "/mdr/sdtm/1-7/classes/GeneralObservations/variables/TAETORD", "title": "Planned Order of Element Within Arm", "type": "Class Variable"}, "parentDataset": {"href": "/mdr/sdtmig/3-3/datasets/CE", "title": "Clinical Events", "type": "SDTM Dataset"}, "parentProduct": {"href": "/mdr/sdtmig/3-3", "title": "Study Data Tabulation Model Implementation Guide: Human Clinical Trials Version 3.3 (Final)", "type": "Implementation Guide"}, "rootItem": {"href": "/mdr/root/sdtmig/datasets/CE/variables/TAETORD", "title": "Version-agnostic anchor resource for SDTMIG variable CE.TAETORD", "type": "Root Data Element"}, "self": {"href": "/mdr/sdtmig/3-3/datasets/CE/variables/TAETORD", "title": "Planned Order of Element within Arm", "type": "SDTM Dataset Variable"}}, "core": "Perm", "description": "Number that gives the planned order of the Element within the Arm for the Element in which the clinical event started.", "label": "Planned Order of Element within Arm", "name": "TAETORD", "ordinal": "18", "role": "Timing", "simpleDatatype": "Num"}, {"_links": {"codelist": [{"href": "/mdr/root/ct/sdtmct/codelists/C99079", "title": "Version-agnostic anchor resource for codelist C99079", "type": "Root Value Domain"}], "modelClassVariable": {"href": "/mdr/sdtm/1-7/classes/GeneralObservations/variables/EPOCH", "title": "Epoch", "type": "Class Variable"}, "parentDataset": {"href": "/mdr/sdtmig/3-3/datasets/CE", "title": "Clinical Events", "type": "SDTM Dataset"}, "parentProduct": {"href": "/mdr/sdtmig/3-3", "title": "Study Data Tabulation Model Implementation Guide: Human Clinical Trials Version 3.3 (Final)", "type": "Implementation Guide"}, "rootItem": {"href": "/mdr/root/sdtmig/datasets/CE/variables/EPOCH", "title": "Version-agnostic anchor resource for SDTMIG variable CE.EPOCH", "type": "Root Data Element"}, "self": {"href": "/mdr/sdtmig/3-3/datasets/CE/variables/EPOCH", "title": "Epoch", "type": "SDTM Dataset Variable"}}, "core": "Perm", "description": "Epoch associated with the start date/time of the clinical event.", "label": "Epoch", "name": "EPOCH", "ordinal": "19", "role": "Timing", "simpleDatatype": "Char"}, {"_links": {"modelClassVariable": {"href": "/mdr/sdtm/1-7/classes/GeneralObservations/variables/--DTC", "title": "Date/Time of Collection", "type": "Class Variable"}, "parentDataset": {"href": "/mdr/sdtmig/3-3/datasets/CE", "title": "Clinical Events", "type": "SDTM Dataset"}, "parentProduct": {"href": "/mdr/sdtmig/3-3", "title": "Study Data Tabulation Model Implementation Guide: Human Clinical Trials Version 3.3 (Final)", "type": "Implementation Guide"}, "priorVersion": {"href": "/mdr/sdtmig/3-2/datasets/CE/variables/CEDTC", "title": "Date/Time of Event Collection", "type": "SDTM Dataset Variable"}, "rootItem": {"href": "/mdr/root/sdtmig/datasets/CE/variables/CEDTC", "title": "Version-agnostic anchor resource for SDTMIG variable CE.CEDTC", "type": "Root Data Element"}, "self": {"href": "/mdr/sdtmig/3-3/datasets/CE/variables/CEDTC", "title": "Date/Time of Event Collection", "type": "SDTM Dataset Variable"}}, "core": "Perm", "describedValueDomain": "ISO 8601", "description": "Collection date and time for the clinical event observation represented in ISO 8601 character format.", "label": "Date/Time of Event Collection", "name": "CEDTC", "ordinal": "20", "role": "Timing", "simpleDatatype": "Char"}, {"_links": {"modelClassVariable": {"href": "/mdr/sdtm/1-7/classes/GeneralObservations/variables/--STDTC", "title": "Start Date/Time of Observation", "type": "Class Variable"}, "parentDataset": {"href": "/mdr/sdtmig/3-3/datasets/CE", "title": "Clinical Events", "type": "SDTM Dataset"}, "parentProduct": {"href": "/mdr/sdtmig/3-3", "title": "Study Data Tabulation Model Implementation Guide: Human Clinical Trials Version 3.3 (Final)", "type": "Implementation Guide"}, "priorVersion": {"href": "/mdr/sdtmig/3-2/datasets/CE/variables/CESTDTC", "title": "Start Date/Time of Clinical Event", "type": "SDTM Dataset Variable"}, "rootItem": {"href": "/mdr/root/sdtmig/datasets/CE/variables/CESTDTC", "title": "Version-agnostic anchor resource for SDTMIG variable CE.CESTDTC", "type": "Root Data Element"}, "self": {"href": "/mdr/sdtmig/3-3/datasets/CE/variables/CESTDTC", "title": "Start Date/Time of Clinical Event", "type": "SDTM Dataset Variable"}}, "core": "Perm", "describedValueDomain": "ISO 8601", "description": "Start date/time of the clinical event represented in ISO 8601 character format.", "label": "Start Date/Time of Clinical Event", "name": "CESTDTC", "ordinal": "21", "role": "Timing", "simpleDatatype": "Char"}, {"_links": {"modelClassVariable": {"href": "/mdr/sdtm/1-7/classes/GeneralObservations/variables/--ENDTC", "title": "End Date/Time of Observation", "type": "Class Variable"}, "parentDataset": {"href": "/mdr/sdtmig/3-3/datasets/CE", "title": "Clinical Events", "type": "SDTM Dataset"}, "parentProduct": {"href": "/mdr/sdtmig/3-3", "title": "Study Data Tabulation Model Implementation Guide: Human Clinical Trials Version 3.3 (Final)", "type": "Implementation Guide"}, "priorVersion": {"href": "/mdr/sdtmig/3-2/datasets/CE/variables/CEENDTC", "title": "End Date/Time of Clinical Event", "type": "SDTM Dataset Variable"}, "rootItem": {"href": "/mdr/root/sdtmig/datasets/CE/variables/CEENDTC", "title": "Version-agnostic anchor resource for SDTMIG variable CE.CEENDTC", "type": "Root Data Element"}, "self": {"href": "/mdr/sdtmig/3-3/datasets/CE/variables/CEENDTC", "title": "End Date/Time of Clinical Event", "type": "SDTM Dataset Variable"}}, "core": "Perm", "describedValueDomain": "ISO 8601", "description": "End date/time of the clinical event, represented in ISO 8601 character format.", "label": "End Date/Time of Clinical Event", "name": "CEENDTC", "ordinal": "22", "role": "Timing", "simpleDatatype": "Char"}, {"_links": {"modelClassVariable": {"href": "/mdr/sdtm/1-7/classes/GeneralObservations/variables/--DY", "title": "Study Day of Visit/Collection/Exam", "type": "Class Variable"}, "parentDataset": {"href": "/mdr/sdtmig/3-3/datasets/CE", "title": "Clinical Events", "type": "SDTM Dataset"}, "parentProduct": {"href": "/mdr/sdtmig/3-3", "title": "Study Data Tabulation Model Implementation Guide: Human Clinical Trials Version 3.3 (Final)", "type": "Implementation Guide"}, "priorVersion": {"href": "/mdr/sdtmig/3-2/datasets/CE/variables/CEDY", "title": "Study Day of Event Collection", "type": "SDTM Dataset Variable"}, "rootItem": {"href": "/mdr/root/sdtmig/datasets/CE/variables/CEDY", "title": "Version-agnostic anchor resource for SDTMIG variable CE.CEDY", "type": "Root Data Element"}, "self": {"href": "/mdr/sdtmig/3-3/datasets/CE/variables/CEDY", "title": "Study Day of Event Collection", "type": "SDTM Dataset Variable"}}, "core": "Perm", "description": "1. Study day of clinical event collection, measured as integer days.\n2. Algorithm for calculations must be relative to the sponsor-defined RFSTDTC variable in Demographics. This formula should be consistent across the submission.", "label": "Study Day of Event Collection", "name": "CEDY", "ordinal": "23", "role": "Timing", "simpleDatatype": "Num"}, {"_links": {"modelClassVariable": {"href": "/mdr/sdtm/1-7/classes/GeneralObservations/variables/--STDY", "title": "Study Day of Start of Observation", "type": "Class Variable"}, "parentDataset": {"href": "/mdr/sdtmig/3-3/datasets/CE", "title": "Clinical Events", "type": "SDTM Dataset"}, "parentProduct": {"href": "/mdr/sdtmig/3-3", "title": "Study Data Tabulation Model Implementation Guide: Human Clinical Trials Version 3.3 (Final)", "type": "Implementation Guide"}, "rootItem": {"href": "/mdr/root/sdtmig/datasets/CE/variables/CESTDY", "title": "Version-agnostic anchor resource for SDTMIG variable CE.CESTDY", "type": "Root Data Element"}, "self": {"href": "/mdr/sdtmig/3-3/datasets/CE/variables/CESTDY", "title": "Study Day of Start of Event", "type": "SDTM Dataset Variable"}}, "core": "Perm", "description": "Actual study day of start of the clinical event expressed in integer days relative to the sponsor-defined RFSTDTC in Demographics.", "label": "Study Day of Start of Event", "name": "CESTDY", "ordinal": "24", "role": "Timing", "simpleDatatype": "Num"}, {"_links": {"modelClassVariable": {"href": "/mdr/sdtm/1-7/classes/GeneralObservations/variables/--ENDY", "title": "Study Day of End of Observation", "type": "Class Variable"}, "parentDataset": {"href": "/mdr/sdtmig/3-3/datasets/CE", "title": "Clinical Events", "type": "SDTM Dataset"}, "parentProduct": {"href": "/mdr/sdtmig/3-3", "title": "Study Data Tabulation Model Implementation Guide: Human Clinical Trials Version 3.3 (Final)", "type": "Implementation Guide"}, "rootItem": {"href": "/mdr/root/sdtmig/datasets/CE/variables/CEENDY", "title": "Version-agnostic anchor resource for SDTMIG variable CE.CEENDY", "type": "Root Data Element"}, "self": {"href": "/mdr/sdtmig/3-3/datasets/CE/variables/CEENDY", "title": "Study Day of End of Event", "type": "SDTM Dataset Variable"}}, "core": "Perm", "description": "Actual study day of end of the clinical event expressed in integer days relative to the sponsor-defined RFSTDTC in Demographics.", "label": "Study Day of End of Event", "name": "CEENDY", "ordinal": "25", "role": "Timing", "simpleDatatype": "Num"}, {"_links": {"codelist": [{"href": "/mdr/root/ct/sdtmct/codelists/C66728", "title": "Version-agnostic anchor resource for codelist C66728", "type": "Root Value Domain"}], "modelClassVariable": {"href": "/mdr/sdtm/1-7/classes/GeneralObservations/variables/--STRF", "title": "Start Relative to Reference Period", "type": "Class Variable"}, "parentDataset": {"href": "/mdr/sdtmig/3-3/datasets/CE", "title": "Clinical Events", "type": "SDTM Dataset"}, "parentProduct": {"href": "/mdr/sdtmig/3-3", "title": "Study Data Tabulation Model Implementation Guide: Human Clinical Trials Version 3.3 (Final)", "type": "Implementation Guide"}, "priorVersion": {"href": "/mdr/sdtmig/3-2/datasets/CE/variables/CESTRF", "title": "Start Relative to Reference Period", "type": "SDTM Dataset Variable"}, "rootItem": {"href": "/mdr/root/sdtmig/datasets/CE/variables/CESTRF", "title": "Version-agnostic anchor resource for SDTMIG variable CE.CESTRF", "type": "Root Data Element"}, "self": {"href": "/mdr/sdtmig/3-3/datasets/CE/variables/CESTRF", "title": "Start Relative to Reference Period", "type": "SDTM Dataset Variable"}}, "core": "Perm", "description": "Describes the start of the clinical event relative to the sponsor-defined reference period. The sponsor-defined reference period is a continuous period of time defined by a discrete starting point and a discrete ending point (represented by RFSTDTC and RFENDTC in Demographics).\nNot all values of the codelist are allowable for this variable. See Section 4.4.7, Use of Relative Timing Variables.", "label": "Start Relative to Reference Period", "name": "CESTRF", "ordinal": "26", "role": "Timing", "simpleDatatype": "Char"}, {"_links": {"codelist": [{"href": "/mdr/root/ct/sdtmct/codelists/C66728", "title": "Version-agnostic anchor resource for codelist C66728", "type": "Root Value Domain"}], "modelClassVariable": {"href": "/mdr/sdtm/1-7/classes/GeneralObservations/variables/--ENRF", "title": "End Relative to Reference Period", "type": "Class Variable"}, "parentDataset": {"href": "/mdr/sdtmig/3-3/datasets/CE", "title": "Clinical Events", "type": "SDTM Dataset"}, "parentProduct": {"href": "/mdr/sdtmig/3-3", "title": "Study Data Tabulation Model Implementation Guide: Human Clinical Trials Version 3.3 (Final)", "type": "Implementation Guide"}, "priorVersion": {"href": "/mdr/sdtmig/3-2/datasets/CE/variables/CEENRF", "title": "End Relative to Reference Period", "type": "SDTM Dataset Variable"}, "rootItem": {"href": "/mdr/root/sdtmig/datasets/CE/variables/CEENRF", "title": "Version-agnostic anchor resource for SDTMIG variable CE.CEENRF", "type": "Root Data Element"}, "self": {"href": "/mdr/sdtmig/3-3/datasets/CE/variables/CEENRF", "title": "End Relative to Reference Period", "type": "SDTM Dataset Variable"}}, "core": "Perm", "description": "Describes the end of the event relative to the sponsor-defined reference period. The sponsor-defined reference period is a continuous period of time defined by a discrete starting point and a discrete ending point (represented by RFSTDTC and RFENDTC in Demographics).\nNot all values of the codelist are allowable for this variable. See Section 4.4.7, Use of Relative Timing Variables.", "label": "End Relative to Reference Period", "name": "CEENRF", "ordinal": "27", "role": "Timing", "simpleDatatype": "Char"}, {"_links": {"codelist": [{"href": "/mdr/root/ct/sdtmct/codelists/C66728", "title": "Version-agnostic anchor resource for codelist C66728", "type": "Root Value Domain"}], "modelClassVariable": {"href": "/mdr/sdtm/1-7/classes/GeneralObservations/variables/--STRTPT", "title": "Start Relative to Reference Time Point", "type": "Class Variable"}, "parentDataset": {"href": "/mdr/sdtmig/3-3/datasets/CE", "title": "Clinical Events", "type": "SDTM Dataset"}, "parentProduct": {"href": "/mdr/sdtmig/3-3", "title": "Study Data Tabulation Model Implementation Guide: Human Clinical Trials Version 3.3 (Final)", "type": "Implementation Guide"}, "priorVersion": {"href": "/mdr/sdtmig/3-2/datasets/CE/variables/CESTRTPT", "title": "Start Relative to Reference Time Point", "type": "SDTM Dataset Variable"}, "rootItem": {"href": "/mdr/root/sdtmig/datasets/CE/variables/CESTRTPT", "title": "Version-agnostic anchor resource for SDTMIG variable CE.CESTRTPT", "type": "Root Data Element"}, "self": {"href": "/mdr/sdtmig/3-3/datasets/CE/variables/CESTRTPT", "title": "Start Relative to Reference Time Point", "type": "SDTM Dataset Variable"}}, "core": "Perm", "description": "Identifies the start of the observation as being before or after the reference time point defined by variable CESTTPT.\nNot all values of the codelist are allowable for this variable. See Section 4.4.7, Use of Relative Timing Variables.", "label": "Start Relative to Reference Time Point", "name": "CESTRTPT", "ordinal": "28", "role": "Timing", "simpleDatatype": "Char"}, {"_links": {"modelClassVariable": {"href": "/mdr/sdtm/1-7/classes/GeneralObservations/variables/--STTPT", "title": "Start Reference Time Point", "type": "Class Variable"}, "parentDataset": {"href": "/mdr/sdtmig/3-3/datasets/CE", "title": "Clinical Events", "type": "SDTM Dataset"}, "parentProduct": {"href": "/mdr/sdtmig/3-3", "title": "Study Data Tabulation Model Implementation Guide: Human Clinical Trials Version 3.3 (Final)", "type": "Implementation Guide"}, "priorVersion": {"href": "/mdr/sdtmig/3-2/datasets/CE/variables/CESTTPT", "title": "Start Reference Time Point", "type": "SDTM Dataset Variable"}, "rootItem": {"href": "/mdr/root/sdtmig/datasets/CE/variables/CESTTPT", "title": "Version-agnostic anchor resource for SDTMIG variable CE.CESTTPT", "type": "Root Data Element"}, "self": {"href": "/mdr/sdtmig/3-3/datasets/CE/variables/CESTTPT", "title": "Start Reference Time Point", "type": "SDTM Dataset Variable"}}, "core": "Perm", "description": "Description or date/time in ISO 8601 character format of the sponsor-defined reference point referred to by --STRTPT. Examples: \"2003-12-15\" or \"VISIT 1\".", "label": "Start Reference Time Point", "name": "CESTTPT", "ordinal": "29", "role": "Timing", "simpleDatatype": "Char"}, {"_links": {"codelist": [{"href": "/mdr/root/ct/sdtmct/codelists/C66728", "title": "Version-agnostic anchor resource for codelist C66728", "type": "Root Value Domain"}], "modelClassVariable": {"href": "/mdr/sdtm/1-7/classes/GeneralObservations/variables/--ENRTPT", "title": "End Relative to Reference Time Point", "type": "Class Variable"}, "parentDataset": {"href": "/mdr/sdtmig/3-3/datasets/CE", "title": "Clinical Events", "type": "SDTM Dataset"}, "parentProduct": {"href": "/mdr/sdtmig/3-3", "title": "Study Data Tabulation Model Implementation Guide: Human Clinical Trials Version 3.3 (Final)", "type": "Implementation Guide"}, "priorVersion": {"href": "/mdr/sdtmig/3-2/datasets/CE/variables/CEENRTPT", "title": "End Relative to Reference Time Point", "type": "SDTM Dataset Variable"}, "rootItem": {"href": "/mdr/root/sdtmig/datasets/CE/variables/CEENRTPT", "title": "Version-agnostic anchor resource for SDTMIG variable CE.CEENRTPT", "type": "Root Data Element"}, "self": {"href": "/mdr/sdtmig/3-3/datasets/CE/variables/CEENRTPT", "title": "End Relative to Reference Time Point", "type": "SDTM Dataset Variable"}}, "core": "Perm", "description": "Identifies the end of the observation as being before or after the sponsor-defined reference time point defined by variable CEENTPT.\nNot all values of the codelist are allowable for this variable. See Section 4.4.7, Use of Relative Timing Variables.", "label": "End Relative to Reference Time Point", "name": "CEENRTPT", "ordinal": "30", "role": "Timing", "simpleDatatype": "Char"}, {"_links": {"modelClassVariable": {"href": "/mdr/sdtm/1-7/classes/GeneralObservations/variables/--ENTPT", "title": "End Reference Time Point", "type": "Class Variable"}, "parentDataset": {"href": "/mdr/sdtmig/3-3/datasets/CE", "title": "Clinical Events", "type": "SDTM Dataset"}, "parentProduct": {"href": "/mdr/sdtmig/3-3", "title": "Study Data Tabulation Model Implementation Guide: Human Clinical Trials Version 3.3 (Final)", "type": "Implementation Guide"}, "priorVersion": {"href": "/mdr/sdtmig/3-2/datasets/CE/variables/CEENTPT", "title": "End Reference Time Point", "type": "SDTM Dataset Variable"}, "rootItem": {"href": "/mdr/root/sdtmig/datasets/CE/variables/CEENTPT", "title": "Version-agnostic anchor resource for SDTMIG variable CE.CEENTPT", "type": "Root Data Element"}, "self": {"href": "/mdr/sdtmig/3-3/datasets/CE/variables/CEENTPT", "title": "End Reference Time Point", "type": "SDTM Dataset Variable"}}, "core": "Perm", "description": "Description or date/time in ISO 8601 character format of the reference point referred to by CEENRTPT. Examples: \"2003-12-25\" or \"VISIT 2\".", "label": "End Reference Time Point", "name": "CEENTPT", "ordinal": "31", "role": "Timing", "simpleDatatype": "Char"}], "description": "An events domain that contains clinical events of interest that would not be classified as adverse events. (Source: CDISC Controlled Terminology, DOMAIN, C85441, 2018-06-29)", "label": "Clinical Events", "name": "CE", "ordinal": "14"}
