{"_links": {"parentClass": {"href": "/mdr/sdtmig/3-3/classes/Interventions", "title": "Interventions Observation Class", "type": "Class"}, "parentProduct": {"href": "/mdr/sdtmig/3-3", "title": "Study Data Tabulation Model Implementation Guide: Human Clinical Trials Version 3.3 (Final)", "type": "Implementation Guide"}, "self": {"href": "/mdr/sdtmig/3-3/datasets/ML", "title": "Meal Data", "type": "SDTM Dataset"}}, "datasetStructure": "One record per food product occurrence or constant intake interval per subject", "datasetVariables": [{"_links": {"modelClassVariable": {"href": "/mdr/sdtm/1-7/classes/GeneralObservations/variables/STUDYID", "title": "Study Identifier", "type": "Class Variable"}, "parentDataset": {"href": "/mdr/sdtmig/3-3/datasets/ML", "title": "Meal Data", "type": "SDTM Dataset"}, "parentProduct": {"href": "/mdr/sdtmig/3-3", "title": "Study Data Tabulation Model Implementation Guide: Human Clinical Trials Version 3.3 (Final)", "type": "Implementation Guide"}, "rootItem": {"href": "/mdr/root/sdtmig/datasets/ML/variables/STUDYID", "title": "Version-agnostic anchor resource for SDTMIG variable ML.STUDYID", "type": "Root Data Element"}, "self": {"href": "/mdr/sdtmig/3-3/datasets/ML/variables/STUDYID", "title": "Study Identifier", "type": "SDTM Dataset Variable"}}, "core": "Req", "description": "Unique identifier for a study.", "label": "Study Identifier", "name": "STUDYID", "ordinal": "1", "role": "Identifier", "simpleDatatype": "Char"}, {"_links": {"modelClassVariable": {"href": "/mdr/sdtm/1-7/classes/GeneralObservations/variables/DOMAIN", "title": "Domain Abbreviation", "type": "Class Variable"}, "parentDataset": {"href": "/mdr/sdtmig/3-3/datasets/ML", "title": "Meal Data", "type": "SDTM Dataset"}, "parentProduct": {"href": "/mdr/sdtmig/3-3", "title": "Study Data Tabulation Model Implementation Guide: Human Clinical Trials Version 3.3 (Final)", "type": "Implementation Guide"}, "rootItem": {"href": "/mdr/root/sdtmig/datasets/ML/variables/DOMAIN", "title": "Version-agnostic anchor resource for SDTMIG variable ML.DOMAIN", "type": "Root Data Element"}, "self": {"href": "/mdr/sdtmig/3-3/datasets/ML/variables/DOMAIN", "title": "Domain Abbreviation", "type": "SDTM Dataset Variable"}}, "core": "Req", "description": "Two-character abbreviation for the domain.", "label": "Domain Abbreviation", "name": "DOMAIN", "ordinal": "2", "role": "Identifier", "simpleDatatype": "Char", "valueList": ["ML"]}, {"_links": {"modelClassVariable": {"href": "/mdr/sdtm/1-7/classes/GeneralObservations/variables/USUBJID", "title": "Unique Subject Identifier", "type": "Class Variable"}, "parentDataset": {"href": "/mdr/sdtmig/3-3/datasets/ML", "title": "Meal Data", "type": "SDTM Dataset"}, "parentProduct": {"href": "/mdr/sdtmig/3-3", "title": "Study Data Tabulation Model Implementation Guide: Human Clinical Trials Version 3.3 (Final)", "type": "Implementation Guide"}, "rootItem": {"href": "/mdr/root/sdtmig/datasets/ML/variables/USUBJID", "title": "Version-agnostic anchor resource for SDTMIG variable ML.USUBJID", "type": "Root Data Element"}, "self": {"href": "/mdr/sdtmig/3-3/datasets/ML/variables/USUBJID", "title": "Unique Subject Identifier", "type": "SDTM Dataset Variable"}}, "core": "Req", "description": "Identifier used to uniquely identify a subject across all studies for all applications or submissions involving the product.", "label": "Unique Subject Identifier", "name": "USUBJID", "ordinal": "3", "role": "Identifier", "simpleDatatype": "Char"}, {"_links": {"modelClassVariable": {"href": "/mdr/sdtm/1-7/classes/GeneralObservations/variables/--SEQ", "title": "Sequence Number", "type": "Class Variable"}, "parentDataset": {"href": "/mdr/sdtmig/3-3/datasets/ML", "title": "Meal Data", "type": "SDTM Dataset"}, "parentProduct": {"href": "/mdr/sdtmig/3-3", "title": "Study Data Tabulation Model Implementation Guide: Human Clinical Trials Version 3.3 (Final)", "type": "Implementation Guide"}, "rootItem": {"href": "/mdr/root/sdtmig/datasets/ML/variables/MLSEQ", "title": "Version-agnostic anchor resource for SDTMIG variable ML.MLSEQ", "type": "Root Data Element"}, "self": {"href": "/mdr/sdtmig/3-3/datasets/ML/variables/MLSEQ", "title": "Sequence Number", "type": "SDTM Dataset Variable"}}, "core": "Req", "description": "Sequence Number given to ensure uniqueness of subject records within a domain. May be any valid number.", "label": "Sequence Number", "name": "MLSEQ", "ordinal": "4", "role": "Identifier", "simpleDatatype": "Num"}, {"_links": {"modelClassVariable": {"href": "/mdr/sdtm/1-7/classes/GeneralObservations/variables/--GRPID", "title": "Group ID", "type": "Class Variable"}, "parentDataset": {"href": "/mdr/sdtmig/3-3/datasets/ML", "title": "Meal Data", "type": "SDTM Dataset"}, "parentProduct": {"href": "/mdr/sdtmig/3-3", "title": "Study Data Tabulation Model Implementation Guide: Human Clinical Trials Version 3.3 (Final)", "type": "Implementation Guide"}, "rootItem": {"href": "/mdr/root/sdtmig/datasets/ML/variables/MLGRPID", "title": "Version-agnostic anchor resource for SDTMIG variable ML.MLGRPID", "type": "Root Data Element"}, "self": {"href": "/mdr/sdtmig/3-3/datasets/ML/variables/MLGRPID", "title": "Group ID", "type": "SDTM Dataset Variable"}}, "core": "Perm", "description": "Used to tie together a block of related records in a single domain for a subject.", "label": "Group ID", "name": "MLGRPID", "ordinal": "5", "role": "Identifier", "simpleDatatype": "Char"}, {"_links": {"modelClassVariable": {"href": "/mdr/sdtm/1-7/classes/GeneralObservations/variables/--SPID", "title": "Sponsor-Defined Identifier", "type": "Class Variable"}, "parentDataset": {"href": "/mdr/sdtmig/3-3/datasets/ML", "title": "Meal Data", "type": "SDTM Dataset"}, "parentProduct": {"href": "/mdr/sdtmig/3-3", "title": "Study Data Tabulation Model Implementation Guide: Human Clinical Trials Version 3.3 (Final)", "type": "Implementation Guide"}, "rootItem": {"href": "/mdr/root/sdtmig/datasets/ML/variables/MLSPID", "title": "Version-agnostic anchor resource for SDTMIG variable ML.MLSPID", "type": "Root Data Element"}, "self": {"href": "/mdr/sdtmig/3-3/datasets/ML/variables/MLSPID", "title": "Sponsor-Defined Identifier", "type": "SDTM Dataset Variable"}}, "core": "Perm", "description": "Sponsor-defined reference number. Examples: a number pre-printed on the CRF as an explicit line identifier or record identifier defined in the sponsor's operational database.", "label": "Sponsor-Defined Identifier", "name": "MLSPID", "ordinal": "6", "role": "Identifier", "simpleDatatype": "Char"}, {"_links": {"modelClassVariable": {"href": "/mdr/sdtm/1-7/classes/Interventions/variables/--TRT", "title": "Name of Treatment", "type": "Class Variable"}, "parentDataset": {"href": "/mdr/sdtmig/3-3/datasets/ML", "title": "Meal Data", "type": "SDTM Dataset"}, "parentProduct": {"href": "/mdr/sdtmig/3-3", "title": "Study Data Tabulation Model Implementation Guide: Human Clinical Trials Version 3.3 (Final)", "type": "Implementation Guide"}, "rootItem": {"href": "/mdr/root/sdtmig/datasets/ML/variables/MLTRT", "title": "Version-agnostic anchor resource for SDTMIG variable ML.MLTRT", "type": "Root Data Element"}, "self": {"href": "/mdr/sdtmig/3-3/datasets/ML/variables/MLTRT", "title": "Name of Meal", "type": "SDTM Dataset Variable"}}, "core": "Req", "description": "Verbatim food product name that is either pre-printed or collected on a CRF.", "label": "Name of Meal", "name": "MLTRT", "ordinal": "7", "role": "Topic", "simpleDatatype": "Char"}, {"_links": {"modelClassVariable": {"href": "/mdr/sdtm/1-7/classes/Interventions/variables/--CAT", "title": "Category", "type": "Class Variable"}, "parentDataset": {"href": "/mdr/sdtmig/3-3/datasets/ML", "title": "Meal Data", "type": "SDTM Dataset"}, "parentProduct": {"href": "/mdr/sdtmig/3-3", "title": "Study Data Tabulation Model Implementation Guide: Human Clinical Trials Version 3.3 (Final)", "type": "Implementation Guide"}, "rootItem": {"href": "/mdr/root/sdtmig/datasets/ML/variables/MLCAT", "title": "Version-agnostic anchor resource for SDTMIG variable ML.MLCAT", "type": "Root Data Element"}, "self": {"href": "/mdr/sdtmig/3-3/datasets/ML/variables/MLCAT", "title": "Category for Meal", "type": "SDTM Dataset Variable"}}, "core": "Perm", "description": "Used to define a category of MLTRT values.", "label": "Category for Meal", "name": "MLCAT", "ordinal": "8", "role": "Grouping Qualifier", "simpleDatatype": "Char"}, {"_links": {"modelClassVariable": {"href": "/mdr/sdtm/1-7/classes/Interventions/variables/--SCAT", "title": "Subcategory", "type": "Class Variable"}, "parentDataset": {"href": "/mdr/sdtmig/3-3/datasets/ML", "title": "Meal Data", "type": "SDTM Dataset"}, "parentProduct": {"href": "/mdr/sdtmig/3-3", "title": "Study Data Tabulation Model Implementation Guide: Human Clinical Trials Version 3.3 (Final)", "type": "Implementation Guide"}, "rootItem": {"href": "/mdr/root/sdtmig/datasets/ML/variables/MLSCAT", "title": "Version-agnostic anchor resource for SDTMIG variable ML.MLSCAT", "type": "Root Data Element"}, "self": {"href": "/mdr/sdtmig/3-3/datasets/ML/variables/MLSCAT", "title": "Subcategory for Meal", "type": "SDTM Dataset Variable"}}, "core": "Perm", "description": "Used to define a further categorization of MLCAT values.", "label": "Subcategory for Meal", "name": "MLSCAT", "ordinal": "9", "role": "Grouping Qualifier", "simpleDatatype": "Char"}, {"_links": {"codelist": [{"href": "/mdr/root/ct/sdtmct/codelists/C66742", "title": "Version-agnostic anchor resource for codelist C66742", "type": "Root Value Domain"}], "modelClassVariable": {"href": "/mdr/sdtm/1-7/classes/Interventions/variables/--PRESP", "title": "Pre-specified", "type": "Class Variable"}, "parentDataset": {"href": "/mdr/sdtmig/3-3/datasets/ML", "title": "Meal Data", "type": "SDTM Dataset"}, "parentProduct": {"href": "/mdr/sdtmig/3-3", "title": "Study Data Tabulation Model Implementation Guide: Human Clinical Trials Version 3.3 (Final)", "type": "Implementation Guide"}, "rootItem": {"href": "/mdr/root/sdtmig/datasets/ML/variables/MLPRESP", "title": "Version-agnostic anchor resource for SDTMIG variable ML.MLPRESP", "type": "Root Data Element"}, "self": {"href": "/mdr/sdtmig/3-3/datasets/ML/variables/MLPRESP", "title": "ML Pre-specified", "type": "SDTM Dataset Variable"}}, "core": "Perm", "description": "Used when a specific meal is pre-specified on a CRF. Values should be \"Y\" or null.", "label": "ML Pre-specified", "name": "MLPRESP", "ordinal": "10", "role": "Variable Qualifier", "simpleDatatype": "Char"}, {"_links": {"codelist": [{"href": "/mdr/root/ct/sdtmct/codelists/C66742", "title": "Version-agnostic anchor resource for codelist C66742", "type": "Root Value Domain"}], "modelClassVariable": {"href": "/mdr/sdtm/1-7/classes/Interventions/variables/--OCCUR", "title": "Occurrence Indicator", "type": "Class Variable"}, "parentDataset": {"href": "/mdr/sdtmig/3-3/datasets/ML", "title": "Meal Data", "type": "SDTM Dataset"}, "parentProduct": {"href": "/mdr/sdtmig/3-3", "title": "Study Data Tabulation Model Implementation Guide: Human Clinical Trials Version 3.3 (Final)", "type": "Implementation Guide"}, "rootItem": {"href": "/mdr/root/sdtmig/datasets/ML/variables/MLOCCUR", "title": "Version-agnostic anchor resource for SDTMIG variable ML.MLOCCUR", "type": "Root Data Element"}, "self": {"href": "/mdr/sdtmig/3-3/datasets/ML/variables/MLOCCUR", "title": "ML Occurrence", "type": "SDTM Dataset Variable"}}, "core": "Perm", "description": "Used to record whether a pre-specified meal occurred when information about the occurrence of a specific meal is solicited.", "label": "ML Occurrence", "name": "MLOCCUR", "ordinal": "11", "role": "Record Qualifier", "simpleDatatype": "Char"}, {"_links": {"codelist": [{"href": "/mdr/root/ct/sdtmct/codelists/C66789", "title": "Version-agnostic anchor resource for codelist C66789", "type": "Root Value Domain"}], "modelClassVariable": {"href": "/mdr/sdtm/1-7/classes/Interventions/variables/--STAT", "title": "Completion Status", "type": "Class Variable"}, "parentDataset": {"href": "/mdr/sdtmig/3-3/datasets/ML", "title": "Meal Data", "type": "SDTM Dataset"}, "parentProduct": {"href": "/mdr/sdtmig/3-3", "title": "Study Data Tabulation Model Implementation Guide: Human Clinical Trials Version 3.3 (Final)", "type": "Implementation Guide"}, "rootItem": {"href": "/mdr/root/sdtmig/datasets/ML/variables/MLSTAT", "title": "Version-agnostic anchor resource for SDTMIG variable ML.MLSTAT", "type": "Root Data Element"}, "self": {"href": "/mdr/sdtmig/3-3/datasets/ML/variables/MLSTAT", "title": "Completion Status", "type": "SDTM Dataset Variable"}}, "core": "Perm", "description": "Used to indicate when a question about the occurrence of a pre-specified meal was not answered. Should be null or have a value of \"NOT DONE\".", "label": "Completion Status", "name": "MLSTAT", "ordinal": "12", "role": "Record Qualifier", "simpleDatatype": "Char"}, {"_links": {"modelClassVariable": {"href": "/mdr/sdtm/1-7/classes/Interventions/variables/--REASND", "title": "Reason Not Done", "type": "Class Variable"}, "parentDataset": {"href": "/mdr/sdtmig/3-3/datasets/ML", "title": "Meal Data", "type": "SDTM Dataset"}, "parentProduct": {"href": "/mdr/sdtmig/3-3", "title": "Study Data Tabulation Model Implementation Guide: Human Clinical Trials Version 3.3 (Final)", "type": "Implementation Guide"}, "rootItem": {"href": "/mdr/root/sdtmig/datasets/ML/variables/MLREASND", "title": "Version-agnostic anchor resource for SDTMIG variable ML.MLREASND", "type": "Root Data Element"}, "self": {"href": "/mdr/sdtmig/3-3/datasets/ML/variables/MLREASND", "title": "Reason Meal Not Collected", "type": "SDTM Dataset Variable"}}, "core": "Perm", "description": "Describes the reason a response to a question about the occurrence of a meal was not collected. Used in conjunction with MLSTAT when value is \"NOT DONE\".", "label": "Reason Meal Not Collected", "name": "MLREASND", "ordinal": "13", "role": "Record Qualifier", "simpleDatatype": "Char"}, {"_links": {"modelClassVariable": {"href": "/mdr/sdtm/1-7/classes/Interventions/variables/--DOSE", "title": "Dose", "type": "Class Variable"}, "parentDataset": {"href": "/mdr/sdtmig/3-3/datasets/ML", "title": "Meal Data", "type": "SDTM Dataset"}, "parentProduct": {"href": "/mdr/sdtmig/3-3", "title": "Study Data Tabulation Model Implementation Guide: Human Clinical Trials Version 3.3 (Final)", "type": "Implementation Guide"}, "rootItem": {"href": "/mdr/root/sdtmig/datasets/ML/variables/MLDOSE", "title": "Version-agnostic anchor resource for SDTMIG variable ML.MLDOSE", "type": "Root Data Element"}, "self": {"href": "/mdr/sdtmig/3-3/datasets/ML/variables/MLDOSE", "title": "Dose", "type": "SDTM Dataset Variable"}}, "core": "Perm", "description": "Amount of MLTRT consumed. Not populated when MLDOSTXT is populated.", "label": "Dose", "name": "MLDOSE", "ordinal": "14", "role": "Record Qualifier", "simpleDatatype": "Num"}, {"_links": {"modelClassVariable": {"href": "/mdr/sdtm/1-7/classes/Interventions/variables/--DOSTXT", "title": "Dose Description", "type": "Class Variable"}, "parentDataset": {"href": "/mdr/sdtmig/3-3/datasets/ML", "title": "Meal Data", "type": "SDTM Dataset"}, "parentProduct": {"href": "/mdr/sdtmig/3-3", "title": "Study Data Tabulation Model Implementation Guide: Human Clinical Trials Version 3.3 (Final)", "type": "Implementation Guide"}, "rootItem": {"href": "/mdr/root/sdtmig/datasets/ML/variables/MLDOSTXT", "title": "Version-agnostic anchor resource for SDTMIG variable ML.MLDOSTXT", "type": "Root Data Element"}, "self": {"href": "/mdr/sdtmig/3-3/datasets/ML/variables/MLDOSTXT", "title": "Dose Description", "type": "SDTM Dataset Variable"}}, "core": "Perm", "description": "Amount description of MLTRT consumed, collected in text form. Not populated when MLDOSE is populated. Examples: \"<1 per day\", \"200-400\".", "label": "Dose Description", "name": "MLDOSTXT", "ordinal": "15", "role": "Record Qualifier", "simpleDatatype": "Char"}, {"_links": {"codelist": [{"href": "/mdr/root/ct/sdtmct/codelists/C71620", "title": "Version-agnostic anchor resource for codelist C71620", "type": "Root Value Domain"}], "modelClassVariable": {"href": "/mdr/sdtm/1-7/classes/Interventions/variables/--DOSU", "title": "Dose Units", "type": "Class Variable"}, "parentDataset": {"href": "/mdr/sdtmig/3-3/datasets/ML", "title": "Meal Data", "type": "SDTM Dataset"}, "parentProduct": {"href": "/mdr/sdtmig/3-3", "title": "Study Data Tabulation Model Implementation Guide: Human Clinical Trials Version 3.3 (Final)", "type": "Implementation Guide"}, "rootItem": {"href": "/mdr/root/sdtmig/datasets/ML/variables/MLDOSU", "title": "Version-agnostic anchor resource for SDTMIG variable ML.MLDOSU", "type": "Root Data Element"}, "self": {"href": "/mdr/sdtmig/3-3/datasets/ML/variables/MLDOSU", "title": "Dose Units", "type": "SDTM Dataset Variable"}}, "core": "Perm", "description": "Units for MLDOSE, MLDOSTOT, or MLDOSTXT.", "label": "Dose Units", "name": "MLDOSU", "ordinal": "16", "role": "Variable Qualifier", "simpleDatatype": "Char"}, {"_links": {"codelist": [{"href": "/mdr/root/ct/sdtmct/codelists/C66726", "title": "Version-agnostic anchor resource for codelist C66726", "type": "Root Value Domain"}], "modelClassVariable": {"href": "/mdr/sdtm/1-7/classes/Interventions/variables/--DOSFRM", "title": "Dose Form", "type": "Class Variable"}, "parentDataset": {"href": "/mdr/sdtmig/3-3/datasets/ML", "title": "Meal Data", "type": "SDTM Dataset"}, "parentProduct": {"href": "/mdr/sdtmig/3-3", "title": "Study Data Tabulation Model Implementation Guide: Human Clinical Trials Version 3.3 (Final)", "type": "Implementation Guide"}, "rootItem": {"href": "/mdr/root/sdtmig/datasets/ML/variables/MLDOSFRM", "title": "Version-agnostic anchor resource for SDTMIG variable ML.MLDOSFRM", "type": "Root Data Element"}, "self": {"href": "/mdr/sdtmig/3-3/datasets/ML/variables/MLDOSFRM", "title": "Dose Form", "type": "SDTM Dataset Variable"}}, "core": "Perm", "description": "Dosage form for MLTRT. Example: \"BAR, CHEWABLE\".", "label": "Dose Form", "name": "MLDOSFRM", "ordinal": "17", "role": "Variable Qualifier", "simpleDatatype": "Char"}, {"_links": {"modelClassVariable": {"href": "/mdr/sdtm/1-7/classes/GeneralObservations/variables/VISITNUM", "title": "Visit Number", "type": "Class Variable"}, "parentDataset": {"href": "/mdr/sdtmig/3-3/datasets/ML", "title": "Meal Data", "type": "SDTM Dataset"}, "parentProduct": {"href": "/mdr/sdtmig/3-3", "title": "Study Data Tabulation Model Implementation Guide: Human Clinical Trials Version 3.3 (Final)", "type": "Implementation Guide"}, "rootItem": {"href": "/mdr/root/sdtmig/datasets/ML/variables/VISITNUM", "title": "Version-agnostic anchor resource for SDTMIG variable ML.VISITNUM", "type": "Root Data Element"}, "self": {"href": "/mdr/sdtmig/3-3/datasets/ML/variables/VISITNUM", "title": "Visit Number", "type": "SDTM Dataset Variable"}}, "core": "Perm", "description": "Clinical encounter number. Numeric version of VISIT, used for sorting.", "label": "Visit Number", "name": "VISITNUM", "ordinal": "18", "role": "Timing", "simpleDatatype": "Num"}, {"_links": {"modelClassVariable": {"href": "/mdr/sdtm/1-7/classes/GeneralObservations/variables/VISIT", "title": "Visit Name", "type": "Class Variable"}, "parentDataset": {"href": "/mdr/sdtmig/3-3/datasets/ML", "title": "Meal Data", "type": "SDTM Dataset"}, "parentProduct": {"href": "/mdr/sdtmig/3-3", "title": "Study Data Tabulation Model Implementation Guide: Human Clinical Trials Version 3.3 (Final)", "type": "Implementation Guide"}, "rootItem": {"href": "/mdr/root/sdtmig/datasets/ML/variables/VISIT", "title": "Version-agnostic anchor resource for SDTMIG variable ML.VISIT", "type": "Root Data Element"}, "self": {"href": "/mdr/sdtmig/3-3/datasets/ML/variables/VISIT", "title": "Visit Name", "type": "SDTM Dataset Variable"}}, "core": "Perm", "description": "Protocol-defined description of a clinical encounter.", "label": "Visit Name", "name": "VISIT", "ordinal": "19", "role": "Timing", "simpleDatatype": "Char"}, {"_links": {"modelClassVariable": {"href": "/mdr/sdtm/1-7/classes/GeneralObservations/variables/VISITDY", "title": "Planned Study Day of Visit", "type": "Class Variable"}, "parentDataset": {"href": "/mdr/sdtmig/3-3/datasets/ML", "title": "Meal Data", "type": "SDTM Dataset"}, "parentProduct": {"href": "/mdr/sdtmig/3-3", "title": "Study Data Tabulation Model Implementation Guide: Human Clinical Trials Version 3.3 (Final)", "type": "Implementation Guide"}, "rootItem": {"href": "/mdr/root/sdtmig/datasets/ML/variables/VISITDY", "title": "Version-agnostic anchor resource for SDTMIG variable ML.VISITDY", "type": "Root Data Element"}, "self": {"href": "/mdr/sdtmig/3-3/datasets/ML/variables/VISITDY", "title": "Planned Study Day of Visit", "type": "SDTM Dataset Variable"}}, "core": "Perm", "description": "Planned study day of VISIT. Should be an integer.", "label": "Planned Study Day of Visit", "name": "VISITDY", "ordinal": "20", "role": "Timing", "simpleDatatype": "Num"}, {"_links": {"modelClassVariable": {"href": "/mdr/sdtm/1-7/classes/GeneralObservations/variables/TAETORD", "title": "Planned Order of Element Within Arm", "type": "Class Variable"}, "parentDataset": {"href": "/mdr/sdtmig/3-3/datasets/ML", "title": "Meal Data", "type": "SDTM Dataset"}, "parentProduct": {"href": "/mdr/sdtmig/3-3", "title": "Study Data Tabulation Model Implementation Guide: Human Clinical Trials Version 3.3 (Final)", "type": "Implementation Guide"}, "rootItem": {"href": "/mdr/root/sdtmig/datasets/ML/variables/TAETORD", "title": "Version-agnostic anchor resource for SDTMIG variable ML.TAETORD", "type": "Root Data Element"}, "self": {"href": "/mdr/sdtmig/3-3/datasets/ML/variables/TAETORD", "title": "Planned Order of Element within Arm", "type": "SDTM Dataset Variable"}}, "core": "Perm", "description": "Number that gives the planned order of the Element within the Arm for the Element in which the meal started.", "label": "Planned Order of Element within Arm", "name": "TAETORD", "ordinal": "21", "role": "Timing", "simpleDatatype": "Num"}, {"_links": {"codelist": [{"href": "/mdr/root/ct/sdtmct/codelists/C99079", "title": "Version-agnostic anchor resource for codelist C99079", "type": "Root Value Domain"}], "modelClassVariable": {"href": "/mdr/sdtm/1-7/classes/GeneralObservations/variables/EPOCH", "title": "Epoch", "type": "Class Variable"}, "parentDataset": {"href": "/mdr/sdtmig/3-3/datasets/ML", "title": "Meal Data", "type": "SDTM Dataset"}, "parentProduct": {"href": "/mdr/sdtmig/3-3", "title": "Study Data Tabulation Model Implementation Guide: Human Clinical Trials Version 3.3 (Final)", "type": "Implementation Guide"}, "rootItem": {"href": "/mdr/root/sdtmig/datasets/ML/variables/EPOCH", "title": "Version-agnostic anchor resource for SDTMIG variable ML.EPOCH", "type": "Root Data Element"}, "self": {"href": "/mdr/sdtmig/3-3/datasets/ML/variables/EPOCH", "title": "Epoch", "type": "SDTM Dataset Variable"}}, "core": "Perm", "description": "Epoch associated with the start date/time of the meal.", "label": "Epoch", "name": "EPOCH", "ordinal": "22", "role": "Timing", "simpleDatatype": "Char"}, {"_links": {"modelClassVariable": {"href": "/mdr/sdtm/1-7/classes/GeneralObservations/variables/--DTC", "title": "Date/Time of Collection", "type": "Class Variable"}, "parentDataset": {"href": "/mdr/sdtmig/3-3/datasets/ML", "title": "Meal Data", "type": "SDTM Dataset"}, "parentProduct": {"href": "/mdr/sdtmig/3-3", "title": "Study Data Tabulation Model Implementation Guide: Human Clinical Trials Version 3.3 (Final)", "type": "Implementation Guide"}, "rootItem": {"href": "/mdr/root/sdtmig/datasets/ML/variables/MLDTC", "title": "Version-agnostic anchor resource for SDTMIG variable ML.MLDTC", "type": "Root Data Element"}, "self": {"href": "/mdr/sdtmig/3-3/datasets/ML/variables/MLDTC", "title": "Date/Time of Collection", "type": "SDTM Dataset Variable"}}, "core": "Perm", "describedValueDomain": "ISO 8601", "description": "Collection date and time of the meal represented in ISO 8601 character format.", "label": "Date/Time of Collection", "name": "MLDTC", "ordinal": "23", "role": "Timing", "simpleDatatype": "Char"}, {"_links": {"modelClassVariable": {"href": "/mdr/sdtm/1-7/classes/GeneralObservations/variables/--STDTC", "title": "Start Date/Time of Observation", "type": "Class Variable"}, "parentDataset": {"href": "/mdr/sdtmig/3-3/datasets/ML", "title": "Meal Data", "type": "SDTM Dataset"}, "parentProduct": {"href": "/mdr/sdtmig/3-3", "title": "Study Data Tabulation Model Implementation Guide: Human Clinical Trials Version 3.3 (Final)", "type": "Implementation Guide"}, "rootItem": {"href": "/mdr/root/sdtmig/datasets/ML/variables/MLSTDTC", "title": "Version-agnostic anchor resource for SDTMIG variable ML.MLSTDTC", "type": "Root Data Element"}, "self": {"href": "/mdr/sdtmig/3-3/datasets/ML/variables/MLSTDTC", "title": "Start Date/Time of Meal", "type": "SDTM Dataset Variable"}}, "core": "Perm", "describedValueDomain": "ISO 8601", "description": "Start date/time of the meal represented in ISO 8601 character format.", "label": "Start Date/Time of Meal", "name": "MLSTDTC", "ordinal": "24", "role": "Timing", "simpleDatatype": "Char"}, {"_links": {"modelClassVariable": {"href": "/mdr/sdtm/1-7/classes/GeneralObservations/variables/--ENDTC", "title": "End Date/Time of Observation", "type": "Class Variable"}, "parentDataset": {"href": "/mdr/sdtmig/3-3/datasets/ML", "title": "Meal Data", "type": "SDTM Dataset"}, "parentProduct": {"href": "/mdr/sdtmig/3-3", "title": "Study Data Tabulation Model Implementation Guide: Human Clinical Trials Version 3.3 (Final)", "type": "Implementation Guide"}, "rootItem": {"href": "/mdr/root/sdtmig/datasets/ML/variables/MLENDTC", "title": "Version-agnostic anchor resource for SDTMIG variable ML.MLENDTC", "type": "Root Data Element"}, "self": {"href": "/mdr/sdtmig/3-3/datasets/ML/variables/MLENDTC", "title": "End Date/Time of Meal", "type": "SDTM Dataset Variable"}}, "core": "Perm", "describedValueDomain": "ISO 8601", "description": "End date/time of the meal represented in ISO 8601 character format.", "label": "End Date/Time of Meal", "name": "MLENDTC", "ordinal": "25", "role": "Timing", "simpleDatatype": "Char"}, {"_links": {"modelClassVariable": {"href": "/mdr/sdtm/1-7/classes/GeneralObservations/variables/--DY", "title": "Study Day of Visit/Collection/Exam", "type": "Class Variable"}, "parentDataset": {"href": "/mdr/sdtmig/3-3/datasets/ML", "title": "Meal Data", "type": "SDTM Dataset"}, "parentProduct": {"href": "/mdr/sdtmig/3-3", "title": "Study Data Tabulation Model Implementation Guide: Human Clinical Trials Version 3.3 (Final)", "type": "Implementation Guide"}, "rootItem": {"href": "/mdr/root/sdtmig/datasets/ML/variables/MLDY", "title": "Version-agnostic anchor resource for SDTMIG variable ML.MLDY", "type": "Root Data Element"}, "self": {"href": "/mdr/sdtmig/3-3/datasets/ML/variables/MLDY", "title": "Study Day of Visit/Collection/Exam", "type": "SDTM Dataset Variable"}}, "core": "Perm", "description": "Actual study day of the visit/collection expressed in integer days relative to the sponsor-defined RFSTDTC in Demographics.", "label": "Study Day of Visit/Collection/Exam", "name": "MLDY", "ordinal": "26", "role": "Timing", "simpleDatatype": "Num"}, {"_links": {"modelClassVariable": {"href": "/mdr/sdtm/1-7/classes/GeneralObservations/variables/--STDY", "title": "Study Day of Start of Observation", "type": "Class Variable"}, "parentDataset": {"href": "/mdr/sdtmig/3-3/datasets/ML", "title": "Meal Data", "type": "SDTM Dataset"}, "parentProduct": {"href": "/mdr/sdtmig/3-3", "title": "Study Data Tabulation Model Implementation Guide: Human Clinical Trials Version 3.3 (Final)", "type": "Implementation Guide"}, "rootItem": {"href": "/mdr/root/sdtmig/datasets/ML/variables/MLSTDY", "title": "Version-agnostic anchor resource for SDTMIG variable ML.MLSTDY", "type": "Root Data Element"}, "self": {"href": "/mdr/sdtmig/3-3/datasets/ML/variables/MLSTDY", "title": "Study Day of Start of Meal", "type": "SDTM Dataset Variable"}}, "core": "Perm", "description": "Actual study day of start of the meal expressed in integer days relative to sponsor-defined RFSTDTC in Demographics.", "label": "Study Day of Start of Meal", "name": "MLSTDY", "ordinal": "27", "role": "Timing", "simpleDatatype": "Num"}, {"_links": {"modelClassVariable": {"href": "/mdr/sdtm/1-7/classes/GeneralObservations/variables/--ENDY", "title": "Study Day of End of Observation", "type": "Class Variable"}, "parentDataset": {"href": "/mdr/sdtmig/3-3/datasets/ML", "title": "Meal Data", "type": "SDTM Dataset"}, "parentProduct": {"href": "/mdr/sdtmig/3-3", "title": "Study Data Tabulation Model Implementation Guide: Human Clinical Trials Version 3.3 (Final)", "type": "Implementation Guide"}, "rootItem": {"href": "/mdr/root/sdtmig/datasets/ML/variables/MLENDY", "title": "Version-agnostic anchor resource for SDTMIG variable ML.MLENDY", "type": "Root Data Element"}, "self": {"href": "/mdr/sdtmig/3-3/datasets/ML/variables/MLENDY", "title": "Study Day of End of Meal", "type": "SDTM Dataset Variable"}}, "core": "Perm", "description": "Actual study day of end of the meal expressed in integer days relative to the sponsor-defined RFSTDTC in Demographics.", "label": "Study Day of End of Meal", "name": "MLENDY", "ordinal": "28", "role": "Timing", "simpleDatatype": "Num"}, {"_links": {"modelClassVariable": {"href": "/mdr/sdtm/1-7/classes/GeneralObservations/variables/--DUR", "title": "Duration", "type": "Class Variable"}, "parentDataset": {"href": "/mdr/sdtmig/3-3/datasets/ML", "title": "Meal Data", "type": "SDTM Dataset"}, "parentProduct": {"href": "/mdr/sdtmig/3-3", "title": "Study Data Tabulation Model Implementation Guide: Human Clinical Trials Version 3.3 (Final)", "type": "Implementation Guide"}, "rootItem": {"href": "/mdr/root/sdtmig/datasets/ML/variables/MLDUR", "title": "Version-agnostic anchor resource for SDTMIG variable ML.MLDUR", "type": "Root Data Element"}, "self": {"href": "/mdr/sdtmig/3-3/datasets/ML/variables/MLDUR", "title": "Duration of Meal", "type": "SDTM Dataset Variable"}}, "core": "Perm", "describedValueDomain": "ISO 8601", "description": "Collected duration of the meal represented in ISO 8601 character format. Used only if collected on the CRF and not derived.", "label": "Duration of Meal", "name": "MLDUR", "ordinal": "29", "role": "Timing", "simpleDatatype": "Char"}, {"_links": {"modelClassVariable": {"href": "/mdr/sdtm/1-7/classes/GeneralObservations/variables/--TPT", "title": "Planned Time Point Name", "type": "Class Variable"}, "parentDataset": {"href": "/mdr/sdtmig/3-3/datasets/ML", "title": "Meal Data", "type": "SDTM Dataset"}, "parentProduct": {"href": "/mdr/sdtmig/3-3", "title": "Study Data Tabulation Model Implementation Guide: Human Clinical Trials Version 3.3 (Final)", "type": "Implementation Guide"}, "rootItem": {"href": "/mdr/root/sdtmig/datasets/ML/variables/MLTPT", "title": "Version-agnostic anchor resource for SDTMIG variable ML.MLTPT", "type": "Root Data Element"}, "self": {"href": "/mdr/sdtmig/3-3/datasets/ML/variables/MLTPT", "title": "Planned Time Point Name", "type": "SDTM Dataset Variable"}}, "core": "Perm", "description": "Text description of time when a measurement or observation should be taken as defined in the protocol. This may be represented as an elapsed time relative to a fixed reference point. See MLTPTNUM and MLTPTREF.", "label": "Planned Time Point Name", "name": "MLTPT", "ordinal": "30", "role": "Timing", "simpleDatatype": "Char"}, {"_links": {"modelClassVariable": {"href": "/mdr/sdtm/1-7/classes/GeneralObservations/variables/--TPTNUM", "title": "Planned Time Point Number", "type": "Class Variable"}, "parentDataset": {"href": "/mdr/sdtmig/3-3/datasets/ML", "title": "Meal Data", "type": "SDTM Dataset"}, "parentProduct": {"href": "/mdr/sdtmig/3-3", "title": "Study Data Tabulation Model Implementation Guide: Human Clinical Trials Version 3.3 (Final)", "type": "Implementation Guide"}, "rootItem": {"href": "/mdr/root/sdtmig/datasets/ML/variables/MLTPTNUM", "title": "Version-agnostic anchor resource for SDTMIG variable ML.MLTPTNUM", "type": "Root Data Element"}, "self": {"href": "/mdr/sdtmig/3-3/datasets/ML/variables/MLTPTNUM", "title": "Planned Time Point Number", "type": "SDTM Dataset Variable"}}, "core": "Perm", "description": "Numeric version of planned time point used in sorting.", "label": "Planned Time Point Number", "name": "MLTPTNUM", "ordinal": "31", "role": "Timing", "simpleDatatype": "Num"}, {"_links": {"modelClassVariable": {"href": "/mdr/sdtm/1-7/classes/GeneralObservations/variables/--ELTM", "title": "Planned Elapsed Time from Time Point Ref", "type": "Class Variable"}, "parentDataset": {"href": "/mdr/sdtmig/3-3/datasets/ML", "title": "Meal Data", "type": "SDTM Dataset"}, "parentProduct": {"href": "/mdr/sdtmig/3-3", "title": "Study Data Tabulation Model Implementation Guide: Human Clinical Trials Version 3.3 (Final)", "type": "Implementation Guide"}, "rootItem": {"href": "/mdr/root/sdtmig/datasets/ML/variables/MLELTM", "title": "Version-agnostic anchor resource for SDTMIG variable ML.MLELTM", "type": "Root Data Element"}, "self": {"href": "/mdr/sdtmig/3-3/datasets/ML/variables/MLELTM", "title": "Planned Elapsed Time from Time Point Ref", "type": "SDTM Dataset Variable"}}, "core": "Perm", "describedValueDomain": "ISO 8601", "description": "Planned Elapsed time (in ISO 8601) relative to the planned fixed reference (MLTPTREF). This variable is useful when there are repetitive measures. Not a clock time or a date/time variable. Represented as an ISO 8601 duration.", "label": "Planned Elapsed Time from Time Point Ref", "name": "MLELTM", "ordinal": "32", "role": "Timing", "simpleDatatype": "Char"}, {"_links": {"modelClassVariable": {"href": "/mdr/sdtm/1-7/classes/GeneralObservations/variables/--TPTREF", "title": "Time Point Reference", "type": "Class Variable"}, "parentDataset": {"href": "/mdr/sdtmig/3-3/datasets/ML", "title": "Meal Data", "type": "SDTM Dataset"}, "parentProduct": {"href": "/mdr/sdtmig/3-3", "title": "Study Data Tabulation Model Implementation Guide: Human Clinical Trials Version 3.3 (Final)", "type": "Implementation Guide"}, "rootItem": {"href": "/mdr/root/sdtmig/datasets/ML/variables/MLTPTREF", "title": "Version-agnostic anchor resource for SDTMIG variable ML.MLTPTREF", "type": "Root Data Element"}, "self": {"href": "/mdr/sdtmig/3-3/datasets/ML/variables/MLTPTREF", "title": "Time Point Reference", "type": "SDTM Dataset Variable"}}, "core": "Perm", "description": "Description of the fixed reference point referred to by MLELTM, MLTPTNUM, and MLTPT.", "label": "Time Point Reference", "name": "MLTPTREF", "ordinal": "33", "role": "Timing", "simpleDatatype": "Char"}, {"_links": {"modelClassVariable": {"href": "/mdr/sdtm/1-7/classes/GeneralObservations/variables/--RFTDTC", "title": "Date/Time of Reference Time Point", "type": "Class Variable"}, "parentDataset": {"href": "/mdr/sdtmig/3-3/datasets/ML", "title": "Meal Data", "type": "SDTM Dataset"}, "parentProduct": {"href": "/mdr/sdtmig/3-3", "title": "Study Data Tabulation Model Implementation Guide: Human Clinical Trials Version 3.3 (Final)", "type": "Implementation Guide"}, "rootItem": {"href": "/mdr/root/sdtmig/datasets/ML/variables/MLRFTDTC", "title": "Version-agnostic anchor resource for SDTMIG variable ML.MLRFTDTC", "type": "Root Data Element"}, "self": {"href": "/mdr/sdtmig/3-3/datasets/ML/variables/MLRFTDTC", "title": "Date/Time of Reference Time Point", "type": "SDTM Dataset Variable"}}, "core": "Perm", "describedValueDomain": "ISO 8601", "description": "Date/time for a fixed reference time point defined by MLTPTREF in ISO 8601 character format.", "label": "Date/Time of Reference Time Point", "name": "MLRFTDTC", "ordinal": "34", "role": "Timing", "simpleDatatype": "Char"}, {"_links": {"modelClassVariable": {"href": "/mdr/sdtm/1-7/classes/GeneralObservations/variables/MIDS", "title": "Disease Milestone Instance Name", "type": "Class Variable"}, "parentDataset": {"href": "/mdr/sdtmig/3-3/datasets/ML", "title": "Meal Data", "type": "SDTM Dataset"}, "parentProduct": {"href": "/mdr/sdtmig/3-3", "title": "Study Data Tabulation Model Implementation Guide: Human Clinical Trials Version 3.3 (Final)", "type": "Implementation Guide"}, "rootItem": {"href": "/mdr/root/sdtmig/datasets/ML/variables/MIDS", "title": "Version-agnostic anchor resource for SDTMIG variable ML.MIDS", "type": "Root Data Element"}, "self": {"href": "/mdr/sdtmig/3-3/datasets/ML/variables/MIDS", "title": "Disease Milestone Instance Name", "type": "SDTM Dataset Variable"}}, "core": "Perm", "description": "The name of a specific instance of a Disease Milestone Type (MIDSTYPE) described in the Trial Disease Milestones dataset. This should be unique within a subject. Used only in conjunction with RELMIDS and MIDSDTC.", "label": "Disease Milestone Instance Name", "name": "MIDS", "ordinal": "35", "role": "Timing", "simpleDatatype": "Char"}, {"_links": {"modelClassVariable": {"href": "/mdr/sdtm/1-7/classes/GeneralObservations/variables/RELMIDS", "title": "Temporal Relation to Milestone Instance", "type": "Class Variable"}, "parentDataset": {"href": "/mdr/sdtmig/3-3/datasets/ML", "title": "Meal Data", "type": "SDTM Dataset"}, "parentProduct": {"href": "/mdr/sdtmig/3-3", "title": "Study Data Tabulation Model Implementation Guide: Human Clinical Trials Version 3.3 (Final)", "type": "Implementation Guide"}, "rootItem": {"href": "/mdr/root/sdtmig/datasets/ML/variables/RELMIDS", "title": "Version-agnostic anchor resource for SDTMIG variable ML.RELMIDS", "type": "Root Data Element"}, "self": {"href": "/mdr/sdtmig/3-3/datasets/ML/variables/RELMIDS", "title": "Temporal Relation to Milestone Instance", "type": "SDTM Dataset Variable"}}, "core": "Perm", "description": "The temporal relationship of the observation to the Disease Milestone Instance Name in MIDS. Examples: \"IMMEDIATELY BEFORE\", \"AT TIME OF\", \"AFTER\".", "label": "Temporal Relation to Milestone Instance", "name": "RELMIDS", "ordinal": "36", "role": "Timing", "simpleDatatype": "Char"}, {"_links": {"modelClassVariable": {"href": "/mdr/sdtm/1-7/classes/GeneralObservations/variables/MIDSDTC", "title": "Disease Milestone Instance Date/Time", "type": "Class Variable"}, "parentDataset": {"href": "/mdr/sdtmig/3-3/datasets/ML", "title": "Meal Data", "type": "SDTM Dataset"}, "parentProduct": {"href": "/mdr/sdtmig/3-3", "title": "Study Data Tabulation Model Implementation Guide: Human Clinical Trials Version 3.3 (Final)", "type": "Implementation Guide"}, "rootItem": {"href": "/mdr/root/sdtmig/datasets/ML/variables/MIDSDTC", "title": "Version-agnostic anchor resource for SDTMIG variable ML.MIDSDTC", "type": "Root Data Element"}, "self": {"href": "/mdr/sdtmig/3-3/datasets/ML/variables/MIDSDTC", "title": "Disease Milestone Instance Date/Time", "type": "SDTM Dataset Variable"}}, "core": "Perm", "describedValueDomain": "ISO 8601", "description": "The start date/time of the Disease Milestone Instance Name in MIDS, in ISO 8601 format.", "label": "Disease Milestone Instance Date/Time", "name": "MIDSDTC", "ordinal": "37", "role": "Timing", "simpleDatatype": "Char"}], "description": "An interventions domain that contains information describing a subject's food product consumption. (Source: CDISC Controlled Terminology, DOMAIN, C49604, 2018-06-29)", "label": "Meal Data", "name": "ML", "ordinal": "10"}
