{"_links": {"parentProduct": {"href": "/mdr/sdtm/1-7", "title": "Study Data Tabulation Model Version 1.7", "type": "Foundational Model"}, "priorVersion": {"href": "/mdr/sdtm/1-6/classes/Relationship", "title": "Relationship Datasets", "type": "Class"}, "self": {"href": "/mdr/sdtm/1-7/classes/Relationship", "title": "Relationship Datasets", "type": "Class"}}, "datasets": [{"_links": {"parentClass": {"href": "/mdr/sdtm/1-7/classes/Relationship", "title": "Relationship Datasets", "type": "Class"}, "parentProduct": {"href": "/mdr/sdtm/1-7", "title": "Study Data Tabulation Model Version 1.7", "type": "Foundational Model"}, "priorVersion": {"href": "/mdr/sdtm/1-6/datasets/RELREC", "title": "Related Records", "type": "SDTM Dataset"}, "self": {"href": "/mdr/sdtm/1-7/datasets/RELREC", "title": "Related Records", "type": "SDTM Dataset"}}, "datasetVariables": [{"_links": {"parentDataset": {"href": "/mdr/sdtm/1-7/datasets/RELREC", "title": "Related Records", "type": "SDTM Dataset"}, "parentProduct": {"href": "/mdr/sdtm/1-7", "title": "Study Data Tabulation Model Version 1.7", "type": "Foundational Model"}, "priorVersion": {"href": "/mdr/sdtm/1-6/datasets/RELREC/variables/STUDYID", "title": "Study Identifier", "type": "SDTM Dataset Variable"}, "rootItem": {"href": "/mdr/root/sdtm/datasets/RELREC/variables/STUDYID", "title": "Version-agnostic anchor resource for SDTM variable RELREC.STUDYID", "type": "Root Data Element"}, "self": {"href": "/mdr/sdtm/1-7/datasets/RELREC/variables/STUDYID", "title": "Study Identifier", "type": "SDTM Dataset Variable"}}, "description": "Study Identifier of the domain record(s).", "label": "Study Identifier", "name": "STUDYID", "ordinal": "1", "role": "Identifier", "roleDescription": "Identifier", "simpleDatatype": "Char"}, {"_links": {"parentDataset": {"href": "/mdr/sdtm/1-7/datasets/RELREC", "title": "Related Records", "type": "SDTM Dataset"}, "parentProduct": {"href": "/mdr/sdtm/1-7", "title": "Study Data Tabulation Model Version 1.7", "type": "Foundational Model"}, "priorVersion": {"href": "/mdr/sdtm/1-6/datasets/RELREC/variables/RDOMAIN", "title": "Related Domain Abbreviation", "type": "SDTM Dataset Variable"}, "rootItem": {"href": "/mdr/root/sdtm/datasets/RELREC/variables/RDOMAIN", "title": "Version-agnostic anchor resource for SDTM variable RELREC.RDOMAIN", "type": "Root Data Element"}, "self": {"href": "/mdr/sdtm/1-7/datasets/RELREC/variables/RDOMAIN", "title": "Related Domain Abbreviation", "type": "SDTM Dataset Variable"}}, "description": "2-character abbreviation for the domain of the parent record(s).", "label": "Related Domain Abbreviation", "name": "RDOMAIN", "ordinal": "2", "role": "Identifier", "roleDescription": "Identifier", "simpleDatatype": "Char"}, {"_links": {"parentDataset": {"href": "/mdr/sdtm/1-7/datasets/RELREC", "title": "Related Records", "type": "SDTM Dataset"}, "parentProduct": {"href": "/mdr/sdtm/1-7", "title": "Study Data Tabulation Model Version 1.7", "type": "Foundational Model"}, "priorVersion": {"href": "/mdr/sdtm/1-6/datasets/RELREC/variables/USUBJID", "title": "Unique Subject Identifier", "type": "SDTM Dataset Variable"}, "rootItem": {"href": "/mdr/root/sdtm/datasets/RELREC/variables/USUBJID", "title": "Version-agnostic anchor resource for SDTM variable RELREC.USUBJID", "type": "Root Data Element"}, "self": {"href": "/mdr/sdtm/1-7/datasets/RELREC/variables/USUBJID", "title": "Unique Subject Identifier", "type": "SDTM Dataset Variable"}}, "description": "Identifier used to uniquely identify a subject across all studies for all applications or submissions involving the product.", "label": "Unique Subject Identifier", "name": "USUBJID", "ordinal": "3", "role": "Identifier", "roleDescription": "Identifier", "simpleDatatype": "Char"}, {"_links": {"parentDataset": {"href": "/mdr/sdtm/1-7/datasets/RELREC", "title": "Related Records", "type": "SDTM Dataset"}, "parentProduct": {"href": "/mdr/sdtm/1-7", "title": "Study Data Tabulation Model Version 1.7", "type": "Foundational Model"}, "priorVersion": {"href": "/mdr/sdtm/1-6/datasets/RELREC/variables/APID", "title": "Associated Persons Identifier", "type": "SDTM Dataset Variable"}, "rootItem": {"href": "/mdr/root/sdtm/datasets/RELREC/variables/APID", "title": "Version-agnostic anchor resource for SDTM variable RELREC.APID", "type": "Root Data Element"}, "self": {"href": "/mdr/sdtm/1-7/datasets/RELREC/variables/APID", "title": "Associated Persons Identifier", "type": "SDTM Dataset Variable"}}, "description": "Identifier for a single associated person, a group of associated persons, or a pool of associated persons. If APID identifies a pool, POOLDEF records must exist for each associated person (see Section 4.1.3, Pool Definition Dataset and Section 6.2, Associated Persons Relationships).", "label": "Associated Persons Identifier", "name": "APID", "ordinal": "4", "role": "Identifier", "roleDescription": "Identifier", "simpleDatatype": "Char"}, {"_links": {"parentDataset": {"href": "/mdr/sdtm/1-7/datasets/RELREC", "title": "Related Records", "type": "SDTM Dataset"}, "parentProduct": {"href": "/mdr/sdtm/1-7", "title": "Study Data Tabulation Model Version 1.7", "type": "Foundational Model"}, "priorVersion": {"href": "/mdr/sdtm/1-6/datasets/RELREC/variables/POOLID", "title": "Pool Identifier", "type": "SDTM Dataset Variable"}, "rootItem": {"href": "/mdr/root/sdtm/datasets/RELREC/variables/POOLID", "title": "Version-agnostic anchor resource for SDTM variable RELREC.POOLID", "type": "Root Data Element"}, "self": {"href": "/mdr/sdtm/1-7/datasets/RELREC/variables/POOLID", "title": "Pool Identifier", "type": "SDTM Dataset Variable"}}, "description": "Identifier used for pooling subjects to assign a single finding to multiple subjects.", "label": "Pool Identifier", "name": "POOLID", "ordinal": "5", "role": "Identifier", "roleDescription": "Identifier", "simpleDatatype": "Char"}, {"_links": {"parentDataset": {"href": "/mdr/sdtm/1-7/datasets/RELREC", "title": "Related Records", "type": "SDTM Dataset"}, "parentProduct": {"href": "/mdr/sdtm/1-7", "title": "Study Data Tabulation Model Version 1.7", "type": "Foundational Model"}, "priorVersion": {"href": "/mdr/sdtm/1-6/datasets/RELREC/variables/IDVAR", "title": "Identifying Variable", "type": "SDTM Dataset Variable"}, "rootItem": {"href": "/mdr/root/sdtm/datasets/RELREC/variables/IDVAR", "title": "Version-agnostic anchor resource for SDTM variable RELREC.IDVAR", "type": "Root Data Element"}, "self": {"href": "/mdr/sdtm/1-7/datasets/RELREC/variables/IDVAR", "title": "Identifying Variable", "type": "SDTM Dataset Variable"}}, "description": "Name of the identifying variable in the general-observation-class dataset that identifies the related record(s). Examples: --SEQ and --GRPID.", "label": "Identifying Variable", "name": "IDVAR", "ordinal": "6", "role": "Identifier", "roleDescription": "Identifier", "simpleDatatype": "Char"}, {"_links": {"parentDataset": {"href": "/mdr/sdtm/1-7/datasets/RELREC", "title": "Related Records", "type": "SDTM Dataset"}, "parentProduct": {"href": "/mdr/sdtm/1-7", "title": "Study Data Tabulation Model Version 1.7", "type": "Foundational Model"}, "priorVersion": {"href": "/mdr/sdtm/1-6/datasets/RELREC/variables/IDVARVAL", "title": "Identifying Variable Value", "type": "SDTM Dataset Variable"}, "rootItem": {"href": "/mdr/root/sdtm/datasets/RELREC/variables/IDVARVAL", "title": "Version-agnostic anchor resource for SDTM variable RELREC.IDVARVAL", "type": "Root Data Element"}, "self": {"href": "/mdr/sdtm/1-7/datasets/RELREC/variables/IDVARVAL", "title": "Identifying Variable Value", "type": "SDTM Dataset Variable"}}, "description": "Value of identifying variable described in IDVAR. If --SEQ is the variable being used to describe this record, then the value of --SEQ is entered here.", "label": "Identifying Variable Value", "name": "IDVARVAL", "ordinal": "7", "role": "Identifier", "roleDescription": "Identifier", "simpleDatatype": "Char"}, {"_links": {"parentDataset": {"href": "/mdr/sdtm/1-7/datasets/RELREC", "title": "Related Records", "type": "SDTM Dataset"}, "parentProduct": {"href": "/mdr/sdtm/1-7", "title": "Study Data Tabulation Model Version 1.7", "type": "Foundational Model"}, "priorVersion": {"href": "/mdr/sdtm/1-6/datasets/RELREC/variables/RELTYPE", "title": "Relationship Type", "type": "SDTM Dataset Variable"}, "rootItem": {"href": "/mdr/root/sdtm/datasets/RELREC/variables/RELTYPE", "title": "Version-agnostic anchor resource for SDTM variable RELREC.RELTYPE", "type": "Root Data Element"}, "self": {"href": "/mdr/sdtm/1-7/datasets/RELREC/variables/RELTYPE", "title": "Relationship Type", "type": "SDTM Dataset Variable"}}, "description": "Identifies the hierarchical level of the records in the relationship. Values should be either ONE or MANY. However, values are only necessary when identifying a relationship between datasets.", "label": "Relationship Type", "name": "RELTYPE", "ordinal": "8", "role": "Record Qualifier", "roleDescription": "Record Qualifier", "simpleDatatype": "Char"}, {"_links": {"parentDataset": {"href": "/mdr/sdtm/1-7/datasets/RELREC", "title": "Related Records", "type": "SDTM Dataset"}, "parentProduct": {"href": "/mdr/sdtm/1-7", "title": "Study Data Tabulation Model Version 1.7", "type": "Foundational Model"}, "priorVersion": {"href": "/mdr/sdtm/1-6/datasets/RELREC/variables/RELID", "title": "Relationship Identifier", "type": "SDTM Dataset Variable"}, "rootItem": {"href": "/mdr/root/sdtm/datasets/RELREC/variables/RELID", "title": "Version-agnostic anchor resource for SDTM variable RELREC.RELID", "type": "Root Data Element"}, "self": {"href": "/mdr/sdtm/1-7/datasets/RELREC/variables/RELID", "title": "Relationship Identifier", "type": "SDTM Dataset Variable"}}, "description": "RELID value should be unique within the ID variable (e.g., USUBJID, APID, POOLID, SPDEVID) that is the subject of the relationship. All records with this ID variable that have the same RELID are considered \"related/associated.\" RELID can be any value the sponsor chooses, and is only meaningful within the RELREC dataset to identify the related/associated Domain records.", "label": "Relationship Identifier", "name": "RELID", "ordinal": "9", "role": "Record Qualifier", "roleDescription": "Record Qualifier", "simpleDatatype": "Char"}], "description": "A dataset used to describe relationships between records for a subject within or across domains, and relationships of records across datasets. (Source: CDISC Controlled Terminology, DOMAIN, C147182, 2018-06-29)", "label": "Related Records", "name": "RELREC", "ordinal": "17"}, {"_links": {"parentClass": {"href": "/mdr/sdtm/1-7/classes/Relationship", "title": "Relationship Datasets", "type": "Class"}, "parentProduct": {"href": "/mdr/sdtm/1-7", "title": "Study Data Tabulation Model Version 1.7", "type": "Foundational Model"}, "priorVersion": {"href": "/mdr/sdtm/1-6/datasets/SUPPQUAL", "title": "Supplemental Qualifiers", "type": "SDTM Dataset"}, "self": {"href": "/mdr/sdtm/1-7/datasets/SUPPQUAL", "title": "Supplemental Qualifiers", "type": "SDTM Dataset"}}, "datasetVariables": [{"_links": {"parentDataset": {"href": "/mdr/sdtm/1-7/datasets/SUPPQUAL", "title": "Supplemental Qualifiers", "type": "SDTM Dataset"}, "parentProduct": {"href": "/mdr/sdtm/1-7", "title": "Study Data Tabulation Model Version 1.7", "type": "Foundational Model"}, "priorVersion": {"href": "/mdr/sdtm/1-6/datasets/SUPPQUAL/variables/STUDYID", "title": "Study Identifier", "type": "SDTM Dataset Variable"}, "rootItem": {"href": "/mdr/root/sdtm/datasets/SUPPQUAL/variables/STUDYID", "title": "Version-agnostic anchor resource for SDTM variable SUPPQUAL.STUDYID", "type": "Root Data Element"}, "self": {"href": "/mdr/sdtm/1-7/datasets/SUPPQUAL/variables/STUDYID", "title": "Study Identifier", "type": "SDTM Dataset Variable"}}, "description": "Study Identifier of the parent record(s).", "label": "Study Identifier", "name": "STUDYID", "ordinal": "1", "role": "Identifier", "roleDescription": "Identifier", "simpleDatatype": "Char"}, {"_links": {"parentDataset": {"href": "/mdr/sdtm/1-7/datasets/SUPPQUAL", "title": "Supplemental Qualifiers", "type": "SDTM Dataset"}, "parentProduct": {"href": "/mdr/sdtm/1-7", "title": "Study Data Tabulation Model Version 1.7", "type": "Foundational Model"}, "priorVersion": {"href": "/mdr/sdtm/1-6/datasets/SUPPQUAL/variables/RDOMAIN", "title": "Related Domain Abbreviation", "type": "SDTM Dataset Variable"}, "rootItem": {"href": "/mdr/root/sdtm/datasets/SUPPQUAL/variables/RDOMAIN", "title": "Version-agnostic anchor resource for SDTM variable SUPPQUAL.RDOMAIN", "type": "Root Data Element"}, "self": {"href": "/mdr/sdtm/1-7/datasets/SUPPQUAL/variables/RDOMAIN", "title": "Related Domain Abbreviation", "type": "SDTM Dataset Variable"}}, "description": "2-character abbreviation for the domain of the parent record(s).", "label": "Related Domain Abbreviation", "name": "RDOMAIN", "ordinal": "2", "role": "Identifier", "roleDescription": "Identifier", "simpleDatatype": "Char"}, {"_links": {"parentDataset": {"href": "/mdr/sdtm/1-7/datasets/SUPPQUAL", "title": "Supplemental Qualifiers", "type": "SDTM Dataset"}, "parentProduct": {"href": "/mdr/sdtm/1-7", "title": "Study Data Tabulation Model Version 1.7", "type": "Foundational Model"}, "priorVersion": {"href": "/mdr/sdtm/1-6/datasets/SUPPQUAL/variables/USUBJID", "title": "Unique Subject Identifier", "type": "SDTM Dataset Variable"}, "rootItem": {"href": "/mdr/root/sdtm/datasets/SUPPQUAL/variables/USUBJID", "title": "Version-agnostic anchor resource for SDTM variable SUPPQUAL.USUBJID", "type": "Root Data Element"}, "self": {"href": "/mdr/sdtm/1-7/datasets/SUPPQUAL/variables/USUBJID", "title": "Unique Subject Identifier", "type": "SDTM Dataset Variable"}}, "description": "Identifier used to uniquely identify a subject across all studies for all applications or submissions involving the product.", "label": "Unique Subject Identifier", "name": "USUBJID", "ordinal": "3", "role": "Identifier", "roleDescription": "Identifier", "simpleDatatype": "Char"}, {"_links": {"parentDataset": {"href": "/mdr/sdtm/1-7/datasets/SUPPQUAL", "title": "Supplemental Qualifiers", "type": "SDTM Dataset"}, "parentProduct": {"href": "/mdr/sdtm/1-7", "title": "Study Data Tabulation Model Version 1.7", "type": "Foundational Model"}, "priorVersion": {"href": "/mdr/sdtm/1-6/datasets/SUPPQUAL/variables/APID", "title": "Associated Persons Identifier", "type": "SDTM Dataset Variable"}, "rootItem": {"href": "/mdr/root/sdtm/datasets/SUPPQUAL/variables/APID", "title": "Version-agnostic anchor resource for SDTM variable SUPPQUAL.APID", "type": "Root Data Element"}, "self": {"href": "/mdr/sdtm/1-7/datasets/SUPPQUAL/variables/APID", "title": "Associated Persons Identifier", "type": "SDTM Dataset Variable"}}, "description": "Identifier for a single associated person, a group of associated persons, or a pool of associated persons. If APID identifies a pool, POOLDEF records must exist for each associated person (see Section 4.1.3, Pool Definition Dataset and Section 6.2, Associated Persons Relationships).", "label": "Associated Persons Identifier", "name": "APID", "ordinal": "4", "role": "Identifier", "roleDescription": "Identifier", "simpleDatatype": "Char"}, {"_links": {"parentDataset": {"href": "/mdr/sdtm/1-7/datasets/SUPPQUAL", "title": "Supplemental Qualifiers", "type": "SDTM Dataset"}, "parentProduct": {"href": "/mdr/sdtm/1-7", "title": "Study Data Tabulation Model Version 1.7", "type": "Foundational Model"}, "priorVersion": {"href": "/mdr/sdtm/1-6/datasets/SUPPQUAL/variables/POOLID", "title": "Pool Identifier", "type": "SDTM Dataset Variable"}, "rootItem": {"href": "/mdr/root/sdtm/datasets/SUPPQUAL/variables/POOLID", "title": "Version-agnostic anchor resource for SDTM variable SUPPQUAL.POOLID", "type": "Root Data Element"}, "self": {"href": "/mdr/sdtm/1-7/datasets/SUPPQUAL/variables/POOLID", "title": "Pool Identifier", "type": "SDTM Dataset Variable"}}, "description": "Identifier used for pooling subjects to assign a single finding to multiple subjects.", "label": "Pool Identifier", "name": "POOLID", "ordinal": "5", "role": "Identifier", "roleDescription": "Identifier", "simpleDatatype": "Char"}, {"_links": {"parentDataset": {"href": "/mdr/sdtm/1-7/datasets/SUPPQUAL", "title": "Supplemental Qualifiers", "type": "SDTM Dataset"}, "parentProduct": {"href": "/mdr/sdtm/1-7", "title": "Study Data Tabulation Model Version 1.7", "type": "Foundational Model"}, "priorVersion": {"href": "/mdr/sdtm/1-6/datasets/SUPPQUAL/variables/IDVAR", "title": "Identifying Variable", "type": "SDTM Dataset Variable"}, "rootItem": {"href": "/mdr/root/sdtm/datasets/SUPPQUAL/variables/IDVAR", "title": "Version-agnostic anchor resource for SDTM variable SUPPQUAL.IDVAR", "type": "Root Data Element"}, "self": {"href": "/mdr/sdtm/1-7/datasets/SUPPQUAL/variables/IDVAR", "title": "Identifying Variable", "type": "SDTM Dataset Variable"}}, "description": "Identifying variable in the parent dataset that identifies the related record(s). Examples: --SEQ, --GRPID.", "label": "Identifying Variable", "name": "IDVAR", "ordinal": "6", "role": "Identifier", "roleDescription": "Identifier", "simpleDatatype": "Char"}, {"_links": {"parentDataset": {"href": "/mdr/sdtm/1-7/datasets/SUPPQUAL", "title": "Supplemental Qualifiers", "type": "SDTM Dataset"}, "parentProduct": {"href": "/mdr/sdtm/1-7", "title": "Study Data Tabulation Model Version 1.7", "type": "Foundational Model"}, "priorVersion": {"href": "/mdr/sdtm/1-6/datasets/SUPPQUAL/variables/IDVARVAL", "title": "Identifying Variable Value", "type": "SDTM Dataset Variable"}, "rootItem": {"href": "/mdr/root/sdtm/datasets/SUPPQUAL/variables/IDVARVAL", "title": "Version-agnostic anchor resource for SDTM variable SUPPQUAL.IDVARVAL", "type": "Root Data Element"}, "self": {"href": "/mdr/sdtm/1-7/datasets/SUPPQUAL/variables/IDVARVAL", "title": "Identifying Variable Value", "type": "SDTM Dataset Variable"}}, "description": "Value of identifying variable of the parent record(s).", "label": "Identifying Variable Value", "name": "IDVARVAL", "ordinal": "7", "role": "Identifier", "roleDescription": "Identifier", "simpleDatatype": "Char"}, {"_links": {"parentDataset": {"href": "/mdr/sdtm/1-7/datasets/SUPPQUAL", "title": "Supplemental Qualifiers", "type": "SDTM Dataset"}, "parentProduct": {"href": "/mdr/sdtm/1-7", "title": "Study Data Tabulation Model Version 1.7", "type": "Foundational Model"}, "priorVersion": {"href": "/mdr/sdtm/1-6/datasets/SUPPQUAL/variables/QNAM", "title": "Qualifier Variable Name", "type": "SDTM Dataset Variable"}, "rootItem": {"href": "/mdr/root/sdtm/datasets/SUPPQUAL/variables/QNAM", "title": "Version-agnostic anchor resource for SDTM variable SUPPQUAL.QNAM", "type": "Root Data Element"}, "self": {"href": "/mdr/sdtm/1-7/datasets/SUPPQUAL/variables/QNAM", "title": "Qualifier Variable Name", "type": "SDTM Dataset Variable"}}, "description": "The short name of the Qualifier variable, which is used as a column name in a domain view with data from the parent domain. The value in QNAM cannot be longer than 8 characters, nor can it start with a number (e.g., \"1TEST\"). QNAM cannot contain characters other than letters, numbers, or underscores. This will often be the column name in the sponsor's operational dataset. QNAM should not be the name of any standard ADaM variable.", "label": "Qualifier Variable Name", "name": "QNAM", "ordinal": "8", "role": "Topic", "roleDescription": "Topic", "simpleDatatype": "Char"}, {"_links": {"parentDataset": {"href": "/mdr/sdtm/1-7/datasets/SUPPQUAL", "title": "Supplemental Qualifiers", "type": "SDTM Dataset"}, "parentProduct": {"href": "/mdr/sdtm/1-7", "title": "Study Data Tabulation Model Version 1.7", "type": "Foundational Model"}, "priorVersion": {"href": "/mdr/sdtm/1-6/datasets/SUPPQUAL/variables/QLABEL", "title": "Qualifier Variable Label", "type": "SDTM Dataset Variable"}, "rootItem": {"href": "/mdr/root/sdtm/datasets/SUPPQUAL/variables/QLABEL", "title": "Version-agnostic anchor resource for SDTM variable SUPPQUAL.QLABEL", "type": "Root Data Element"}, "self": {"href": "/mdr/sdtm/1-7/datasets/SUPPQUAL/variables/QLABEL", "title": "Qualifier Variable Label", "type": "SDTM Dataset Variable"}}, "description": "This is the long name or label associated with QNAM. The value in QLABEL cannot be longer than 40 characters. This will often be the column label in the sponsor's original dataset.", "label": "Qualifier Variable Label", "name": "QLABEL", "ordinal": "9", "role": "Synonym Qualifier", "roleDescription": "Synonym Qualifier of QNAM", "simpleDatatype": "Char"}, {"_links": {"parentDataset": {"href": "/mdr/sdtm/1-7/datasets/SUPPQUAL", "title": "Supplemental Qualifiers", "type": "SDTM Dataset"}, "parentProduct": {"href": "/mdr/sdtm/1-7", "title": "Study Data Tabulation Model Version 1.7", "type": "Foundational Model"}, "priorVersion": {"href": "/mdr/sdtm/1-6/datasets/SUPPQUAL/variables/QVAL", "title": "Data Value", "type": "SDTM Dataset Variable"}, "rootItem": {"href": "/mdr/root/sdtm/datasets/SUPPQUAL/variables/QVAL", "title": "Version-agnostic anchor resource for SDTM variable SUPPQUAL.QVAL", "type": "Root Data Element"}, "self": {"href": "/mdr/sdtm/1-7/datasets/SUPPQUAL/variables/QVAL", "title": "Data Value", "type": "SDTM Dataset Variable"}}, "description": "Result of, response to, or value associated with QNAM. A value for this column is required; no records can be in a SUPP-- dataset with a null value for QVAL.", "label": "Data Value", "name": "QVAL", "ordinal": "10", "role": "Result Qualifier", "roleDescription": "Result Qualifier", "simpleDatatype": "Char"}, {"_links": {"parentDataset": {"href": "/mdr/sdtm/1-7/datasets/SUPPQUAL", "title": "Supplemental Qualifiers", "type": "SDTM Dataset"}, "parentProduct": {"href": "/mdr/sdtm/1-7", "title": "Study Data Tabulation Model Version 1.7", "type": "Foundational Model"}, "priorVersion": {"href": "/mdr/sdtm/1-6/datasets/SUPPQUAL/variables/QORIG", "title": "Origin", "type": "SDTM Dataset Variable"}, "rootItem": {"href": "/mdr/root/sdtm/datasets/SUPPQUAL/variables/QORIG", "title": "Version-agnostic anchor resource for SDTM variable SUPPQUAL.QORIG", "type": "Root Data Element"}, "self": {"href": "/mdr/sdtm/1-7/datasets/SUPPQUAL/variables/QORIG", "title": "Origin", "type": "SDTM Dataset Variable"}}, "description": "Because QVAL can represent a mixture of collected (on a CRF), derived, or assigned items, QORIG is used to indicate the origin of this data. Examples: CRF, ASSIGNED, DERIVED.", "label": "Origin", "name": "QORIG", "ordinal": "11", "role": "Record Qualifier", "roleDescription": "Record Qualifier", "simpleDatatype": "Char"}, {"_links": {"parentDataset": {"href": "/mdr/sdtm/1-7/datasets/SUPPQUAL", "title": "Supplemental Qualifiers", "type": "SDTM Dataset"}, "parentProduct": {"href": "/mdr/sdtm/1-7", "title": "Study Data Tabulation Model Version 1.7", "type": "Foundational Model"}, "priorVersion": {"href": "/mdr/sdtm/1-6/datasets/SUPPQUAL/variables/QEVAL", "title": "Evaluator", "type": "SDTM Dataset Variable"}, "rootItem": {"href": "/mdr/root/sdtm/datasets/SUPPQUAL/variables/QEVAL", "title": "Version-agnostic anchor resource for SDTM variable SUPPQUAL.QEVAL", "type": "Root Data Element"}, "self": {"href": "/mdr/sdtm/1-7/datasets/SUPPQUAL/variables/QEVAL", "title": "Evaluator", "type": "SDTM Dataset Variable"}}, "description": "Used only for results that are subjective (e.g., assigned by a person or a group). Should be null for records that contain objectively collected or derived data. Examples: \"ADJUDICATION COMMITTEE\", \"STATISTICIAN\", \"DATABASE ADMINISTRATOR\", \"CLINICAL COORDINATOR\".", "label": "Evaluator", "name": "QEVAL", "ordinal": "12", "role": "Record Qualifier", "roleDescription": "Record Qualifier", "simpleDatatype": "Char"}], "label": "Supplemental Qualifiers", "name": "SUPPQUAL", "ordinal": "18"}, {"_links": {"parentClass": {"href": "/mdr/sdtm/1-7/classes/Relationship", "title": "Relationship Datasets", "type": "Class"}, "parentProduct": {"href": "/mdr/sdtm/1-7", "title": "Study Data Tabulation Model Version 1.7", "type": "Foundational Model"}, "priorVersion": {"href": "/mdr/sdtm/1-6/datasets/POOLDEF", "title": "Pooled Definition", "type": "SDTM Dataset"}, "self": {"href": "/mdr/sdtm/1-7/datasets/POOLDEF", "title": "Pooled Definition", "type": "SDTM Dataset"}}, "datasetVariables": [{"_links": {"parentDataset": {"href": "/mdr/sdtm/1-7/datasets/POOLDEF", "title": "Pooled Definition", "type": "SDTM Dataset"}, "parentProduct": {"href": "/mdr/sdtm/1-7", "title": "Study Data Tabulation Model Version 1.7", "type": "Foundational Model"}, "priorVersion": {"href": "/mdr/sdtm/1-6/datasets/POOLDEF/variables/STUDYID", "title": "Study Identifier", "type": "SDTM Dataset Variable"}, "rootItem": {"href": "/mdr/root/sdtm/datasets/POOLDEF/variables/STUDYID", "title": "Version-agnostic anchor resource for SDTM variable POOLDEF.STUDYID", "type": "Root Data Element"}, "self": {"href": "/mdr/sdtm/1-7/datasets/POOLDEF/variables/STUDYID", "title": "Study Identifier", "type": "SDTM Dataset Variable"}}, "description": "Study Identifier of the parent record(s).", "label": "Study Identifier", "name": "STUDYID", "ordinal": "1", "role": "Identifier", "roleDescription": "Identifier", "simpleDatatype": "Char"}, {"_links": {"parentDataset": {"href": "/mdr/sdtm/1-7/datasets/POOLDEF", "title": "Pooled Definition", "type": "SDTM Dataset"}, "parentProduct": {"href": "/mdr/sdtm/1-7", "title": "Study Data Tabulation Model Version 1.7", "type": "Foundational Model"}, "priorVersion": {"href": "/mdr/sdtm/1-6/datasets/POOLDEF/variables/POOLID", "title": "Pool Identifier", "type": "SDTM Dataset Variable"}, "rootItem": {"href": "/mdr/root/sdtm/datasets/POOLDEF/variables/POOLID", "title": "Version-agnostic anchor resource for SDTM variable POOLDEF.POOLID", "type": "Root Data Element"}, "self": {"href": "/mdr/sdtm/1-7/datasets/POOLDEF/variables/POOLID", "title": "Pool Identifier", "type": "SDTM Dataset Variable"}}, "description": "An identifier used to identify a result from a group of subjects that is not assignable to a specific subject.", "label": "Pool Identifier", "name": "POOLID", "ordinal": "2", "role": "Identifier", "roleDescription": "Identifier", "simpleDatatype": "Char"}, {"_links": {"parentDataset": {"href": "/mdr/sdtm/1-7/datasets/POOLDEF", "title": "Pooled Definition", "type": "SDTM Dataset"}, "parentProduct": {"href": "/mdr/sdtm/1-7", "title": "Study Data Tabulation Model Version 1.7", "type": "Foundational Model"}, "priorVersion": {"href": "/mdr/sdtm/1-6/datasets/POOLDEF/variables/USUBJID", "title": "Unique Subject Identifier", "type": "SDTM Dataset Variable"}, "rootItem": {"href": "/mdr/root/sdtm/datasets/POOLDEF/variables/USUBJID", "title": "Version-agnostic anchor resource for SDTM variable POOLDEF.USUBJID", "type": "Root Data Element"}, "self": {"href": "/mdr/sdtm/1-7/datasets/POOLDEF/variables/USUBJID", "title": "Unique Subject Identifier", "type": "SDTM Dataset Variable"}}, "description": "Identifier used to uniquely identify a subject across all studies for all applications or submissions involving the product.", "label": "Unique Subject Identifier", "name": "USUBJID", "ordinal": "3", "role": "Identifier", "roleDescription": "Identifier", "simpleDatatype": "Char"}, {"_links": {"parentDataset": {"href": "/mdr/sdtm/1-7/datasets/POOLDEF", "title": "Pooled Definition", "type": "SDTM Dataset"}, "parentProduct": {"href": "/mdr/sdtm/1-7", "title": "Study Data Tabulation Model Version 1.7", "type": "Foundational Model"}, "priorVersion": {"href": "/mdr/sdtm/1-6/datasets/POOLDEF/variables/APID", "title": "Associated Persons Identifier", "type": "SDTM Dataset Variable"}, "rootItem": {"href": "/mdr/root/sdtm/datasets/POOLDEF/variables/APID", "title": "Version-agnostic anchor resource for SDTM variable POOLDEF.APID", "type": "Root Data Element"}, "self": {"href": "/mdr/sdtm/1-7/datasets/POOLDEF/variables/APID", "title": "Associated Persons Identifier", "type": "SDTM Dataset Variable"}}, "description": "Identifier for a single associated person, a group of associated persons, or a pool of associated persons.", "label": "Associated Persons Identifier", "name": "APID", "ordinal": "4", "role": "Identifier", "roleDescription": "Identifier", "simpleDatatype": "Char"}], "description": "A dataset that identifies individual subjects included in a pool of subjects for which a single observation record (pool level) is captured. (Source: CDISC Controlled Terminology, DOMAIN, C147181, 2018-06-29)", "label": "Pooled Definition", "name": "POOLDEF", "ordinal": "19"}, {"_links": {"parentClass": {"href": "/mdr/sdtm/1-7/classes/Relationship", "title": "Relationship Datasets", "type": "Class"}, "parentProduct": {"href": "/mdr/sdtm/1-7", "title": "Study Data Tabulation Model Version 1.7", "type": "Foundational Model"}, "priorVersion": {"href": "/mdr/sdtm/1-6/datasets/RELSUB", "title": "Related Subjects", "type": "SDTM Dataset"}, "self": {"href": "/mdr/sdtm/1-7/datasets/RELSUB", "title": "Related Subjects", "type": "SDTM Dataset"}}, "datasetVariables": [{"_links": {"parentDataset": {"href": "/mdr/sdtm/1-7/datasets/RELSUB", "title": "Related Subjects", "type": "SDTM Dataset"}, "parentProduct": {"href": "/mdr/sdtm/1-7", "title": "Study Data Tabulation Model Version 1.7", "type": "Foundational Model"}, "priorVersion": {"href": "/mdr/sdtm/1-6/datasets/RELSUB/variables/STUDYID", "title": "Study Identifier", "type": "SDTM Dataset Variable"}, "rootItem": {"href": "/mdr/root/sdtm/datasets/RELSUB/variables/STUDYID", "title": "Version-agnostic anchor resource for SDTM variable RELSUB.STUDYID", "type": "Root Data Element"}, "self": {"href": "/mdr/sdtm/1-7/datasets/RELSUB/variables/STUDYID", "title": "Study Identifier", "type": "SDTM Dataset Variable"}}, "description": "Unique identifier for a study.", "label": "Study Identifier", "name": "STUDYID", "ordinal": "1", "role": "Identifier", "roleDescription": "Identifier", "simpleDatatype": "Char"}, {"_links": {"parentDataset": {"href": "/mdr/sdtm/1-7/datasets/RELSUB", "title": "Related Subjects", "type": "SDTM Dataset"}, "parentProduct": {"href": "/mdr/sdtm/1-7", "title": "Study Data Tabulation Model Version 1.7", "type": "Foundational Model"}, "priorVersion": {"href": "/mdr/sdtm/1-6/datasets/RELSUB/variables/USUBJID", "title": "Unique Subject Identifier", "type": "SDTM Dataset Variable"}, "rootItem": {"href": "/mdr/root/sdtm/datasets/RELSUB/variables/USUBJID", "title": "Version-agnostic anchor resource for SDTM variable RELSUB.USUBJID", "type": "Root Data Element"}, "self": {"href": "/mdr/sdtm/1-7/datasets/RELSUB/variables/USUBJID", "title": "Unique Subject Identifier", "type": "SDTM Dataset Variable"}}, "description": "Identifier used to uniquely identify a subject across all studies for all applications or submissions involving the product. Either USUBJID or POOLID must be populated.", "label": "Unique Subject Identifier", "name": "USUBJID", "ordinal": "2", "role": "Identifier", "roleDescription": "Identifier", "simpleDatatype": "Char"}, {"_links": {"parentDataset": {"href": "/mdr/sdtm/1-7/datasets/RELSUB", "title": "Related Subjects", "type": "SDTM Dataset"}, "parentProduct": {"href": "/mdr/sdtm/1-7", "title": "Study Data Tabulation Model Version 1.7", "type": "Foundational Model"}, "priorVersion": {"href": "/mdr/sdtm/1-6/datasets/RELSUB/variables/POOLID", "title": "Pool Identifier", "type": "SDTM Dataset Variable"}, "rootItem": {"href": "/mdr/root/sdtm/datasets/RELSUB/variables/POOLID", "title": "Version-agnostic anchor resource for SDTM variable RELSUB.POOLID", "type": "Root Data Element"}, "self": {"href": "/mdr/sdtm/1-7/datasets/RELSUB/variables/POOLID", "title": "Pool Identifier", "type": "SDTM Dataset Variable"}}, "description": "Identifier used to identify a pool of subjects. If POOLID is entered, POOLDEF records must exist for each subject in the pool and USUBJID must be null. Either USUBJID or POOLID must be populated.", "label": "Pool Identifier", "name": "POOLID", "ordinal": "3", "role": "Identifier", "roleDescription": "Identifier", "simpleDatatype": "Char"}, {"_links": {"parentDataset": {"href": "/mdr/sdtm/1-7/datasets/RELSUB", "title": "Related Subjects", "type": "SDTM Dataset"}, "parentProduct": {"href": "/mdr/sdtm/1-7", "title": "Study Data Tabulation Model Version 1.7", "type": "Foundational Model"}, "priorVersion": {"href": "/mdr/sdtm/1-6/datasets/RELSUB/variables/RSUBJID", "title": "Related Subject or Pool Identifier", "type": "SDTM Dataset Variable"}, "rootItem": {"href": "/mdr/root/sdtm/datasets/RELSUB/variables/RSUBJID", "title": "Version-agnostic anchor resource for SDTM variable RELSUB.RSUBJID", "type": "Root Data Element"}, "self": {"href": "/mdr/sdtm/1-7/datasets/RELSUB/variables/RSUBJID", "title": "Related Subject or Pool Identifier", "type": "SDTM Dataset Variable"}}, "description": "Identifier used to identify a related subject or pool of subjects. RSUBJID will be populated with either the USUBJID of the related subject or the POOLID of the related pool.", "label": "Related Subject or Pool Identifier", "name": "RSUBJID", "ordinal": "4", "role": "Identifier", "roleDescription": "Identifier", "simpleDatatype": "Char"}, {"_links": {"parentDataset": {"href": "/mdr/sdtm/1-7/datasets/RELSUB", "title": "Related Subjects", "type": "SDTM Dataset"}, "parentProduct": {"href": "/mdr/sdtm/1-7", "title": "Study Data Tabulation Model Version 1.7", "type": "Foundational Model"}, "priorVersion": {"href": "/mdr/sdtm/1-6/datasets/RELSUB/variables/SREL", "title": "Subject Relationship", "type": "SDTM Dataset Variable"}, "rootItem": {"href": "/mdr/root/sdtm/datasets/RELSUB/variables/SREL", "title": "Version-agnostic anchor resource for SDTM variable RELSUB.SREL", "type": "Root Data Element"}, "self": {"href": "/mdr/sdtm/1-7/datasets/RELSUB/variables/SREL", "title": "Subject Relationship", "type": "SDTM Dataset Variable"}}, "description": "Describes the relationship of the subject identified in USUBJID or the pool identified in POOLID to the subject or pool identified in RSUBJID.", "label": "Subject Relationship", "name": "SREL", "ordinal": "5", "role": "Record Qualifier", "roleDescription": "Record Qualifier", "simpleDatatype": "Char"}], "description": "A dataset used to represent relationships between study subjects. (Source: CDISC Controlled Terminology, DOMAIN, C147183, 2018-06-29)", "label": "Related Subjects", "name": "RELSUB", "ordinal": "20"}, {"_links": {"parentClass": {"href": "/mdr/sdtm/1-7/classes/Relationship", "title": "Relationship Datasets", "type": "Class"}, "parentProduct": {"href": "/mdr/sdtm/1-7", "title": "Study Data Tabulation Model Version 1.7", "type": "Foundational Model"}, "self": {"href": "/mdr/sdtm/1-7/datasets/DR", "title": "Device-Subject Relationships", "type": "SDTM Dataset"}}, "datasetVariables": [{"_links": {"parentDataset": {"href": "/mdr/sdtm/1-7/datasets/DR", "title": "Device-Subject Relationships", "type": "SDTM Dataset"}, "parentProduct": {"href": "/mdr/sdtm/1-7", "title": "Study Data Tabulation Model Version 1.7", "type": "Foundational Model"}, "rootItem": {"href": "/mdr/root/sdtm/datasets/DR/variables/STUDYID", "title": "Version-agnostic anchor resource for SDTM variable DR.STUDYID", "type": "Root Data Element"}, "self": {"href": "/mdr/sdtm/1-7/datasets/DR/variables/STUDYID", "title": "Study Identifier", "type": "SDTM Dataset Variable"}}, "description": "Study Identifier of the domain record(s).", "label": "Study Identifier", "name": "STUDYID", "ordinal": "1", "role": "Identifier", "roleDescription": "Identifier", "simpleDatatype": "Char"}, {"_links": {"parentDataset": {"href": "/mdr/sdtm/1-7/datasets/DR", "title": "Device-Subject Relationships", "type": "SDTM Dataset"}, "parentProduct": {"href": "/mdr/sdtm/1-7", "title": "Study Data Tabulation Model Version 1.7", "type": "Foundational Model"}, "rootItem": {"href": "/mdr/root/sdtm/datasets/DR/variables/DOMAIN", "title": "Version-agnostic anchor resource for SDTM variable DR.DOMAIN", "type": "Root Data Element"}, "self": {"href": "/mdr/sdtm/1-7/datasets/DR/variables/DOMAIN", "title": "Domain Abbreviation", "type": "SDTM Dataset Variable"}}, "description": "2-character abbreviation for the domain, which must be \"DR\".", "label": "Domain Abbreviation", "name": "DOMAIN", "ordinal": "2", "role": "Identifier", "roleDescription": "Identifier", "simpleDatatype": "Char"}, {"_links": {"parentDataset": {"href": "/mdr/sdtm/1-7/datasets/DR", "title": "Device-Subject Relationships", "type": "SDTM Dataset"}, "parentProduct": {"href": "/mdr/sdtm/1-7", "title": "Study Data Tabulation Model Version 1.7", "type": "Foundational Model"}, "rootItem": {"href": "/mdr/root/sdtm/datasets/DR/variables/USUBJID", "title": "Version-agnostic anchor resource for SDTM variable DR.USUBJID", "type": "Root Data Element"}, "self": {"href": "/mdr/sdtm/1-7/datasets/DR/variables/USUBJID", "title": "Unique Subject Identifier", "type": "SDTM Dataset Variable"}}, "description": "Identifier used to uniquely identify a subject across all studies for all applications or submissions involving the product.", "label": "Unique Subject Identifier", "name": "USUBJID", "ordinal": "3", "role": "Identifier", "roleDescription": "Identifier", "simpleDatatype": "Char"}, {"_links": {"parentDataset": {"href": "/mdr/sdtm/1-7/datasets/DR", "title": "Device-Subject Relationships", "type": "SDTM Dataset"}, "parentProduct": {"href": "/mdr/sdtm/1-7", "title": "Study Data Tabulation Model Version 1.7", "type": "Foundational Model"}, "rootItem": {"href": "/mdr/root/sdtm/datasets/DR/variables/SPDEVID", "title": "Version-agnostic anchor resource for SDTM variable DR.SPDEVID", "type": "Root Data Element"}, "self": {"href": "/mdr/sdtm/1-7/datasets/DR/variables/SPDEVID", "title": "Sponsor Device Identifier", "type": "SDTM Dataset Variable"}}, "description": "Sponsor-defined identifier for the device. It must be unique for each tracked unit of the device under study, and can be at whatever level of granularity the device should be identified (e.g., model or serial number, combination of identifiers) as defined in DI.", "label": "Sponsor Device Identifier", "name": "SPDEVID", "ordinal": "4", "role": "Identifier", "roleDescription": "Identifier", "simpleDatatype": "Char"}], "description": "A special-purpose domain that contains the linkage of each subject to the device(s) to which they may have been exposed during the study. (Source: CDISC Controlled Terminology, DOMAIN, C102620, 2018-06-29)", "label": "Device-Subject Relationships", "name": "DR", "ordinal": "21"}], "description": "This SDTM class provides a means to link related records between datasets. It includes the RELREC and SUPPQUAL datasets. (Source: CDISC Controlled Terminology, GNRLOBSC, C103376, 2018-06-29)", "label": "Relationship Datasets", "name": "Relationship", "ordinal": "8"}
