{"_links": {"parentClass": {"href": "/mdr/cdashig/2-1/classes/Events", "title": "Events", "type": "Class"}, "parentProduct": {"href": "/mdr/cdashig/2-1", "title": "Clinical Data Acquisition Standards Harmonization Implementation Guide for Human Clinical Trials Version 2.1", "type": "Implementation Guide"}, "priorVersion": {"href": "/mdr/cdashig/2-0/domains/CE", "title": "Clinical Events", "type": "CDASH Domain"}, "self": {"href": "/mdr/cdashig/2-1/domains/CE", "title": "Clinical Events", "type": "CDASH Domain"}}, "fields": [{"_links": {"implements": {"href": "/mdr/cdash/1-1/classes/Identifiers/fields/STUDYID", "title": "Study Identifier", "type": "Class Variable"}, "parentDomain": {"href": "/mdr/cdashig/2-1/domains/CE", "title": "Clinical Events", "type": "CDASH Domain"}, "parentProduct": {"href": "/mdr/cdashig/2-1", "title": "Clinical Data Acquisition Standards Harmonization Implementation Guide for Human Clinical Trials Version 2.1", "type": "Implementation Guide"}, "priorVersion": {"href": "/mdr/cdashig/2-0/domains/CE/fields/STUDYID", "title": "Study Identifier", "type": "Data Collection Field"}, "rootItem": {"href": "/mdr/root/cdashig/domains/CE/fields/STUDYID", "title": "Version-agnostic anchor element for field CE.STUDYID", "type": "Root Data Element"}, "sdtmigDatasetMappingTargets": [{"href": "/mdr/sdtmig/3-2/datasets/CE/variables/STUDYID", "title": "Study Identifier", "type": "SDTM Dataset Variable"}], "self": {"href": "/mdr/cdashig/2-1/domains/CE/fields/STUDYID", "title": "Study Identifier", "type": "Data Collection Field"}}, "core": "HR", "definition": "A unique identifier for a study.", "implementationNotes": "Although this field is not typically captured on a CRF, it should be displayed clearly on the CRF and/or the EDC system. This field can be included into the database or populated during SDTM-based dataset creation before submission.", "label": "Study Identifier", "mappingInstructions": "Maps directly to the SDTMIG variable listed in the column with the heading SDTMIG Target.", "name": "STUDYID", "ordinal": "1", "prompt": "[Protocol/Study]", "questionText": "What is the study identifier?", "simpleDatatype": "Char"}, {"_links": {"implements": {"href": "/mdr/cdash/1-1/classes/Identifiers/fields/SITEID", "title": "Study Site Identifier", "type": "Class Variable"}, "parentDomain": {"href": "/mdr/cdashig/2-1/domains/CE", "title": "Clinical Events", "type": "CDASH Domain"}, "parentProduct": {"href": "/mdr/cdashig/2-1", "title": "Clinical Data Acquisition Standards Harmonization Implementation Guide for Human Clinical Trials Version 2.1", "type": "Implementation Guide"}, "priorVersion": {"href": "/mdr/cdashig/2-0/domains/CE/fields/SITEID", "title": "Study Site Identifier", "type": "Data Collection Field"}, "rootItem": {"href": "/mdr/root/cdashig/domains/CE/fields/SITEID", "title": "Version-agnostic anchor element for field CE.SITEID", "type": "Root Data Element"}, "sdtmigDatasetMappingTargets": [{"href": "/mdr/sdtmig/3-2/datasets/DM/variables/SITEID", "title": "Study Site Identifier", "type": "SDTM Dataset Variable"}], "self": {"href": "/mdr/cdashig/2-1/domains/CE/fields/SITEID", "title": "Study Site Identifier", "type": "Data Collection Field"}}, "core": "HR", "definition": "A unique identifier for a site within a study.", "implementationNotes": "Paper: This is typically preprinted in the header of each CRF page for single site studies. For studies with multiple sites, this field may be left blank so that the number can be recorded by the site, or it may be preprinted on the CRFs that are shipped to each site. EDC: This should be prepopulated.", "label": "Study Site Identifier", "mappingInstructions": "Maps directly to the SDTMIG variable listed in the column with the heading SDTMIG Target.", "name": "SITEID", "ordinal": "2", "prompt": "Site (Identifier)", "questionText": "What is the site identifier?", "simpleDatatype": "Char"}, {"_links": {"implements": {"href": "/mdr/cdash/1-1/classes/Identifiers/fields/SUBJID", "title": "Subject Identifier for the Study", "type": "Class Variable"}, "parentDomain": {"href": "/mdr/cdashig/2-1/domains/CE", "title": "Clinical Events", "type": "CDASH Domain"}, "parentProduct": {"href": "/mdr/cdashig/2-1", "title": "Clinical Data Acquisition Standards Harmonization Implementation Guide for Human Clinical Trials Version 2.1", "type": "Implementation Guide"}, "priorVersion": {"href": "/mdr/cdashig/2-0/domains/CE/fields/SUBJID", "title": "Subject Identifier for the Study", "type": "Data Collection Field"}, "rootItem": {"href": "/mdr/root/cdashig/domains/CE/fields/SUBJID", "title": "Version-agnostic anchor element for field CE.SUBJID", "type": "Root Data Element"}, "sdtmigDatasetMappingTargets": [{"href": "/mdr/sdtmig/3-2/datasets/DM/variables/SUBJID", "title": "Subject Identifier for the Study", "type": "SDTM Dataset Variable"}], "self": {"href": "/mdr/cdashig/2-1/domains/CE/fields/SUBJID", "title": "Subject Identifier for the Study", "type": "Data Collection Field"}}, "completionInstructions": "Record the identifier for the subject.", "core": "HR", "definition": "A unique subject identifier within a site and a study.", "implementationNotes": "Paper: This is typically recorded in the header of each CRF page. EDC: The subject identifiers may be system generated. This CDASH variable is typically collected in all CDASH domains. However, this CDASH variable is populated only in the SDTMIG DM domain. For more information, refer to the SDTM Implementation Guide.", "label": "Subject Identifier for the Study", "mappingInstructions": "Maps directly to the SDTMIG variable listed in the column with the heading SDTMIG Target.", "name": "SUBJID", "ordinal": "3", "prompt": "[Subject/Participant] (Identifier)", "questionText": "What [is/was] the (study) [subject/participant] identifier?", "simpleDatatype": "Char"}, {"_links": {"implements": {"href": "/mdr/cdash/1-1/classes/Events/fields/--CAT", "title": "Category", "type": "Class Variable"}, "parentDomain": {"href": "/mdr/cdashig/2-1/domains/CE", "title": "Clinical Events", "type": "CDASH Domain"}, "parentProduct": {"href": "/mdr/cdashig/2-1", "title": "Clinical Data Acquisition Standards Harmonization Implementation Guide for Human Clinical Trials Version 2.1", "type": "Implementation Guide"}, "priorVersion": {"href": "/mdr/cdashig/2-0/domains/CE/fields/CECAT", "title": "Category for Clinical Events", "type": "Data Collection Field"}, "rootItem": {"href": "/mdr/root/cdashig/domains/CE/fields/CECAT", "title": "Version-agnostic anchor element for field CE.CECAT", "type": "Root Data Element"}, "sdtmigDatasetMappingTargets": [{"href": "/mdr/sdtmig/3-2/datasets/CE/variables/CECAT", "title": "Category for Clinical Event", "type": "SDTM Dataset Variable"}], "self": {"href": "/mdr/cdashig/2-1/domains/CE/fields/CECAT", "title": "Category for Clinical Event", "type": "Data Collection Field"}}, "completionInstructions": "Record the clinical event category, if not preprinted on the CRF.", "core": "O", "definition": "A grouping of topic-variable values based on user-defined characteristics.", "implementationNotes": "Sponsor-defined controlled terminology. This would most commonly be either a heading, or a preprinted category value on the CRF and not a question to which the site would provide an answer. If a question is asked, the response would typically be a sponsor-defined codelist. If the form is laid out as a grid, then words such as \"Category\" can be included as the column header.", "label": "Category for Clinical Event", "mappingInstructions": "Maps directly to the SDTMIG variable listed in the column with the heading SDTMIG Target.", "name": "CECAT", "ordinal": "4", "prompt": "[Clinical Event Category]; NULL", "questionText": "What is the category of the clinical event?", "simpleDatatype": "Char"}, {"_links": {"implements": {"href": "/mdr/cdash/1-1/classes/Events/fields/--SCAT", "title": "Subcategory", "type": "Class Variable"}, "parentDomain": {"href": "/mdr/cdashig/2-1/domains/CE", "title": "Clinical Events", "type": "CDASH Domain"}, "parentProduct": {"href": "/mdr/cdashig/2-1", "title": "Clinical Data Acquisition Standards Harmonization Implementation Guide for Human Clinical Trials Version 2.1", "type": "Implementation Guide"}, "priorVersion": {"href": "/mdr/cdashig/2-0/domains/CE/fields/CESCAT", "title": "Subcategory for Clinical Event", "type": "Data Collection Field"}, "rootItem": {"href": "/mdr/root/cdashig/domains/CE/fields/CESCAT", "title": "Version-agnostic anchor element for field CE.CESCAT", "type": "Root Data Element"}, "sdtmigDatasetMappingTargets": [{"href": "/mdr/sdtmig/3-2/datasets/CE/variables/CESCAT", "title": "Subcategory for Clinical Event", "type": "SDTM Dataset Variable"}], "self": {"href": "/mdr/cdashig/2-1/domains/CE/fields/CESCAT", "title": "Subcategory for Clinical Event", "type": "Data Collection Field"}}, "completionInstructions": "Record the clinical event subcategory, if not preprinted on the CRF.", "core": "O", "definition": "A sub-division of the CECAT values based on user-defined characteristics.", "implementationNotes": "Sponsor-defined controlled terminology. This would most commonly be preprinted on the CRF or screen and prepopulated in the data management system. This is not typically a question to which the site would provide an answer. CESCAT can only be used if there is an CECAT and it must be a subcategorization of CECAT.", "label": "Subcategory for Clinical Event", "mappingInstructions": "Maps directly to the SDTMIG variable listed in the column with the heading SDTMIG Target.", "name": "CESCAT", "ordinal": "5", "prompt": "[Clinical Event Subcategory]; NULL", "questionText": "What is the subcategory of the clinical event?", "simpleDatatype": "Char"}, {"_links": {"codelist": [{"href": "/mdr/root/ct/sdtmct/codelists/C66742", "title": "Version-agnostic anchor resource for codelist C66742", "type": "Root Value Domain"}], "implements": {"href": "/mdr/cdash/1-1/classes/Events/fields/--YN", "title": "Any [Event]", "type": "Class Variable"}, "parentDomain": {"href": "/mdr/cdashig/2-1/domains/CE", "title": "Clinical Events", "type": "CDASH Domain"}, "parentProduct": {"href": "/mdr/cdashig/2-1", "title": "Clinical Data Acquisition Standards Harmonization Implementation Guide for Human Clinical Trials Version 2.1", "type": "Implementation Guide"}, "priorVersion": {"href": "/mdr/cdashig/2-0/domains/CE/fields/CEYN", "title": "Any Clinical Event", "type": "Data Collection Field"}, "rootItem": {"href": "/mdr/root/cdashig/domains/CE/fields/CEYN", "title": "Version-agnostic anchor element for field CE.CEYN", "type": "Root Data Element"}, "self": {"href": "/mdr/cdashig/2-1/domains/CE/fields/CEYN", "title": "Any Clinical Event", "type": "Data Collection Field"}}, "completionInstructions": "Indicate if the subject experienced any clinical events. If yes, include the appropriate details where indicated on the CRF.", "core": "O", "definition": "An indication whether or not any clinical events were experienced during the study.", "implementationNotes": "The intent/purpose of collecting this field is to help with data cleaning and monitoring. It provides verification that all other fields on the CRF were deliberately left blank.", "label": "Any Clinical Event", "mappingInstructions": "Does not map to an SDTMIG variable. The SDTM aCRF is annotated to indicate that this field is NOT SUBMITTED.", "name": "CEYN", "ordinal": "6", "prompt": "Any Clinical Events", "questionText": "Were any clinical events experienced?", "simpleDatatype": "Char"}, {"_links": {"implements": {"href": "/mdr/cdash/1-1/classes/Identifiers/fields/--SPID", "title": "Sponsor-Defined Identifier", "type": "Class Variable"}, "parentDomain": {"href": "/mdr/cdashig/2-1/domains/CE", "title": "Clinical Events", "type": "CDASH Domain"}, "parentProduct": {"href": "/mdr/cdashig/2-1", "title": "Clinical Data Acquisition Standards Harmonization Implementation Guide for Human Clinical Trials Version 2.1", "type": "Implementation Guide"}, "priorVersion": {"href": "/mdr/cdashig/2-0/domains/CE/fields/CESPID", "title": "Clinical Event Sponsor-Defined Identifier", "type": "Data Collection Field"}, "rootItem": {"href": "/mdr/root/cdashig/domains/CE/fields/CESPID", "title": "Version-agnostic anchor element for field CE.CESPID", "type": "Root Data Element"}, "sdtmigDatasetMappingTargets": [{"href": "/mdr/sdtmig/3-2/datasets/CE/variables/CESPID", "title": "Sponsor-Defined Identifier", "type": "SDTM Dataset Variable"}], "self": {"href": "/mdr/cdashig/2-1/domains/CE/fields/CESPID", "title": "CE Sponsor-Defined Identifier", "type": "Data Collection Field"}}, "completionInstructions": "If collected on the CRF, the sponsor may insert instructions to ensure each record has a unique identifier.", "core": "O", "definition": "A sponsor-defined identifier. In CDASH, This is typically used for preprinted or auto-generated numbers on the CRF, or any other type of identifier that does not already have a defined CDASH identifier field.", "implementationNotes": "Because SPID is a sponsor-defined identifier, conformance to Question Text or Item Prompt is not applicable. Typically used as an identifier in a data query to communicate clearly to the site the specific record in question or to reconcile concomitant medications, procedures and/or medical history records with CEs. If CMCENO or PRCENO is used, this is the identifier to which CMCENO or PRCENO refers. May be used to record preprinted number (e.g., line number, record number) on the CRF. This field may be populated by the sponsor's data collection system.", "label": "CE Sponsor-Defined Identifier", "mappingInstructions": "Maps directly to the SDTMIG variable listed in the column with the heading SDTMIG Target. May be used to create RELREC to link this record with a record in another domain.", "name": "CESPID", "ordinal": "7", "prompt": "[Sponsor defined]", "questionText": "[Sponsor defined question]", "simpleDatatype": "Char"}, {"_links": {"implements": {"href": "/mdr/cdash/1-1/classes/Events/fields/--TERM", "title": "Reported Term", "type": "Class Variable"}, "parentDomain": {"href": "/mdr/cdashig/2-1/domains/CE", "title": "Clinical Events", "type": "CDASH Domain"}, "parentProduct": {"href": "/mdr/cdashig/2-1", "title": "Clinical Data Acquisition Standards Harmonization Implementation Guide for Human Clinical Trials Version 2.1", "type": "Implementation Guide"}, "priorVersion": {"href": "/mdr/cdashig/2-0/domains/CE/fields/CETERM", "title": "Clinical Event Reported Term", "type": "Data Collection Field"}, "rootItem": {"href": "/mdr/root/cdashig/domains/CE/fields/CETERM", "title": "Version-agnostic anchor element for field CE.CETERM", "type": "Root Data Element"}, "sdtmigDatasetMappingTargets": [{"href": "/mdr/sdtmig/3-2/datasets/CE/variables/CETERM", "title": "Reported Term for the Clinical Event", "type": "SDTM Dataset Variable"}], "self": {"href": "/mdr/cdashig/2-1/domains/CE/fields/CETERM", "title": "Reported Term for the Clinical Event", "type": "Data Collection Field"}}, "completionInstructions": "Record the clinical event or [insert text corresponding to the specific clinical event].", "core": "HR", "definition": "The reported or prespecified name of the clinical event.", "implementationNotes": "Can be represented either as an open-entry field to capture verbatim terms reported by subjects or could be preprinted in the situation where solicited CEs of interest are captured. May be used as Specify Other field to collect more details on a prespecified CEDECOD value, or when CEDECOD=Other. In most cases, the verbatim term (i.e., investigator-reported term) will be coded to a standard medical dictionary such as MedDRA or WHO ART, after the data have been collected on the CRF", "label": "Reported Term for the Clinical Event", "mappingInstructions": "Maps directly to the SDTMIG variable listed in the column with the heading SDTMIG Target.", "name": "CETERM", "ordinal": "8", "prompt": "[Clinical Event]; Specify (Other/Details)", "questionText": "What is the clinical event term?", "simpleDatatype": "Char"}, {"_links": {"codelist": [{"href": "/mdr/root/ct/sdtmct/codelists/C66742", "title": "Version-agnostic anchor resource for codelist C66742", "type": "Root Value Domain"}], "implements": {"href": "/mdr/cdash/1-1/classes/Events/fields/--OCCUR", "title": "Occurrence", "type": "Class Variable"}, "parentDomain": {"href": "/mdr/cdashig/2-1/domains/CE", "title": "Clinical Events", "type": "CDASH Domain"}, "parentProduct": {"href": "/mdr/cdashig/2-1", "title": "Clinical Data Acquisition Standards Harmonization Implementation Guide for Human Clinical Trials Version 2.1", "type": "Implementation Guide"}, "priorVersion": {"href": "/mdr/cdashig/2-0/domains/CE/fields/CEOCCUR", "title": "Clinical Event Occurrence", "type": "Data Collection Field"}, "rootItem": {"href": "/mdr/root/cdashig/domains/CE/fields/CEOCCUR", "title": "Version-agnostic anchor element for field CE.CEOCCUR", "type": "Root Data Element"}, "sdtmigDatasetMappingTargets": [{"href": "/mdr/sdtmig/3-2/datasets/CE/variables/CEOCCUR", "title": "Clinical Event Occurrence", "type": "SDTM Dataset Variable"}], "self": {"href": "/mdr/cdashig/2-1/domains/CE/fields/CEOCCUR", "title": "Clinical Event Occurrence", "type": "Data Collection Field"}}, "completionInstructions": "Indicate if [specific clinical event] has occurred/is occurring by checking Yes or No.", "core": "O", "definition": "An indication whether a prespecified clinical event or a group of clinical events occurred when information about the occurrence of a specific event is solicited.", "implementationNotes": "The CDASH variable CEOCCUR is used to report the occurrence of a prespecified clinical event not considered to be an adverse event by the sponsor. CEOCCUR should not be used for spontaneously reported events. The site should be able to indicate that the response was not asked or answered.", "label": "Clinical Event Occurrence", "mappingInstructions": "Maps directly to the SDTMIG variable listed in the column with the heading SDTMIG Target.", "name": "CEOCCUR", "ordinal": "9", "prompt": "[Specified Clinical Event]", "questionText": "Did the subject have [prespecified clinical event/group of clinical events ]?", "simpleDatatype": "Char"}, {"_links": {"codelist": [{"href": "/mdr/root/ct/sdtmct/codelists/C66742", "title": "Version-agnostic anchor resource for codelist C66742", "type": "Root Value Domain"}], "implements": {"href": "/mdr/cdash/1-1/classes/Events/fields/--PRESP", "title": "Pre-Specified", "type": "Class Variable"}, "parentDomain": {"href": "/mdr/cdashig/2-1/domains/CE", "title": "Clinical Events", "type": "CDASH Domain"}, "parentProduct": {"href": "/mdr/cdashig/2-1", "title": "Clinical Data Acquisition Standards Harmonization Implementation Guide for Human Clinical Trials Version 2.1", "type": "Implementation Guide"}, "priorVersion": {"href": "/mdr/cdashig/2-0/domains/CE/fields/CEPRESP", "title": "Clinical Event Pre-Specified", "type": "Data Collection Field"}, "rootItem": {"href": "/mdr/root/cdashig/domains/CE/fields/CEPRESP", "title": "Version-agnostic anchor element for field CE.CEPRESP", "type": "Root Data Element"}, "sdtmigDatasetMappingTargets": [{"href": "/mdr/sdtmig/3-2/datasets/CE/variables/CEPRESP", "title": "Clinical Event Pre-Specified", "type": "SDTM Dataset Variable"}], "self": {"href": "/mdr/cdashig/2-1/domains/CE/fields/CEPRESP", "title": "Clinical Event prespecified", "type": "Data Collection Field"}}, "core": "O", "definition": "An indication that a specific event, or group of events, are prespecified on a CRF.", "implementationNotes": "A hidden field on a CRF defaulted to \"Y\", or added during the SDTM-based dataset creation when the clinical event is prespecified. Null for spontaneously reported events. If a study collects both prespecified clinical events as well as free-text events, the value of CEPRESP should be \"Y\" for all prespecified events and null for events reported as free-text. CEPRESP is a permissible field in SDTM and may be omitted from the SDTM-based dataset if all events were collected as free text.", "label": "Clinical Event prespecified", "mappingInstructions": "Maps directly to the SDTMIG variable listed in the column with the heading SDTMIG Target.", "name": "CEPRESP", "ordinal": "10", "simpleDatatype": "Char"}, {"_links": {"implements": {"href": "/mdr/cdash/1-1/classes/Timing/fields/--STDAT", "title": "Observation Start Date", "type": "Class Variable"}, "parentDomain": {"href": "/mdr/cdashig/2-1/domains/CE", "title": "Clinical Events", "type": "CDASH Domain"}, "parentProduct": {"href": "/mdr/cdashig/2-1", "title": "Clinical Data Acquisition Standards Harmonization Implementation Guide for Human Clinical Trials Version 2.1", "type": "Implementation Guide"}, "priorVersion": {"href": "/mdr/cdashig/2-0/domains/CE/fields/CESTDAT", "title": "Clinical Event Start Date", "type": "Data Collection Field"}, "rootItem": {"href": "/mdr/root/cdashig/domains/CE/fields/CESTDAT", "title": "Version-agnostic anchor element for field CE.CESTDAT", "type": "Root Data Element"}, "sdtmigDatasetMappingTargets": [{"href": "/mdr/sdtmig/3-2/datasets/CE/variables/CESTDTC", "title": "Start Date/Time of Clinical Event", "type": "SDTM Dataset Variable"}], "self": {"href": "/mdr/cdashig/2-1/domains/CE/fields/CESTDAT", "title": "Clinical Event Start Date", "type": "Data Collection Field"}}, "completionInstructions": "Record the start date of the [clinical event ] using this format (DD-MON-YYYY).", "core": "O", "definition": "The start date of the clinical event, represented in an unambiguous date format (e.g., DD-MON-YYYY).", "label": "Clinical Event Start Date", "mappingInstructions": "This does not map directly to an SDTMIG variable. For the SDTM submission dataset, concatenate all collected CDASH START DATE and TIME components and populate the SDTMIG variable CESTDTC in ISO 8601 format.", "name": "CESTDAT", "ordinal": "11", "prompt": "Start Date", "questionText": "What was the [clinical event] start date?", "simpleDatatype": "Char"}, {"_links": {"implements": {"href": "/mdr/cdash/1-1/classes/Timing/fields/--STTIM", "title": "Observation Start Time", "type": "Class Variable"}, "parentDomain": {"href": "/mdr/cdashig/2-1/domains/CE", "title": "Clinical Events", "type": "CDASH Domain"}, "parentProduct": {"href": "/mdr/cdashig/2-1", "title": "Clinical Data Acquisition Standards Harmonization Implementation Guide for Human Clinical Trials Version 2.1", "type": "Implementation Guide"}, "priorVersion": {"href": "/mdr/cdashig/2-0/domains/CE/fields/CESTTIM", "title": "Start Time of Clinical Event", "type": "Data Collection Field"}, "rootItem": {"href": "/mdr/root/cdashig/domains/CE/fields/CESTTIM", "title": "Version-agnostic anchor element for field CE.CESTTIM", "type": "Root Data Element"}, "sdtmigDatasetMappingTargets": [{"href": "/mdr/sdtmig/3-2/datasets/CE/variables/CESTDTC", "title": "Start Date/Time of Clinical Event", "type": "SDTM Dataset Variable"}], "self": {"href": "/mdr/cdashig/2-1/domains/CE/fields/CESTTIM", "title": "Clinical Event Start Time", "type": "Data Collection Field"}}, "completionInstructions": "If appropriate, record the start time (as complete as possible) of the [clinical event].", "core": "O", "definition": "The start time of the clinical event represented in an unambiguous date format (e.g., hh:mm:ss).", "implementationNotes": "Collecting the time a CE started is only appropriate if it can be realistically determined and if there is a scientific reason for needing to know this level of detail. An example is where the subject is under the direct care of the site at the time the event started and the study design is such that it is important to know the CE start time with respect to dosing.", "label": "Clinical Event Start Time", "mappingInstructions": "This does not map directly to an SDTMIG variable. For the SDTM submission dataset, concatenate all collected CDASH START DATE and TIME components and populate the SDTMIG variable CESTDTC in ISO 8601 format.", "name": "CESTTIM", "ordinal": "12", "prompt": "Start Time", "questionText": "What was the [clinical event] start time?", "simpleDatatype": "Char"}, {"_links": {"codelist": [{"href": "/mdr/root/ct/sdtmct/codelists/C74456", "title": "Version-agnostic anchor resource for codelist C74456", "type": "Root Value Domain"}], "implements": {"href": "/mdr/cdash/1-1/classes/Events/fields/--LOC", "title": "Location of Event", "type": "Class Variable"}, "parentDomain": {"href": "/mdr/cdashig/2-1/domains/CE", "title": "Clinical Events", "type": "CDASH Domain"}, "parentProduct": {"href": "/mdr/cdashig/2-1", "title": "Clinical Data Acquisition Standards Harmonization Implementation Guide for Human Clinical Trials Version 2.1", "type": "Implementation Guide"}, "priorVersion": {"href": "/mdr/cdashig/2-0/domains/CE/fields/CELOC", "title": "Clinical Event Location", "type": "Data Collection Field"}, "rootItem": {"href": "/mdr/root/cdashig/domains/CE/fields/CELOC", "title": "Version-agnostic anchor element for field CE.CELOC", "type": "Root Data Element"}, "self": {"href": "/mdr/cdashig/2-1/domains/CE/fields/CELOC", "title": "Clinical Event Location", "type": "Data Collection Field"}}, "completionInstructions": "Indicate the anatomical location of the clinical event.", "core": "O", "definition": "A description of the anatomical location relevant for the clinical event.", "implementationNotes": "Collected or preprinted when the sponsor needs to identify the specific anatomical location. Sponsors may collect the data using a subset list of controlled terminology on the CRF. LAT, DIR, PORTOT are used to further describe the anatomical location.", "label": "Clinical Event Location", "mappingInstructions": "Maps directly to the SDTMIG variable listed in the column with the heading SDTMIG Target.", "name": "CELOC", "ordinal": "13", "prompt": "Anatomical Location", "questionText": "What was the anatomical location of the [clinical event]?", "simpleDatatype": "Char"}, {"_links": {"codelist": [{"href": "/mdr/root/ct/sdtmct/codelists/C99073", "title": "Version-agnostic anchor resource for codelist C99073", "type": "Root Value Domain"}], "implements": {"href": "/mdr/cdash/1-1/classes/Events/fields/--LAT", "title": "Laterality", "type": "Class Variable"}, "parentDomain": {"href": "/mdr/cdashig/2-1/domains/CE", "title": "Clinical Events", "type": "CDASH Domain"}, "parentProduct": {"href": "/mdr/cdashig/2-1", "title": "Clinical Data Acquisition Standards Harmonization Implementation Guide for Human Clinical Trials Version 2.1", "type": "Implementation Guide"}, "priorVersion": {"href": "/mdr/cdashig/2-0/domains/CE/fields/CELAT", "title": "Clinical Event Laterality", "type": "Data Collection Field"}, "rootItem": {"href": "/mdr/root/cdashig/domains/CE/fields/CELAT", "title": "Version-agnostic anchor element for field CE.CELAT", "type": "Root Data Element"}, "self": {"href": "/mdr/cdashig/2-1/domains/CE/fields/CELAT", "title": "Clinical Event Laterality", "type": "Data Collection Field"}}, "completionInstructions": "Record the side of the anatomical location of the clinical event.", "core": "O", "definition": "Qualifier for anatomical location further detailing the side of the body relevant for the event.", "implementationNotes": "May be preprinted or collected when the sponsor needs to identify the specific side of the anatomical location. Sponsors may collect the data using a subset list of controlled terminology on the CRF.", "label": "Clinical Event Laterality", "mappingInstructions": "Maps directly to the SDTMIG variable listed in the column with the heading SDTMIG Target.", "name": "CELAT", "ordinal": "14", "prompt": "Side", "questionText": "What was the side of the anatomical location of the [clinical event]?", "simpleDatatype": "Char"}, {"_links": {"codelist": [{"href": "/mdr/root/ct/sdtmct/codelists/C99074", "title": "Version-agnostic anchor resource for codelist C99074", "type": "Root Value Domain"}], "implements": {"href": "/mdr/cdash/1-1/classes/Events/fields/--DIR", "title": "Directionality", "type": "Class Variable"}, "parentDomain": {"href": "/mdr/cdashig/2-1/domains/CE", "title": "Clinical Events", "type": "CDASH Domain"}, "parentProduct": {"href": "/mdr/cdashig/2-1", "title": "Clinical Data Acquisition Standards Harmonization Implementation Guide for Human Clinical Trials Version 2.1", "type": "Implementation Guide"}, "priorVersion": {"href": "/mdr/cdashig/2-0/domains/CE/fields/CEDIR", "title": "Clinical Event Directionality", "type": "Data Collection Field"}, "rootItem": {"href": "/mdr/root/cdashig/domains/CE/fields/CEDIR", "title": "Version-agnostic anchor element for field CE.CEDIR", "type": "Root Data Element"}, "self": {"href": "/mdr/cdashig/2-1/domains/CE/fields/CEDIR", "title": "Clinical Event Directionality", "type": "Data Collection Field"}}, "completionInstructions": "Record the directionality of the anatomical location of the clinical event.", "core": "O", "definition": "Qualifier further detailing the position of the anatomical location relative to the center of the body, organ, or specimen.", "implementationNotes": "May be preprinted or collected when the sponsor needs to identify the directionality of the anatomical location. Sponsors may collect the data using a subset list of controlled terminology on the CRF.", "label": "Clinical Event Directionality", "mappingInstructions": "Maps directly to the SDTMIG variable listed in the column with the heading SDTMIG Target.", "name": "CEDIR", "ordinal": "15", "prompt": "Directionality", "questionText": "What was the directionality of the anatomical location of the [clinical event]?", "simpleDatatype": "Char"}, {"_links": {"codelist": [{"href": "/mdr/root/ct/sdtmct/codelists/C99075", "title": "Version-agnostic anchor resource for codelist C99075", "type": "Root Value Domain"}], "implements": {"href": "/mdr/cdash/1-1/classes/Events/fields/--PORTOT", "title": "Portion or Totality", "type": "Class Variable"}, "parentDomain": {"href": "/mdr/cdashig/2-1/domains/CE", "title": "Clinical Events", "type": "CDASH Domain"}, "parentProduct": {"href": "/mdr/cdashig/2-1", "title": "Clinical Data Acquisition Standards Harmonization Implementation Guide for Human Clinical Trials Version 2.1", "type": "Implementation Guide"}, "priorVersion": {"href": "/mdr/cdashig/2-0/domains/CE/fields/CEPORTOT", "title": "Clinical Event Location Portion or Totality", "type": "Data Collection Field"}, "rootItem": {"href": "/mdr/root/cdashig/domains/CE/fields/CEPORTOT", "title": "Version-agnostic anchor element for field CE.CEPORTOT", "type": "Root Data Element"}, "self": {"href": "/mdr/cdashig/2-1/domains/CE/fields/CEPORTOT", "title": "CE Location Portion or Totality", "type": "Data Collection Field"}}, "completionInstructions": "Indicate the portion or totality anatomical location of the clinical event.", "core": "O", "definition": "Qualifier for anatomical location further detailing the distribution (i.e., arrangement of, apportioning of).", "implementationNotes": "Collected when the sponsor needs to identify the specific portionality for the anatomical locations. Sponsors may collect the data using a subset list of controlled terminology on the CRF.", "label": "CE Location Portion or Totality", "mappingInstructions": "Maps directly to the SDTMIG variable listed in the column with the heading SDTMIG Target.", "name": "CEPORTOT", "ordinal": "16", "prompt": "Portion or Totality", "questionText": "What was the portion or totality of the anatomical location of the clinical event?", "simpleDatatype": "Char"}, {"_links": {"codelist": [{"href": "/mdr/root/ct/sdtmct/codelists/C66742", "title": "Version-agnostic anchor resource for codelist C66742", "type": "Root Value Domain"}], "implements": {"href": "/mdr/cdash/1-1/classes/Events/fields/--ONGO", "title": "Ongoing Event", "type": "Class Variable"}, "parentDomain": {"href": "/mdr/cdashig/2-1/domains/CE", "title": "Clinical Events", "type": "CDASH Domain"}, "parentProduct": {"href": "/mdr/cdashig/2-1", "title": "Clinical Data Acquisition Standards Harmonization Implementation Guide for Human Clinical Trials Version 2.1", "type": "Implementation Guide"}, "priorVersion": {"href": "/mdr/cdashig/2-0/domains/CE/fields/CEONGO", "title": "Ongoing Clinical Event", "type": "Data Collection Field"}, "rootItem": {"href": "/mdr/root/cdashig/domains/CE/fields/CEONGO", "title": "Version-agnostic anchor element for field CE.CEONGO", "type": "Root Data Element"}, "sdtmigDatasetMappingTargets": [{"href": "/mdr/sdtmig/3-2/datasets/CE/variables/CEENRF", "title": "End Relative to Reference Period", "type": "SDTM Dataset Variable"}, {"href": "/mdr/sdtmig/3-2/datasets/CE/variables/CEENRTPT", "title": "End Relative to Reference Time Point", "type": "SDTM Dataset Variable"}], "self": {"href": "/mdr/cdashig/2-1/domains/CE/fields/CEONGO", "title": "Ongoing Clinical Event", "type": "Data Collection Field"}}, "completionInstructions": "Indicate if the clinical event has not resolved at the time of data collection. If ongoing leave the End Date blank.", "core": "O", "definition": "Indication the clinical event is ongoing when no end date is provided.", "implementationNotes": "Completed to indicate that the CE has not resolved at the time of data collection, when no End Date is collected. In some cases the ongoing status may be determined from CE Outcome. The purpose of collecting this field is to help with data cleaning and monitoring; this field provides further confirmation that the End Date was deliberately left blank. Often used as a tick/checkbox.", "label": "Ongoing Clinical Event", "mappingInstructions": "This does not map directly to an SDTMIG variable. May be used to populate a value into an SDTMIG relative timing variable such as CEENRF or CEENRTPT. When populating CEENRF, if the value of CEONGO is \"Y\", the value of \"DURING\", \"AFTER\" or \"DURING/AFTER\" may be used. When populating CEENRTPT, if the value of CEONGO is \"Y\", the value of \"ONGOING\" may be used. When CEONGO refers to the Study Reference Period (defined in DM.RFSTDTC to DM.RFENDTC) the SDTMIG variable CEENRF should be populated. When CEONGO is compared to another time point, the SDTMIG variables CEENRTPT and CEENTPT should be used. Note: CEENRTPT must refer to a time point anchor described in CEENTPT.", "name": "CEONGO", "ordinal": "17", "prompt": "Ongoing (as of the [study-specific timepoint or period])", "questionText": "Was the [clinical event] ongoing (as of [the study-specific timepoint or period]?", "simpleDatatype": "Char"}, {"_links": {"implements": {"href": "/mdr/cdash/1-1/classes/Timing/fields/--ENDAT", "title": "Observation End Date", "type": "Class Variable"}, "parentDomain": {"href": "/mdr/cdashig/2-1/domains/CE", "title": "Clinical Events", "type": "CDASH Domain"}, "parentProduct": {"href": "/mdr/cdashig/2-1", "title": "Clinical Data Acquisition Standards Harmonization Implementation Guide for Human Clinical Trials Version 2.1", "type": "Implementation Guide"}, "priorVersion": {"href": "/mdr/cdashig/2-0/domains/CE/fields/CEENDAT", "title": "Clinical Event End Date", "type": "Data Collection Field"}, "rootItem": {"href": "/mdr/root/cdashig/domains/CE/fields/CEENDAT", "title": "Version-agnostic anchor element for field CE.CEENDAT", "type": "Root Data Element"}, "sdtmigDatasetMappingTargets": [{"href": "/mdr/sdtmig/3-2/datasets/CE/variables/CEENDTC", "title": "End Date/Time of Clinical Event", "type": "SDTM Dataset Variable"}], "self": {"href": "/mdr/cdashig/2-1/domains/CE/fields/CEENDAT", "title": "Clinical Event End Date", "type": "Data Collection Field"}}, "completionInstructions": "Record the date that the [clinical event] resolved using this format (DD-MON-YYYY). If the [clinical event] is ongoing, leave the field blank.", "core": "O", "definition": "The date when the clinical event resolved/ ended, represented in an unambiguous date format (e.g., DD-MON-YYYY).", "implementationNotes": "The definition of resolved is sponsor-specific. The preferred method is to collect a complete end date. Partial dates (e.g., providing year only, month and year only) may be acceptable.", "label": "Clinical Event End Date", "mappingInstructions": "This does not map directly to an SDTMIG variable. For the SDTM submission dataset, concatenate all collected CDASH END DATE and TIME components and populate the SDTMIG variable CEENDTC in ISO 8601 format.", "name": "CEENDAT", "ordinal": "18", "prompt": "End Date", "questionText": "What was the [clinical event] end date?", "simpleDatatype": "Char"}, {"_links": {"implements": {"href": "/mdr/cdash/1-1/classes/Timing/fields/--ENTIM", "title": "Observation End Time", "type": "Class Variable"}, "parentDomain": {"href": "/mdr/cdashig/2-1/domains/CE", "title": "Clinical Events", "type": "CDASH Domain"}, "parentProduct": {"href": "/mdr/cdashig/2-1", "title": "Clinical Data Acquisition Standards Harmonization Implementation Guide for Human Clinical Trials Version 2.1", "type": "Implementation Guide"}, "priorVersion": {"href": "/mdr/cdashig/2-0/domains/CE/fields/CEENTIM", "title": "End Time of Clinical Event", "type": "Data Collection Field"}, "rootItem": {"href": "/mdr/root/cdashig/domains/CE/fields/CEENTIM", "title": "Version-agnostic anchor element for field CE.CEENTIM", "type": "Root Data Element"}, "sdtmigDatasetMappingTargets": [{"href": "/mdr/sdtmig/3-2/datasets/CE/variables/CEENDTC", "title": "End Date/Time of Clinical Event", "type": "SDTM Dataset Variable"}], "self": {"href": "/mdr/cdashig/2-1/domains/CE/fields/CEENTIM", "title": "Clinical Event End Time", "type": "Data Collection Field"}}, "completionInstructions": "Record the time (as complete as possible) that the [clinical event] resolved.", "core": "O", "definition": "The time when the clinical event ended/resolved, represented in an unambiguous time format (e.g., hh:mm:ss).", "implementationNotes": "Collecting the time an CE resolved is only appropriate if it can be realistically determined and if there is a scientific reason for needing to know this level of detail. An example is where the subject is under the direct care of the site at the time the event resolved and the study design is such that it is important to know the CE end time with respect to dosing.", "label": "Clinical Event End Time", "mappingInstructions": "This does not map directly to an SDTMIG variable. For the SDTM submission dataset, concatenate all collected CDASH END DATE and TIME components and populate the SDTMIG variable CEENDTC in ISO 8601 format.", "name": "CEENTIM", "ordinal": "19", "prompt": "End Time", "questionText": "What was the [clinical event] end time?", "simpleDatatype": "Char"}, {"_links": {"implements": {"href": "/mdr/cdash/1-1/classes/Events/fields/--SEV", "title": "Severity/Intensity", "type": "Class Variable"}, "parentDomain": {"href": "/mdr/cdashig/2-1/domains/CE", "title": "Clinical Events", "type": "CDASH Domain"}, "parentProduct": {"href": "/mdr/cdashig/2-1", "title": "Clinical Data Acquisition Standards Harmonization Implementation Guide for Human Clinical Trials Version 2.1", "type": "Implementation Guide"}, "priorVersion": {"href": "/mdr/cdashig/2-0/domains/CE/fields/CESEV", "title": "Clinical Event Severity/Intensity", "type": "Data Collection Field"}, "rootItem": {"href": "/mdr/root/cdashig/domains/CE/fields/CESEV", "title": "Version-agnostic anchor element for field CE.CESEV", "type": "Root Data Element"}, "sdtmigDatasetMappingTargets": [{"href": "/mdr/sdtmig/3-2/datasets/CE/variables/CESEV", "title": "Severity/Intensity", "type": "SDTM Dataset Variable"}], "self": {"href": "/mdr/cdashig/2-1/domains/CE/fields/CESEV", "title": "CE Severity/Intensity", "type": "Data Collection Field"}}, "completionInstructions": "The reporting physician/healthcare professional will assess the severity of the event using the sponsor-defined categories. This assessment is subjective and the reporting physician/ healthcare professional should use medical judgment to compare the reported clinical event to similar type events observed in clinical practice.", "core": "O", "definition": "The severity or intensity of the event.", "implementationNotes": "Some studies may collect Severity and/or Toxicity Grade.", "label": "CE Severity/Intensity", "mappingInstructions": "Maps directly to the SDTMIG variable listed in the column with the heading SDTMIG Target. The sponsor is expected to provide the toxicity scale name and version used to map the terms utilizing the Define-XML external code list attributes.", "name": "CESEV", "ordinal": "20", "prompt": "Severity", "questionText": "What was the severity of the [clinical event]?", "simpleDatatype": "Char"}, {"_links": {"implements": {"href": "/mdr/cdash/1-1/classes/Events/fields/--TOX", "title": "Toxicity", "type": "Class Variable"}, "parentDomain": {"href": "/mdr/cdashig/2-1/domains/CE", "title": "Clinical Events", "type": "CDASH Domain"}, "parentProduct": {"href": "/mdr/cdashig/2-1", "title": "Clinical Data Acquisition Standards Harmonization Implementation Guide for Human Clinical Trials Version 2.1", "type": "Implementation Guide"}, "priorVersion": {"href": "/mdr/cdashig/2-0/domains/CE/fields/CETOX", "title": "Clinical Event Toxicity Description", "type": "Data Collection Field"}, "rootItem": {"href": "/mdr/root/cdashig/domains/CE/fields/CETOX", "title": "Version-agnostic anchor element for field CE.CETOX", "type": "Root Data Element"}, "self": {"href": "/mdr/cdashig/2-1/domains/CE/fields/CETOX", "title": "Clinical Event Toxicity Description", "type": "Data Collection Field"}}, "completionInstructions": "Record the description of the toxicity.", "core": "O", "definition": "A description of toxicity quantified by CETOXGR (e.g., NCI CTCAE Short Name).", "implementationNotes": "This would typically be the text description quantified by CETOXGR (e.g., HYPERCALCEMIA, HYPOCALCEMIA)", "label": "Clinical Event Toxicity Description", "mappingInstructions": "Maps directly to the SDTMIG variable listed in the column with the heading SDTMIG Target. The sponsor is expected to provide the toxicity scale name and version used to map the terms utilizing the Define-XML external code list attributes.", "name": "CETOX", "ordinal": "21", "prompt": "[NCI CTCAE] Toxicity", "questionText": "What was the description of the toxicity?", "simpleDatatype": "Char"}, {"_links": {"implements": {"href": "/mdr/cdash/1-1/classes/Events/fields/--TOXGR", "title": "Toxicity Grade", "type": "Class Variable"}, "parentDomain": {"href": "/mdr/cdashig/2-1/domains/CE", "title": "Clinical Events", "type": "CDASH Domain"}, "parentProduct": {"href": "/mdr/cdashig/2-1", "title": "Clinical Data Acquisition Standards Harmonization Implementation Guide for Human Clinical Trials Version 2.1", "type": "Implementation Guide"}, "priorVersion": {"href": "/mdr/cdashig/2-0/domains/CE/fields/CETOXGR", "title": "Clinical Event Toxicity Grade", "type": "Data Collection Field"}, "rootItem": {"href": "/mdr/root/cdashig/domains/CE/fields/CETOXGR", "title": "Version-agnostic anchor element for field CE.CETOXGR", "type": "Root Data Element"}, "self": {"href": "/mdr/cdashig/2-1/domains/CE/fields/CETOXGR", "title": "Clinical Event Toxicity Grade", "type": "Data Collection Field"}}, "completionInstructions": "Record the severity of the clinical event using the CTCAE Toxicity Grades.", "core": "O", "definition": "The toxicity grade using a standard toxicity scale (e.g., NCI CTCAE).", "implementationNotes": "Some studies may collect Severity and/or Toxicity Grade. CDISC Controlled Terminology (TOXGRV3); (TOXGRV4) may be used.", "label": "Clinical Event Toxicity Grade", "mappingInstructions": "Maps directly to the SDTMIG variable listed in the column with the heading SDTMIG Target. The sponsor is expected to provide the toxicity scale name and version used to map the terms utilizing the Define-XML external code list attributes.", "name": "CETOXGR", "ordinal": "22", "prompt": "[NCI CTCAE Toxicity] Grade", "questionText": "What was the toxicity grade?", "simpleDatatype": "Char"}, {"_links": {"implements": {"href": "/mdr/cdash/1-1/classes/Events/fields/--MODIFY", "title": "Modified Reported Term", "type": "Class Variable"}, "parentDomain": {"href": "/mdr/cdashig/2-1/domains/CE", "title": "Clinical Events", "type": "CDASH Domain"}, "parentProduct": {"href": "/mdr/cdashig/2-1", "title": "Clinical Data Acquisition Standards Harmonization Implementation Guide for Human Clinical Trials Version 2.1", "type": "Implementation Guide"}, "priorVersion": {"href": "/mdr/cdashig/2-0/domains/CE/fields/CEMODIFY", "title": "Clinical Event Modified Term", "type": "Data Collection Field"}, "rootItem": {"href": "/mdr/root/cdashig/domains/CE/fields/CEMODIFY", "title": "Version-agnostic anchor element for field CE.CEMODIFY", "type": "Root Data Element"}, "self": {"href": "/mdr/cdashig/2-1/domains/CE/fields/CEMODIFY", "title": "Clinical Event Modified Term", "type": "Data Collection Field"}}, "core": "O", "definition": "If the value for CETERM is modified to facilitate coding, then CEMODIFY will contain the modified text.", "implementationNotes": "This is not a data collection field that would appear on the CRF. Sponsors will populate this through the coding process.", "label": "Clinical Event Modified Term", "mappingInstructions": "Maps directly to the SDTMIG variable listed in the column with the heading SDTMIG Target.", "name": "CEMODIFY", "ordinal": "23", "simpleDatatype": "Char"}, {"_links": {"implements": {"href": "/mdr/cdash/1-1/classes/Events/fields/--DECOD", "title": "Dictionary-Derived Term", "type": "Class Variable"}, "parentDomain": {"href": "/mdr/cdashig/2-1/domains/CE", "title": "Clinical Events", "type": "CDASH Domain"}, "parentProduct": {"href": "/mdr/cdashig/2-1", "title": "Clinical Data Acquisition Standards Harmonization Implementation Guide for Human Clinical Trials Version 2.1", "type": "Implementation Guide"}, "priorVersion": {"href": "/mdr/cdashig/2-0/domains/CE/fields/CEDECOD", "title": "Clinical Event Dictionary-Derived/Standardized Term", "type": "Data Collection Field"}, "rootItem": {"href": "/mdr/root/cdashig/domains/CE/fields/CEDECOD", "title": "Version-agnostic anchor element for field CE.CEDECOD", "type": "Root Data Element"}, "sdtmigDatasetMappingTargets": [{"href": "/mdr/sdtmig/3-2/datasets/CE/variables/CEDECOD", "title": "Dictionary-Derived Term", "type": "SDTM Dataset Variable"}], "self": {"href": "/mdr/cdashig/2-1/domains/CE/fields/CEDECOD", "title": "CE Dictionary-Derived Term", "type": "Data Collection Field"}}, "core": "O", "definition": "The dictionary- or sponsor-defined standardized text description of CETERM or the modified topic variable (CEMODIFY), if applicable.", "implementationNotes": "This is typically not a data collection field that would appear on the CRF. Sponsors will populate this through the coding process. Equivalent to the Preferred Term (PT in MedDRA).", "label": "CE Dictionary-Derived Term", "mappingInstructions": "Maps directly to the SDTMIG variable listed in the column with the heading SDTMIG Target. The sponsor is expected to provide the dictionary name and version used to map the terms utilizing the Define-XML external codelist attributes. Sponsors should include an Origin in the define metadata document to indicate that the data was \"ASSIGNED\".", "name": "CEDECOD", "ordinal": "24", "simpleDatatype": "Char"}, {"_links": {"implements": {"href": "/mdr/cdash/1-1/classes/Events/fields/--LLT", "title": "Lowest Level Term", "type": "Class Variable"}, "parentDomain": {"href": "/mdr/cdashig/2-1/domains/CE", "title": "Clinical Events", "type": "CDASH Domain"}, "parentProduct": {"href": "/mdr/cdashig/2-1", "title": "Clinical Data Acquisition Standards Harmonization Implementation Guide for Human Clinical Trials Version 2.1", "type": "Implementation Guide"}, "priorVersion": {"href": "/mdr/cdashig/2-0/domains/CE/fields/CELLT", "title": "Clinical Event Lowest Level Term", "type": "Data Collection Field"}, "rootItem": {"href": "/mdr/root/cdashig/domains/CE/fields/CELLT", "title": "Version-agnostic anchor element for field CE.CELLT", "type": "Root Data Element"}, "self": {"href": "/mdr/cdashig/2-1/domains/CE/fields/CELLT", "title": "Clinical Event Lowest Level Term", "type": "Data Collection Field"}}, "core": "O", "definition": "MedDRA text description of the Lowest Level Term.", "implementationNotes": "This field does not typically appear on the CRF. Sponsors will populate this through the coding process. This is applicable to items using MedDRA coding.", "label": "Clinical Event Lowest Level Term", "mappingInstructions": "Maps directly to the SDTMIG variable listed in the column with the heading SDTMIG Target. The sponsor is expected to provide the dictionary name and version used to code utilizing the Define-XML external codelist attributes. Sponsors should include an Origin in the define metadata document to indicate that the data was \"ASSIGNED\".", "name": "CELLT", "ordinal": "25", "simpleDatatype": "Char"}, {"_links": {"implements": {"href": "/mdr/cdash/1-1/classes/Events/fields/--LLTCD", "title": "Lowest Level Term Code", "type": "Class Variable"}, "parentDomain": {"href": "/mdr/cdashig/2-1/domains/CE", "title": "Clinical Events", "type": "CDASH Domain"}, "parentProduct": {"href": "/mdr/cdashig/2-1", "title": "Clinical Data Acquisition Standards Harmonization Implementation Guide for Human Clinical Trials Version 2.1", "type": "Implementation Guide"}, "priorVersion": {"href": "/mdr/cdashig/2-0/domains/CE/fields/CELLTCD", "title": "Clinical Event Lowest Level Term Code", "type": "Data Collection Field"}, "rootItem": {"href": "/mdr/root/cdashig/domains/CE/fields/CELLTCD", "title": "Version-agnostic anchor element for field CE.CELLTCD", "type": "Root Data Element"}, "self": {"href": "/mdr/cdashig/2-1/domains/CE/fields/CELLTCD", "title": "Clinical Event Lowest Level Term Code", "type": "Data Collection Field"}}, "core": "O", "definition": "MedDRA Lowest Level Term code.", "implementationNotes": "This field does not typically appear on the CRF. Sponsors will populate this through the coding process. This is applicable to items using MedDRA coding.", "label": "Clinical Event Lowest Level Term Code", "mappingInstructions": "Maps directly to the SDTMIG variable listed in the column with the heading SDTMIG Target. The sponsor is expected to provide the dictionary name and version used to code utilizing the Define-XML external codelist attributes. Sponsors should include an Origin in the define metadata document to indicate that the data was \"ASSIGNED\".", "name": "CELLTCD", "ordinal": "26", "simpleDatatype": "Num"}, {"_links": {"implements": {"href": "/mdr/cdash/1-1/classes/Events/fields/--PTCD", "title": "Preferred Term Code", "type": "Class Variable"}, "parentDomain": {"href": "/mdr/cdashig/2-1/domains/CE", "title": "Clinical Events", "type": "CDASH Domain"}, "parentProduct": {"href": "/mdr/cdashig/2-1", "title": "Clinical Data Acquisition Standards Harmonization Implementation Guide for Human Clinical Trials Version 2.1", "type": "Implementation Guide"}, "priorVersion": {"href": "/mdr/cdashig/2-0/domains/CE/fields/CEPTCD", "title": "Clinical Event Preferred Term Code", "type": "Data Collection Field"}, "rootItem": {"href": "/mdr/root/cdashig/domains/CE/fields/CEPTCD", "title": "Version-agnostic anchor element for field CE.CEPTCD", "type": "Root Data Element"}, "self": {"href": "/mdr/cdashig/2-1/domains/CE/fields/CEPTCD", "title": "Clinical Event Preferred Term Code", "type": "Data Collection Field"}}, "core": "O", "definition": "MedDRA code for the Preferred Term.", "implementationNotes": "This field does not typically appear on the CRF. Sponsors will populate this through the coding process. This is applicable to items using MedDRA coding.", "label": "Clinical Event Preferred Term Code", "mappingInstructions": "Maps directly to the SDTMIG variable listed in the column with the heading SDTMIG Target. The sponsor is expected to provide the dictionary name and version used to code utilizing the Define-XML external codelist attributes. Sponsors should include an Origin in the define metadata document to indicate that the data was \"ASSIGNED\".", "name": "CEPTCD", "ordinal": "27", "simpleDatatype": "Num"}, {"_links": {"implements": {"href": "/mdr/cdash/1-1/classes/Events/fields/--HLT", "title": "High Level Term", "type": "Class Variable"}, "parentDomain": {"href": "/mdr/cdashig/2-1/domains/CE", "title": "Clinical Events", "type": "CDASH Domain"}, "parentProduct": {"href": "/mdr/cdashig/2-1", "title": "Clinical Data Acquisition Standards Harmonization Implementation Guide for Human Clinical Trials Version 2.1", "type": "Implementation Guide"}, "priorVersion": {"href": "/mdr/cdashig/2-0/domains/CE/fields/CEHLT", "title": "Clinical Event High Level Term", "type": "Data Collection Field"}, "rootItem": {"href": "/mdr/root/cdashig/domains/CE/fields/CEHLT", "title": "Version-agnostic anchor element for field CE.CEHLT", "type": "Root Data Element"}, "self": {"href": "/mdr/cdashig/2-1/domains/CE/fields/CEHLT", "title": "Clinical Event High Level Term", "type": "Data Collection Field"}}, "core": "O", "definition": "MedDRA text description of the High Level Term from the primary path.", "implementationNotes": "This field does not typically appear on the CRF. Sponsors will populate this through the coding process. This is applicable to items using MedDRA coding.", "label": "Clinical Event High Level Term", "mappingInstructions": "Maps directly to the SDTMIG variable listed in the column with the heading SDTMIG Target. The sponsor is expected to provide the dictionary name and version used to code utilizing the Define-XML external codelist attributes. Sponsors should include an Origin in the define metadata document to indicate that the data was \"ASSIGNED\".", "name": "CEHLT", "ordinal": "28", "simpleDatatype": "Char"}, {"_links": {"implements": {"href": "/mdr/cdash/1-1/classes/Events/fields/--HLTCD", "title": "High Level Term Code", "type": "Class Variable"}, "parentDomain": {"href": "/mdr/cdashig/2-1/domains/CE", "title": "Clinical Events", "type": "CDASH Domain"}, "parentProduct": {"href": "/mdr/cdashig/2-1", "title": "Clinical Data Acquisition Standards Harmonization Implementation Guide for Human Clinical Trials Version 2.1", "type": "Implementation Guide"}, "priorVersion": {"href": "/mdr/cdashig/2-0/domains/CE/fields/CEHLTCD", "title": "Clinical Event High Level Term Code", "type": "Data Collection Field"}, "rootItem": {"href": "/mdr/root/cdashig/domains/CE/fields/CEHLTCD", "title": "Version-agnostic anchor element for field CE.CEHLTCD", "type": "Root Data Element"}, "self": {"href": "/mdr/cdashig/2-1/domains/CE/fields/CEHLTCD", "title": "Clinical Event High Level Term Code", "type": "Data Collection Field"}}, "core": "O", "definition": "MedDRA High Level Term code from the primary path.", "implementationNotes": "This field does not typically appear on the CRF. Sponsors will populate this through the coding process. This is applicable to items using MedDRA coding.", "label": "Clinical Event High Level Term Code", "mappingInstructions": "Maps directly to the SDTMIG variable listed in the column with the heading SDTMIG Target. The sponsor is expected to provide the dictionary name and version used to code utilizing the Define-XML external codelist attributes. Sponsors should include an Origin in the define metadata document to indicate that the data was \"ASSIGNED\".", "name": "CEHLTCD", "ordinal": "29", "simpleDatatype": "Num"}, {"_links": {"implements": {"href": "/mdr/cdash/1-1/classes/Events/fields/--HLGT", "title": "High Level Group Term", "type": "Class Variable"}, "parentDomain": {"href": "/mdr/cdashig/2-1/domains/CE", "title": "Clinical Events", "type": "CDASH Domain"}, "parentProduct": {"href": "/mdr/cdashig/2-1", "title": "Clinical Data Acquisition Standards Harmonization Implementation Guide for Human Clinical Trials Version 2.1", "type": "Implementation Guide"}, "priorVersion": {"href": "/mdr/cdashig/2-0/domains/CE/fields/CEHLGT", "title": "Clinical Event High Level Group Term", "type": "Data Collection Field"}, "rootItem": {"href": "/mdr/root/cdashig/domains/CE/fields/CEHLGT", "title": "Version-agnostic anchor element for field CE.CEHLGT", "type": "Root Data Element"}, "self": {"href": "/mdr/cdashig/2-1/domains/CE/fields/CEHLGT", "title": "Clinical Event High Level Group Term", "type": "Data Collection Field"}}, "core": "O", "definition": "MedDRA text description of the High Level Group Term from the primary path.", "implementationNotes": "This field does not typically appear on the CRF. Sponsors will populate this through the coding process. This is applicable to items using MedDRA coding.", "label": "Clinical Event High Level Group Term", "mappingInstructions": "Maps directly to the SDTMIG variable listed in the column with the heading SDTMIG Target. The sponsor is expected to provide the dictionary name and version used to code utilizing the Define-XML external codelist attributes. Sponsors should include an Origin in the define metadata document to indicate that the data was \"ASSIGNED\".", "name": "CEHLGT", "ordinal": "30", "simpleDatatype": "Char"}, {"_links": {"implements": {"href": "/mdr/cdash/1-1/classes/Events/fields/--HLGTCD", "title": "High Level Group Term Code", "type": "Class Variable"}, "parentDomain": {"href": "/mdr/cdashig/2-1/domains/CE", "title": "Clinical Events", "type": "CDASH Domain"}, "parentProduct": {"href": "/mdr/cdashig/2-1", "title": "Clinical Data Acquisition Standards Harmonization Implementation Guide for Human Clinical Trials Version 2.1", "type": "Implementation Guide"}, "priorVersion": {"href": "/mdr/cdashig/2-0/domains/CE/fields/CEHLGTCD", "title": "Clinical Event High Level Group Term Code", "type": "Data Collection Field"}, "rootItem": {"href": "/mdr/root/cdashig/domains/CE/fields/CEHLGTCD", "title": "Version-agnostic anchor element for field CE.CEHLGTCD", "type": "Root Data Element"}, "self": {"href": "/mdr/cdashig/2-1/domains/CE/fields/CEHLGTCD", "title": "CE High Level Group Term Code", "type": "Data Collection Field"}}, "core": "O", "definition": "MedDRA High Level Group Term code from the primary path.", "implementationNotes": "This field does not typically appear on the CRF. Sponsors will populate this through the coding process. This is applicable to items using MedDRA coding.", "label": "CE High Level Group Term Code", "mappingInstructions": "Maps directly to the SDTMIG variable listed in the column with the heading SDTMIG Target. The sponsor is expected to provide the dictionary name and version used to code utilizing the Define-XML external codelist attributes. Sponsors should include an Origin in the define metadata document to indicate that the data was \"ASSIGNED\".", "name": "CEHLGTCD", "ordinal": "31", "simpleDatatype": "Num"}, {"_links": {"implements": {"href": "/mdr/cdash/1-1/classes/Events/fields/--SOC", "title": "Primary System Organ Class", "type": "Class Variable"}, "parentDomain": {"href": "/mdr/cdashig/2-1/domains/CE", "title": "Clinical Events", "type": "CDASH Domain"}, "parentProduct": {"href": "/mdr/cdashig/2-1", "title": "Clinical Data Acquisition Standards Harmonization Implementation Guide for Human Clinical Trials Version 2.1", "type": "Implementation Guide"}, "priorVersion": {"href": "/mdr/cdashig/2-0/domains/CE/fields/CESOC", "title": "Clinical Event Primary System Organ Class", "type": "Data Collection Field"}, "rootItem": {"href": "/mdr/root/cdashig/domains/CE/fields/CESOC", "title": "Version-agnostic anchor element for field CE.CESOC", "type": "Root Data Element"}, "self": {"href": "/mdr/cdashig/2-1/domains/CE/fields/CESOC", "title": "CE Primary System Organ Class", "type": "Data Collection Field"}}, "core": "O", "definition": "MedDRA Primary System Organ Class description associated with the event.", "implementationNotes": "This field does not typically appear on the CRF. Sponsors will populate this through the coding process. This is applicable to items using MedDRA coding.", "label": "CE Primary System Organ Class", "mappingInstructions": "Maps directly to the SDTMIG variable listed in the column with the heading SDTMIG Target. The sponsor is expected to provide the dictionary name and version used to code utilizing the Define-XML external codelist attributes. Sponsors should include an Origin in the define metadata document to indicate that the data was \"ASSIGNED\".", "name": "CESOC", "ordinal": "32", "simpleDatatype": "Char"}, {"_links": {"implements": {"href": "/mdr/cdash/1-1/classes/Events/fields/--SOCCD", "title": "Primary System Organ Class Code", "type": "Class Variable"}, "parentDomain": {"href": "/mdr/cdashig/2-1/domains/CE", "title": "Clinical Events", "type": "CDASH Domain"}, "parentProduct": {"href": "/mdr/cdashig/2-1", "title": "Clinical Data Acquisition Standards Harmonization Implementation Guide for Human Clinical Trials Version 2.1", "type": "Implementation Guide"}, "priorVersion": {"href": "/mdr/cdashig/2-0/domains/CE/fields/CESOCCD", "title": "Clinical Event Primary System Organ Class Code", "type": "Data Collection Field"}, "rootItem": {"href": "/mdr/root/cdashig/domains/CE/fields/CESOCCD", "title": "Version-agnostic anchor element for field CE.CESOCCD", "type": "Root Data Element"}, "self": {"href": "/mdr/cdashig/2-1/domains/CE/fields/CESOCCD", "title": "CE Primary System Organ Class Code", "type": "Data Collection Field"}}, "core": "O", "definition": "MedDRA code for the primary System Organ Class.", "implementationNotes": "This field does not typically appear on the CRF. Sponsors will populate this through the coding process. This is applicable to items using MedDRA coding.", "label": "CE Primary System Organ Class Code", "mappingInstructions": "Maps directly to the SDTMIG variable listed in the column with the heading SDTMIG Target. The sponsor is expected to provide the dictionary name and version used to code utilizing the Define-XML external codelist attributes. Sponsors should include an Origin in the define metadata document to indicate that the data was \"ASSIGNED\".", "name": "CESOCCD", "ordinal": "33", "simpleDatatype": "Num"}], "label": "Clinical Events", "name": "CE", "ordinal": "2"}
