{"_links": {"parentClass": {"href": "/mdr/cdashig/2-1/classes/Interventions", "title": "Interventions", "type": "Class"}, "parentProduct": {"href": "/mdr/cdashig/2-1", "title": "Clinical Data Acquisition Standards Harmonization Implementation Guide for Human Clinical Trials Version 2.1", "type": "Implementation Guide"}, "priorVersion": {"href": "/mdr/cdashig/2-0/domains/CM", "title": "Concomitant Medications", "type": "CDASH Domain"}, "self": {"href": "/mdr/cdashig/2-1/domains/CM", "title": "Concomitant Medications", "type": "CDASH Domain"}}, "fields": [{"_links": {"implements": {"href": "/mdr/cdash/1-1/classes/Identifiers/fields/STUDYID", "title": "Study Identifier", "type": "Class Variable"}, "parentDomain": {"href": "/mdr/cdashig/2-1/domains/CM", "title": "Concomitant Medications", "type": "CDASH Domain"}, "parentProduct": {"href": "/mdr/cdashig/2-1", "title": "Clinical Data Acquisition Standards Harmonization Implementation Guide for Human Clinical Trials Version 2.1", "type": "Implementation Guide"}, "priorVersion": {"href": "/mdr/cdashig/2-0/domains/CM/fields/STUDYID", "title": "Study Identifier", "type": "Data Collection Field"}, "rootItem": {"href": "/mdr/root/cdashig/domains/CM/fields/STUDYID", "title": "Version-agnostic anchor element for field CM.STUDYID", "type": "Root Data Element"}, "sdtmigDatasetMappingTargets": [{"href": "/mdr/sdtmig/3-2/datasets/CM/variables/STUDYID", "title": "Study Identifier", "type": "SDTM Dataset Variable"}], "self": {"href": "/mdr/cdashig/2-1/domains/CM/fields/STUDYID", "title": "Study Identifier", "type": "Data Collection Field"}}, "core": "HR", "definition": "A unique identifier for a study.", "implementationNotes": "While this field is not typically captured on a CRF, it should be displayed clearly on the CRF and/or the EDC system. This field can be included into the database or populated during SDTM-based dataset creation before submission.", "label": "Study Identifier", "mappingInstructions": "Maps directly to the SDTMIG variable listed in the column with the heading \"SDTMIG Target\".", "name": "STUDYID", "ordinal": "1", "prompt": "[Protocol/Study]", "questionText": "What is the study identifier?", "simpleDatatype": "Char"}, {"_links": {"implements": {"href": "/mdr/cdash/1-1/classes/Identifiers/fields/SITEID", "title": "Study Site Identifier", "type": "Class Variable"}, "parentDomain": {"href": "/mdr/cdashig/2-1/domains/CM", "title": "Concomitant Medications", "type": "CDASH Domain"}, "parentProduct": {"href": "/mdr/cdashig/2-1", "title": "Clinical Data Acquisition Standards Harmonization Implementation Guide for Human Clinical Trials Version 2.1", "type": "Implementation Guide"}, "priorVersion": {"href": "/mdr/cdashig/2-0/domains/CM/fields/SITEID", "title": "Study Site Identifier", "type": "Data Collection Field"}, "rootItem": {"href": "/mdr/root/cdashig/domains/CM/fields/SITEID", "title": "Version-agnostic anchor element for field CM.SITEID", "type": "Root Data Element"}, "sdtmigDatasetMappingTargets": [{"href": "/mdr/sdtmig/3-2/datasets/DM/variables/SITEID", "title": "Study Site Identifier", "type": "SDTM Dataset Variable"}], "self": {"href": "/mdr/cdashig/2-1/domains/CM/fields/SITEID", "title": "Study Site Identifier", "type": "Data Collection Field"}}, "core": "HR", "definition": "A unique identifier for a site within a study.", "implementationNotes": "Paper: This is typically preprinted in the header of each CRF page for single site studies. For studies with multiple sites, this field may be left blank so that the number can be recorded by the site, or it may be preprinted on CRFs that are shipped to each site. EDC: This should be prepopulated.", "label": "Study Site Identifier", "mappingInstructions": "Maps directly to the SDTMIG variable listed in the column with the heading \"SDTMIG Target\".", "name": "SITEID", "ordinal": "2", "prompt": "Site (Identifier)", "questionText": "What is the site identifier?", "simpleDatatype": "Char"}, {"_links": {"implements": {"href": "/mdr/cdash/1-1/classes/Identifiers/fields/SUBJID", "title": "Subject Identifier for the Study", "type": "Class Variable"}, "parentDomain": {"href": "/mdr/cdashig/2-1/domains/CM", "title": "Concomitant Medications", "type": "CDASH Domain"}, "parentProduct": {"href": "/mdr/cdashig/2-1", "title": "Clinical Data Acquisition Standards Harmonization Implementation Guide for Human Clinical Trials Version 2.1", "type": "Implementation Guide"}, "priorVersion": {"href": "/mdr/cdashig/2-0/domains/CM/fields/SUBJID", "title": "Subject Identifier for the Study", "type": "Data Collection Field"}, "rootItem": {"href": "/mdr/root/cdashig/domains/CM/fields/SUBJID", "title": "Version-agnostic anchor element for field CM.SUBJID", "type": "Root Data Element"}, "sdtmigDatasetMappingTargets": [{"href": "/mdr/sdtmig/3-2/datasets/DM/variables/SUBJID", "title": "Subject Identifier for the Study", "type": "SDTM Dataset Variable"}], "self": {"href": "/mdr/cdashig/2-1/domains/CM/fields/SUBJID", "title": "Subject Identifier for the Study", "type": "Data Collection Field"}}, "completionInstructions": "Record the identifier for the subject.", "core": "HR", "definition": "A unique subject identifier within a site and a study.", "implementationNotes": "Paper: This is typically recorded in the header of each CRF page. EDC: The subject identifiers may be system generated. This CDASH variable is typically collected in all CDASH domains. However, this CDASH variable is populated only in the SDTMIG DM domain. For more information, refer to the SDTM Implementation Guide.", "label": "Subject Identifier for the Study", "mappingInstructions": "Maps directly to the SDTMIG variable listed in the column with the heading \"SDTMIG Target\".", "name": "SUBJID", "ordinal": "3", "prompt": "[Subject/Participant] (Identifier)", "questionText": "What [is/was] the (study) [subject/participant] identifier?", "simpleDatatype": "Char"}, {"_links": {"implements": {"href": "/mdr/cdash/1-1/classes/Interventions/fields/--CAT", "title": "Category", "type": "Class Variable"}, "parentDomain": {"href": "/mdr/cdashig/2-1/domains/CM", "title": "Concomitant Medications", "type": "CDASH Domain"}, "parentProduct": {"href": "/mdr/cdashig/2-1", "title": "Clinical Data Acquisition Standards Harmonization Implementation Guide for Human Clinical Trials Version 2.1", "type": "Implementation Guide"}, "priorVersion": {"href": "/mdr/cdashig/2-0/domains/CM/fields/CMCAT", "title": "Category for Concomitant Medication", "type": "Data Collection Field"}, "rootItem": {"href": "/mdr/root/cdashig/domains/CM/fields/CMCAT", "title": "Version-agnostic anchor element for field CM.CMCAT", "type": "Root Data Element"}, "sdtmigDatasetMappingTargets": [{"href": "/mdr/sdtmig/3-2/datasets/CM/variables/CMCAT", "title": "Category for Medication", "type": "SDTM Dataset Variable"}], "self": {"href": "/mdr/cdashig/2-1/domains/CM/fields/CMCAT", "title": "Category for Medication", "type": "Data Collection Field"}}, "completionInstructions": "Record the (concomitant) [medication/treatment/therapy] category, if not pre-printed on the CRF.", "core": "O", "definition": "A grouping of topic-variable values based on user-defined characteristics.", "implementationNotes": "Sponsor-defined controlled terminology. This would most commonly be either a heading, or a preprinted category value on the CRF and not a question to which the site would provide an answer. If a question is asked, the response would typically be a sponsor-defined codelist. If the form is laid out as a grid, then words such as \"Category\" can be included as the column header.", "label": "Category for Medication", "mappingInstructions": "Maps directly to the SDTMIG variable listed in the column with the heading \"SDTMIG Target\".", "name": "CMCAT", "ordinal": "4", "prompt": "(Concomitant) [Medication/Treatment/Therapy Category]; NULL", "questionText": "What is the category for the (concomitant) [medication/treatment/therapy]?", "simpleDatatype": "Char"}, {"_links": {"implements": {"href": "/mdr/cdash/1-1/classes/Interventions/fields/--SCAT", "title": "Subcategory", "type": "Class Variable"}, "parentDomain": {"href": "/mdr/cdashig/2-1/domains/CM", "title": "Concomitant Medications", "type": "CDASH Domain"}, "parentProduct": {"href": "/mdr/cdashig/2-1", "title": "Clinical Data Acquisition Standards Harmonization Implementation Guide for Human Clinical Trials Version 2.1", "type": "Implementation Guide"}, "priorVersion": {"href": "/mdr/cdashig/2-0/domains/CM/fields/CMSCAT", "title": "Subcategory for Concomitant Medication", "type": "Data Collection Field"}, "rootItem": {"href": "/mdr/root/cdashig/domains/CM/fields/CMSCAT", "title": "Version-agnostic anchor element for field CM.CMSCAT", "type": "Root Data Element"}, "sdtmigDatasetMappingTargets": [{"href": "/mdr/sdtmig/3-2/datasets/CM/variables/CMSCAT", "title": "Subcategory for Medication", "type": "SDTM Dataset Variable"}], "self": {"href": "/mdr/cdashig/2-1/domains/CM/fields/CMSCAT", "title": "Subcategory for Medication", "type": "Data Collection Field"}}, "completionInstructions": "Record (concomitant) [medication/treatment/therapy] subcategory, if not pre-printed on the CRF.", "core": "O", "definition": "A sub-division of the CMCAT values based on user-defined characteristics.", "implementationNotes": "Sponsor-defined controlled terminology. This would most commonly be pre-printed on the CRF or screen and prepopulated in the data management system. This is not typically a question to which the site would provide an answer.", "label": "Subcategory for Medication", "mappingInstructions": "Maps directly to the SDTMIG variable listed in the column with the heading \"SDTMIG Target\".", "name": "CMSCAT", "ordinal": "5", "prompt": "(Concomitant) [Medication/Treatment/Therapy subcategory]; NULL", "questionText": "What is the subcategory for the (concomitant) [medication/treatment/therapy]?", "simpleDatatype": "Char"}, {"_links": {"codelist": [{"href": "/mdr/root/ct/sdtmct/codelists/C66742", "title": "Version-agnostic anchor resource for codelist C66742", "type": "Root Value Domain"}], "implements": {"href": "/mdr/cdash/1-1/classes/Interventions/fields/--YN", "title": "Any [Intervention]", "type": "Class Variable"}, "parentDomain": {"href": "/mdr/cdashig/2-1/domains/CM", "title": "Concomitant Medications", "type": "CDASH Domain"}, "parentProduct": {"href": "/mdr/cdashig/2-1", "title": "Clinical Data Acquisition Standards Harmonization Implementation Guide for Human Clinical Trials Version 2.1", "type": "Implementation Guide"}, "priorVersion": {"href": "/mdr/cdashig/2-0/domains/CM/fields/CMYN", "title": "Any Concomitant Medications Taken", "type": "Data Collection Field"}, "rootItem": {"href": "/mdr/root/cdashig/domains/CM/fields/CMYN", "title": "Version-agnostic anchor element for field CM.CMYN", "type": "Root Data Element"}, "self": {"href": "/mdr/cdashig/2-1/domains/CM/fields/CMYN", "title": "Any Concomitant Medications Taken", "type": "Data Collection Field"}}, "completionInstructions": "Indicate if the subject took any (concomitant) [medications/treatments]. If Yes, include the appropriate details where indicated on the CRF.", "core": "O", "definition": "An indication whether or not any (concomitant) medications/treatments/therapies were taken/given.", "implementationNotes": "The intent/purpose of collecting this field is to help with data cleaning and monitoring. It provides verification that all other fields on the CRF were deliberately left blank.", "label": "Any Concomitant Medications Taken", "mappingInstructions": "Does not map to an SDTMIG variable. The SDTM Annotated CRF is annotated to indicate that this field is NOT SUBMITTED.", "name": "CMYN", "ordinal": "6", "prompt": "Any (Concomitant) [Medication(s)/Treatment(s)/Therapy(ies)]", "questionText": "Were/Was any (concomitant) [medication(s)/treatment(s)/therapy(ies)] taken?", "simpleDatatype": "Char"}, {"_links": {"implements": {"href": "/mdr/cdash/1-1/classes/Identifiers/fields/--SPID", "title": "Sponsor-Defined Identifier", "type": "Class Variable"}, "parentDomain": {"href": "/mdr/cdashig/2-1/domains/CM", "title": "Concomitant Medications", "type": "CDASH Domain"}, "parentProduct": {"href": "/mdr/cdashig/2-1", "title": "Clinical Data Acquisition Standards Harmonization Implementation Guide for Human Clinical Trials Version 2.1", "type": "Implementation Guide"}, "priorVersion": {"href": "/mdr/cdashig/2-0/domains/CM/fields/CMSPID", "title": "Concomitant Meds Sponsor-Defined Identifier", "type": "Data Collection Field"}, "rootItem": {"href": "/mdr/root/cdashig/domains/CM/fields/CMSPID", "title": "Version-agnostic anchor element for field CM.CMSPID", "type": "Root Data Element"}, "sdtmigDatasetMappingTargets": [{"href": "/mdr/sdtmig/3-2/datasets/CM/variables/CMSPID", "title": "Sponsor-Defined Identifier", "type": "SDTM Dataset Variable"}], "self": {"href": "/mdr/cdashig/2-1/domains/CM/fields/CMSPID", "title": "CM Sponsor-Defined Identifier", "type": "Data Collection Field"}}, "completionInstructions": "If collected on the CRF, sponsor may insert instructions to ensure each record has a unique identifier.", "core": "O", "definition": "A sponsor-defined identifier. In CDASH, This is typically used for preprinted or auto-generated numbers on the CRF, or any other type of identifier that does not already have a defined CDASH identifier field.", "implementationNotes": "Because SPID is a sponsor-defined identifier, conformance to Question Text or Item Prompt is not applicable. Typically used as an identifier in a data query to communicate clearly to the site the specific record in question or to reconcile concomitant medication/treatment records with AEs and/or MH. May be used to record preprinted number (e.g. line number, record number) on the CRF. This field may be populated by the sponsor's data collection system.", "label": "CM Sponsor-Defined Identifier", "mappingInstructions": "Maps directly to the SDTMIG variable listed in the column with the heading \"SDTMIG Target\". May be used to create RELREC to link this record with a record in another domain.", "name": "CMSPID", "ordinal": "7", "prompt": "[Sponsor defined]", "questionText": "[Sponsor-defined question]", "simpleDatatype": "Char"}, {"_links": {"implements": {"href": "/mdr/cdash/1-1/classes/Interventions/fields/--TRT", "title": "Name of Treatment", "type": "Class Variable"}, "parentDomain": {"href": "/mdr/cdashig/2-1/domains/CM", "title": "Concomitant Medications", "type": "CDASH Domain"}, "parentProduct": {"href": "/mdr/cdashig/2-1", "title": "Clinical Data Acquisition Standards Harmonization Implementation Guide for Human Clinical Trials Version 2.1", "type": "Implementation Guide"}, "priorVersion": {"href": "/mdr/cdashig/2-0/domains/CM/fields/CMTRT", "title": "Concomitant Medication Name", "type": "Data Collection Field"}, "rootItem": {"href": "/mdr/root/cdashig/domains/CM/fields/CMTRT", "title": "Version-agnostic anchor element for field CM.CMTRT", "type": "Root Data Element"}, "sdtmigDatasetMappingTargets": [{"href": "/mdr/sdtmig/3-2/datasets/CM/variables/CMTRT", "title": "Reported Name of Drug, Med, or Therapy", "type": "SDTM Dataset Variable"}], "self": {"href": "/mdr/cdashig/2-1/domains/CM/fields/CMTRT", "title": "Reported Name of Drug, Med, or Therapy", "type": "Data Collection Field"}}, "completionInstructions": "Record only 1 [medication/treatment/therapy] per line. Provide the full trade or proprietary name of the [medication/treatment/therapy]; otherwise the generic name may be recorded.", "core": "HR", "definition": "Verbatim medication name or treatments (include only treatments with data collection characteristics similar to medications).", "implementationNotes": "In most cases, the verbatim drug names or treatment will be coded to a standard dictionary such as WHODrug after the data have been collected on the CRF. For the collection of verbatim drug name or treatments, the recommendation is to ask sites to provide the full trade or proprietary name since it is more exact than the generic. The full trade name provides the base generic and the appropriate salt for that particular drug. In addition, for coding purposes it helps with ATC selection. For example, Tylenol with codeine #1 has a different ATC code than Tylenol with codeine #3. This field can be used for either prior or concomitant medication/treatments.", "label": "Reported Name of Drug, Med, or Therapy", "mappingInstructions": "Maps directly to the SDTMIG variable listed in the column with the heading \"SDTMIG Target\".", "name": "CMTRT", "ordinal": "8", "prompt": "(Concomitant) [Medication/Treatment/Therapy]", "questionText": "What was the (concomitant) [medication/treatment/therapy] (name/term)?", "simpleDatatype": "Char"}, {"_links": {"codelist": [{"href": "/mdr/root/ct/sdtmct/codelists/C66742", "title": "Version-agnostic anchor resource for codelist C66742", "type": "Root Value Domain"}], "implements": {"href": "/mdr/cdash/1-1/classes/Interventions/fields/--PRESP", "title": "Pre-Specified Intervention", "type": "Class Variable"}, "parentDomain": {"href": "/mdr/cdashig/2-1/domains/CM", "title": "Concomitant Medications", "type": "CDASH Domain"}, "parentProduct": {"href": "/mdr/cdashig/2-1", "title": "Clinical Data Acquisition Standards Harmonization Implementation Guide for Human Clinical Trials Version 2.1", "type": "Implementation Guide"}, "rootItem": {"href": "/mdr/root/cdashig/domains/CM/fields/CMPRESP", "title": "Version-agnostic anchor element for field CM.CMPRESP", "type": "Root Data Element"}, "sdtmigDatasetMappingTargets": [{"href": "/mdr/sdtmig/3-2/datasets/CM/variables/CMPRESP", "title": "CM Pre-Specified", "type": "SDTM Dataset Variable"}], "self": {"href": "/mdr/cdashig/2-1/domains/CM/fields/CMPRESP", "title": "CM Pre-Specified", "type": "Data Collection Field"}}, "core": "O", "definition": "An indication that a specific intervention or a group of interventions is prespecified on a CRF.", "implementationNotes": "For prespecified interventions, a hidden field on a CRF defaulted to \"Y\", or added during the SDTM dataset creation. If a study collects both prespecified interventions as well as free-text interventions, the value of CMPRESP should be \"Y\" for all prespecified interventions and null for interventions reported as free text.", "label": "CM Pre-Specified", "mappingInstructions": "Maps directly to the SDTMIG variable listed in the column with the heading \"SDTMIG Target\".", "name": "CMPRESP", "ordinal": "9", "simpleDatatype": "Char"}, {"_links": {"codelist": [{"href": "/mdr/root/ct/sdtmct/codelists/C66742", "title": "Version-agnostic anchor resource for codelist C66742", "type": "Root Value Domain"}], "implements": {"href": "/mdr/cdash/1-1/classes/Interventions/fields/--OCCUR", "title": "Occurrence", "type": "Class Variable"}, "parentDomain": {"href": "/mdr/cdashig/2-1/domains/CM", "title": "Concomitant Medications", "type": "CDASH Domain"}, "parentProduct": {"href": "/mdr/cdashig/2-1", "title": "Clinical Data Acquisition Standards Harmonization Implementation Guide for Human Clinical Trials Version 2.1", "type": "Implementation Guide"}, "priorVersion": {"href": "/mdr/cdashig/2-0/domains/CM/fields/CMOCCUR", "title": "Concomitant Meds Occurrence", "type": "Data Collection Field"}, "rootItem": {"href": "/mdr/root/cdashig/domains/CM/fields/CMOCCUR", "title": "Version-agnostic anchor element for field CM.CMOCCUR", "type": "Root Data Element"}, "sdtmigDatasetMappingTargets": [{"href": "/mdr/sdtmig/3-2/datasets/CM/variables/CMOCCUR", "title": "CM Occurrence", "type": "SDTM Dataset Variable"}], "self": {"href": "/mdr/cdashig/2-1/domains/CM/fields/CMOCCUR", "title": "CM Occurrence", "type": "Data Collection Field"}}, "completionInstructions": "Indicate if [specific medication/treatment] was taken by checking Yes or No.", "core": "O", "definition": "An indication whether the prespecified medication/treatment/therapy (CMTRT) or the group of medications/treatments/therapies was administered when information about the occurrence of a specific intervention is solicited.", "implementationNotes": "CMOCCUR is used to report the occurrence of a prespecific medication/treatment. CMOCCUR is not used for spontaneously free text reported concomitant medication/treatments. The site should be able to indicate that the response was not asked or answered.", "label": "CM Occurrence", "mappingInstructions": "Maps directly to the SDTMIG variable listed in the column with the heading \"SDTMIG Target\". If the response was not asked or answered, populate the SDTMIG variable CMSTAT with \"NOT DONE\".", "name": "CMOCCUR", "ordinal": "10", "prompt": "[Specific (Concomitant) [Medication/Treatment/Therapy]", "questionText": "Did the subject take [prespecified (concomitant) medication/treatment/therapy/dose]?; Has the subject taken [prespecified (concomitant) medication/treatment/therapy/dose]?", "simpleDatatype": "Char"}, {"_links": {"implements": {"href": "/mdr/cdash/1-1/classes/Interventions/fields/--INGRD", "title": "Active Ingredients", "type": "Class Variable"}, "parentDomain": {"href": "/mdr/cdashig/2-1/domains/CM", "title": "Concomitant Medications", "type": "CDASH Domain"}, "parentProduct": {"href": "/mdr/cdashig/2-1", "title": "Clinical Data Acquisition Standards Harmonization Implementation Guide for Human Clinical Trials Version 2.1", "type": "Implementation Guide"}, "priorVersion": {"href": "/mdr/cdashig/2-0/domains/CM/fields/CMINGRD", "title": "Concomitant Meds Active Ingredients", "type": "Data Collection Field"}, "rootItem": {"href": "/mdr/root/cdashig/domains/CM/fields/CMINGRD", "title": "Version-agnostic anchor element for field CM.CMINGRD", "type": "Root Data Element"}, "self": {"href": "/mdr/cdashig/2-1/domains/CM/fields/CMINGRD", "title": "Concomitant Meds Active Ingredients", "type": "Data Collection Field"}}, "completionInstructions": "Prior to a subject's clinical visit, remind all subjects to bring all medications bottles, packs etc. they are taking with them to their clinical visit. Record all active ingredient(s) off the medication label and separate each ingredient with a comma for the name of drug medication or treatment taken. For example, the medication Dolmen, if manufactured in Spain, the active ingredients should be collected as noted below: Active Ingredient: Acetylsalicylic Acid, Ascorbic acid, codeine phosphate.", "core": "O", "definition": "Medication Ingredients.", "implementationNotes": "This may be collected in addition to the Medication/Treatment Name. Collecting this provides more detailed information when coding to a medication dictionary like WHODrug Dictionary Enhanced Format C, which now codes to the ingredient level for many trade-named medications. For example, depending on the country where it is manufactured, the active ingredients in the medication Dolmen may be different: In Spain, Acetylsalicylic Acid, Ascorbic acid, codeine phosphate; in Italy and Czech Republic, contains Tenoxicam; in Estonia and Latvia, contains Dexketoprofen trometamol.", "label": "Concomitant Meds Active Ingredients", "mappingInstructions": "Does not map to an SDTMIG variable. The SDTM Annotated CRF is annotated to indicate that this field is NOT SUBMITTED.", "name": "CMINGRD", "ordinal": "11", "prompt": "Active Ingredients", "questionText": "What were the active ingredients?", "simpleDatatype": "Char"}, {"_links": {"implements": {"href": "/mdr/cdash/1-1/classes/Interventions/fields/--INDC", "title": "Indication", "type": "Class Variable"}, "parentDomain": {"href": "/mdr/cdashig/2-1/domains/CM", "title": "Concomitant Medications", "type": "CDASH Domain"}, "parentProduct": {"href": "/mdr/cdashig/2-1", "title": "Clinical Data Acquisition Standards Harmonization Implementation Guide for Human Clinical Trials Version 2.1", "type": "Implementation Guide"}, "priorVersion": {"href": "/mdr/cdashig/2-0/domains/CM/fields/CMINDC", "title": "Concomitant Meds Indication", "type": "Data Collection Field"}, "rootItem": {"href": "/mdr/root/cdashig/domains/CM/fields/CMINDC", "title": "Version-agnostic anchor element for field CM.CMINDC", "type": "Root Data Element"}, "sdtmigDatasetMappingTargets": [{"href": "/mdr/sdtmig/3-2/datasets/CM/variables/CMINDC", "title": "Indication", "type": "SDTM Dataset Variable"}], "self": {"href": "/mdr/cdashig/2-1/domains/CM/fields/CMINDC", "title": "CM Indication", "type": "Data Collection Field"}}, "completionInstructions": "Record the reason the medication was taken based on clinical investigator's evaluation. If taken to treat a condition, and a diagnosis was made, the indication should be the diagnosis. If taken to treat a condition, and no diagnosis was made, the indication should be the signs and symptoms. If taken as prophylaxis, report as \"Prophylaxis for \" and include a description of the condition(s).", "core": "R/C", "definition": "The condition, disease, symptom, or disorder that the concomitant (non-study) medication/treatment/therapy was used to address or investigate (e.g., why the medication/treatment/therapy was taken or administered).", "implementationNotes": "This is not the pharmacological/therapeutic classification of an agent (e.g., antibiotic, analgesic), but the reason for its administration to the subject. This additional information is collected on the CRF when sponsors want to capture the reason(s) why a subject took a medication/treatment. This information could be used as deemed appropriate for coding, analysis (e.g., in the classification of medications), for reconciling the medications/treatments taken by a subject with provided medical history, and/or AEs/SAEs as part of the data clean-up and monitoring process.", "label": "CM Indication", "mappingInstructions": "Maps directly to the SDTMIG variable listed in the column with the heading \"SDTMIG Target\".", "name": "CMINDC", "ordinal": "12", "prompt": "Indication", "questionText": "For what indication was the (concomitant) [medication/treatment/therapy] taken?", "simpleDatatype": "Char"}, {"_links": {"implements": {"href": "/mdr/cdash/1-1/classes/Identifiers/fields/--AENO", "title": "Related Adverse Event ID", "type": "Class Variable"}, "parentDomain": {"href": "/mdr/cdashig/2-1/domains/CM", "title": "Concomitant Medications", "type": "CDASH Domain"}, "parentProduct": {"href": "/mdr/cdashig/2-1", "title": "Clinical Data Acquisition Standards Harmonization Implementation Guide for Human Clinical Trials Version 2.1", "type": "Implementation Guide"}, "priorVersion": {"href": "/mdr/cdashig/2-0/domains/CM/fields/CMAENO", "title": "Related Adverse Event ID", "type": "Data Collection Field"}, "rootItem": {"href": "/mdr/root/cdashig/domains/CM/fields/CMAENO", "title": "Version-agnostic anchor element for field CM.CMAENO", "type": "Root Data Element"}, "self": {"href": "/mdr/cdashig/2-1/domains/CM/fields/CMAENO", "title": "Related Adverse Event ID", "type": "Data Collection Field"}}, "completionInstructions": "Record the identifier of the Adverse Event for which this (concomitant) [medication/treatment/therapy] was taken.", "core": "O", "definition": "Identifier for the adverse event that is the indication for this medication/treatment/therapy.", "implementationNotes": "Intent is to establish a link between the medication/treatment and the AE that was reported. CMAENO can be used to identify a relationship between records in CM dataset and records in the AE dataset. See SDTMIG v3.2 Section 8.2 for information on RELREC.", "label": "Related Adverse Event ID", "mappingInstructions": "This does not map directly to an SDTMIG variable. For the SDTM submission datasets, may be used to create RELREC to link this record with a record in the Adverse Events domain.", "name": "CMAENO", "ordinal": "13", "prompt": "Adverse Event Identifier", "questionText": "What was the identifier for the adverse event(s) for which the (concomitant) [medication/treatment/therapy] was taken?", "simpleDatatype": "Char"}, {"_links": {"implements": {"href": "/mdr/cdash/1-1/classes/Identifiers/fields/--MHNO", "title": "Related Medical History Event ID", "type": "Class Variable"}, "parentDomain": {"href": "/mdr/cdashig/2-1/domains/CM", "title": "Concomitant Medications", "type": "CDASH Domain"}, "parentProduct": {"href": "/mdr/cdashig/2-1", "title": "Clinical Data Acquisition Standards Harmonization Implementation Guide for Human Clinical Trials Version 2.1", "type": "Implementation Guide"}, "priorVersion": {"href": "/mdr/cdashig/2-0/domains/CM/fields/CMMHNO", "title": "Related Medical History Event ID", "type": "Data Collection Field"}, "rootItem": {"href": "/mdr/root/cdashig/domains/CM/fields/CMMHNO", "title": "Version-agnostic anchor element for field CM.CMMHNO", "type": "Root Data Element"}, "self": {"href": "/mdr/cdashig/2-1/domains/CM/fields/CMMHNO", "title": "Related Medical History Event ID", "type": "Data Collection Field"}}, "completionInstructions": "Record the identifier of the medical history event for which this (concomitant) [medication/treatment/therapy] was taken.", "core": "O", "definition": "Identifier for the medical history condition that is the indication for this medication/treatment/therapy.", "implementationNotes": "Intent is to establish a link between the medical history condition and the medication/treatment taken for the medical history condition. CMMHNO can be used to identify a relationship between records in the CM dataset and records in the MH dataset. See SDTMIG v3.2 Section 8.2 for information on RELREC.", "label": "Related Medical History Event ID", "mappingInstructions": "This does not map directly to an SDTMIG variable. For the SDTM submission datasets, may be used to create RELREC to link this record with a record in the Medical History domain.", "name": "CMMHNO", "ordinal": "14", "prompt": "Medical History Event Identifier", "questionText": "What was the identifier for the medical history event(s) for which the (concomitant) [medication/treatment/therapy] was taken?", "simpleDatatype": "Char"}, {"_links": {"implements": {"href": "/mdr/cdash/1-1/classes/Interventions/fields/--DOSE", "title": "Dose", "type": "Class Variable"}, "parentDomain": {"href": "/mdr/cdashig/2-1/domains/CM", "title": "Concomitant Medications", "type": "CDASH Domain"}, "parentProduct": {"href": "/mdr/cdashig/2-1", "title": "Clinical Data Acquisition Standards Harmonization Implementation Guide for Human Clinical Trials Version 2.1", "type": "Implementation Guide"}, "priorVersion": {"href": "/mdr/cdashig/2-0/domains/CM/fields/CMDOSE", "title": "Concomitant Meds Dose", "type": "Data Collection Field"}, "rootItem": {"href": "/mdr/root/cdashig/domains/CM/fields/CMDOSE", "title": "Version-agnostic anchor element for field CM.CMDOSE", "type": "Root Data Element"}, "sdtmigDatasetMappingTargets": [{"href": "/mdr/sdtmig/3-2/datasets/CM/variables/CMDOSE", "title": "Dose per Administration", "type": "SDTM Dataset Variable"}], "self": {"href": "/mdr/cdashig/2-1/domains/CM/fields/CMDOSE", "title": "CM Dose per Administration", "type": "Data Collection Field"}}, "completionInstructions": "Record the dose of (concomitant) [medication/treatment] taken per administration (e.g., 200).", "core": "O", "definition": "The dose of medication/treatment (e.g., --TRT ) given at one time represented as a numeric value.", "implementationNotes": "Used when the dose/amount taken/administered/consumed has only numeric entries. If non-numeric entries are possible, use the CDASH field CMDSTXT.", "label": "CM Dose per Administration", "mappingInstructions": "Maps directly to the SDTMIG variable listed in the column with the heading \"SDTMIG Target\".", "name": "CMDOSE", "ordinal": "15", "prompt": "[Dose/Amount] (per administration)", "questionText": "What was the individual dose (of the concomitant [medication/treatment/therapy] per administration)?", "simpleDatatype": "Num"}, {"_links": {"implements": {"href": "/mdr/cdash/1-1/classes/Interventions/fields/--DSTXT", "title": "Dose Description", "type": "Class Variable"}, "parentDomain": {"href": "/mdr/cdashig/2-1/domains/CM", "title": "Concomitant Medications", "type": "CDASH Domain"}, "parentProduct": {"href": "/mdr/cdashig/2-1", "title": "Clinical Data Acquisition Standards Harmonization Implementation Guide for Human Clinical Trials Version 2.1", "type": "Implementation Guide"}, "priorVersion": {"href": "/mdr/cdashig/2-0/domains/CM/fields/CMDSTXT", "title": "Concomitant Meds Dose Description", "type": "Data Collection Field"}, "rootItem": {"href": "/mdr/root/cdashig/domains/CM/fields/CMDSTXT", "title": "Version-agnostic anchor element for field CM.CMDSTXT", "type": "Root Data Element"}, "sdtmigDatasetMappingTargets": [{"href": "/mdr/sdtmig/3-2/datasets/CM/variables/CMDOSE", "title": "Dose per Administration", "type": "SDTM Dataset Variable"}, {"href": "/mdr/sdtmig/3-2/datasets/CM/variables/CMDOSTXT", "title": "Dose Description", "type": "SDTM Dataset Variable"}], "self": {"href": "/mdr/cdashig/2-1/domains/CM/fields/CMDSTXT", "title": "Concomitant Meds Dose Description", "type": "Data Collection Field"}}, "completionInstructions": "Record the dose of (concomitant) [medication/treatment] taken per administration (e.g., 200).", "core": "O", "definition": "The dose of medication/treatment taken per administration.", "implementationNotes": "Defining this data collection field as a dose text field allows for flexibility in capturing dose entries as numbers, text or ranges. The data collected in this dose text-format field should be separated or mapped to either SDTMIG CMDOSE if numeric or CMDOSTXT if text.", "label": "Concomitant Meds Dose Description", "mappingInstructions": "This does not map directly to an SDTMIG variable. Numeric values map to CMDOSE in SDTM. Non-numeric values (e.g., 200-400) map to CMDOSTXT in SDTM.", "name": "CMDSTXT", "ordinal": "16", "prompt": "Dose", "questionText": "What was the individual dose of the (concomitant) [medication/treatment/therapy]?", "simpleDatatype": "Char"}, {"_links": {"implements": {"href": "/mdr/cdash/1-1/classes/Interventions/fields/--DOSTOT", "title": "Total Daily Dose", "type": "Class Variable"}, "parentDomain": {"href": "/mdr/cdashig/2-1/domains/CM", "title": "Concomitant Medications", "type": "CDASH Domain"}, "parentProduct": {"href": "/mdr/cdashig/2-1", "title": "Clinical Data Acquisition Standards Harmonization Implementation Guide for Human Clinical Trials Version 2.1", "type": "Implementation Guide"}, "priorVersion": {"href": "/mdr/cdashig/2-0/domains/CM/fields/CMDOSTOT", "title": "Concomitant Meds Total Daily Dose", "type": "Data Collection Field"}, "rootItem": {"href": "/mdr/root/cdashig/domains/CM/fields/CMDOSTOT", "title": "Version-agnostic anchor element for field CM.CMDOSTOT", "type": "Root Data Element"}, "sdtmigDatasetMappingTargets": [{"href": "/mdr/sdtmig/3-2/datasets/CM/variables/CMDOSTOT", "title": "Total Daily Dose", "type": "SDTM Dataset Variable"}], "self": {"href": "/mdr/cdashig/2-1/domains/CM/fields/CMDOSTOT", "title": "CM Total Daily Dose", "type": "Data Collection Field"}}, "completionInstructions": "Record the total dose of (concomitant) [medication/treatment/therapy] taken daily.", "core": "O", "definition": "The total amount of CMTRT taken over a day using the units in CMDOSU.", "implementationNotes": "For use when only total daily dose is collected in the CRF. For general medications/treatments, it is not recommended to use Total Daily Dose. Instead, this can be calculated from other fields such as Units, Dose, and Frequency.", "label": "CM Total Daily Dose", "mappingInstructions": "Maps directly to the SDTMIG variable listed in the column with the heading \"SDTMIG Target\".", "name": "CMDOSTOT", "ordinal": "17", "prompt": "Total Daily Dose", "questionText": "What was the total daily dose of the (concomitant) [medication/treatment/therapy]?", "simpleDatatype": "Num"}, {"_links": {"codelist": [{"href": "/mdr/root/ct/sdtmct/codelists/C71620", "title": "Version-agnostic anchor resource for codelist C71620", "type": "Root Value Domain"}, {"href": "/mdr/root/ct/cdashct/codelists/C78417", "title": "Version-agnostic anchor resource for codelist C78417", "type": "Root Value Domain"}], "implements": {"href": "/mdr/cdash/1-1/classes/Interventions/fields/--DOSU", "title": "Dose Units", "type": "Class Variable"}, "parentDomain": {"href": "/mdr/cdashig/2-1/domains/CM", "title": "Concomitant Medications", "type": "CDASH Domain"}, "parentProduct": {"href": "/mdr/cdashig/2-1", "title": "Clinical Data Acquisition Standards Harmonization Implementation Guide for Human Clinical Trials Version 2.1", "type": "Implementation Guide"}, "priorVersion": {"href": "/mdr/cdashig/2-0/domains/CM/fields/CMDOSU", "title": "Concomitant Meds Dose Unit", "type": "Data Collection Field"}, "rootItem": {"href": "/mdr/root/cdashig/domains/CM/fields/CMDOSU", "title": "Version-agnostic anchor element for field CM.CMDOSU", "type": "Root Data Element"}, "sdtmigDatasetMappingTargets": [{"href": "/mdr/sdtmig/3-2/datasets/CM/variables/CMDOSU", "title": "Dose Units", "type": "SDTM Dataset Variable"}], "self": {"href": "/mdr/cdashig/2-1/domains/CM/fields/CMDOSU", "title": "CM Dose Units", "type": "Data Collection Field"}}, "completionInstructions": "Record the dose unit of the dose of concomitant [medication/treatment/therapy] taken (e.g., mg.).", "core": "R/C", "definition": "The unit associated with the concomitant medication/treatment/therapy taken (e.g., mg in \"2 mg 3 times per day\").", "implementationNotes": "When sponsors collect data for amount of dose taken (i.e., Dose, Total Daily Dose), Unit must be collected as well (if applicable).", "label": "CM Dose Units", "mappingInstructions": "Maps directly to the SDTMIG variable listed in the column with the heading \"SDTMIG Target\".", "name": "CMDOSU", "ordinal": "18", "prompt": "(Dose) Unit", "questionText": "What is the unit (for the dose of concomitant [medication/treatment/therapy])?", "simpleDatatype": "Char"}, {"_links": {"codelist": [{"href": "/mdr/root/ct/sdtmct/codelists/C66726", "title": "Version-agnostic anchor resource for codelist C66726", "type": "Root Value Domain"}, {"href": "/mdr/root/ct/cdashct/codelists/C78418", "title": "Version-agnostic anchor resource for codelist C78418", "type": "Root Value Domain"}], "implements": {"href": "/mdr/cdash/1-1/classes/Interventions/fields/--DOSFRM", "title": "Dose Form", "type": "Class Variable"}, "parentDomain": {"href": "/mdr/cdashig/2-1/domains/CM", "title": "Concomitant Medications", "type": "CDASH Domain"}, "parentProduct": {"href": "/mdr/cdashig/2-1", "title": "Clinical Data Acquisition Standards Harmonization Implementation Guide for Human Clinical Trials Version 2.1", "type": "Implementation Guide"}, "priorVersion": {"href": "/mdr/cdashig/2-0/domains/CM/fields/CMDOSFRM", "title": "Concomitant Meds Dose Form", "type": "Data Collection Field"}, "rootItem": {"href": "/mdr/root/cdashig/domains/CM/fields/CMDOSFRM", "title": "Version-agnostic anchor element for field CM.CMDOSFRM", "type": "Root Data Element"}, "sdtmigDatasetMappingTargets": [{"href": "/mdr/sdtmig/3-2/datasets/CM/variables/CMDOSFRM", "title": "Dose Form", "type": "SDTM Dataset Variable"}], "self": {"href": "/mdr/cdashig/2-1/domains/CM/fields/CMDOSFRM", "title": "CM Dose Form", "type": "Data Collection Field"}}, "completionInstructions": "Record the pharmaceutical dosage form (e.g., TABLET CAPSULE, SYRUP) of delivery for the concomitant [medication/treatment/therapy] taken.", "core": "O", "definition": "The pharmaceutical dosage form in which the CMTRT is physically presented.", "implementationNotes": "Some drugs have multiple forms and this field may be needed to code the drug to an ATC level. However, in general, this level of detail should not be necessary except for medications/treatments of interest.", "label": "CM Dose Form", "mappingInstructions": "Maps directly to the SDTMIG variable listed in the column with the heading \"SDTMIG Target\".", "name": "CMDOSFRM", "ordinal": "19", "prompt": "Dose Form", "questionText": "What was the dose form of the (concomitant) [medication/treatment/therapy]?", "simpleDatatype": "Char"}, {"_links": {"codelist": [{"href": "/mdr/root/ct/sdtmct/codelists/C71113", "title": "Version-agnostic anchor resource for codelist C71113", "type": "Root Value Domain"}, {"href": "/mdr/root/ct/cdashct/codelists/C78419", "title": "Version-agnostic anchor resource for codelist C78419", "type": "Root Value Domain"}], "implements": {"href": "/mdr/cdash/1-1/classes/Interventions/fields/--DOSFRQ", "title": "Dosing Frequency per Interval", "type": "Class Variable"}, "parentDomain": {"href": "/mdr/cdashig/2-1/domains/CM", "title": "Concomitant Medications", "type": "CDASH Domain"}, "parentProduct": {"href": "/mdr/cdashig/2-1", "title": "Clinical Data Acquisition Standards Harmonization Implementation Guide for Human Clinical Trials Version 2.1", "type": "Implementation Guide"}, "priorVersion": {"href": "/mdr/cdashig/2-0/domains/CM/fields/CMDOSFRQ", "title": "Concomitant Meds Dosing Frequency per Interval", "type": "Data Collection Field"}, "rootItem": {"href": "/mdr/root/cdashig/domains/CM/fields/CMDOSFRQ", "title": "Version-agnostic anchor element for field CM.CMDOSFRQ", "type": "Root Data Element"}, "sdtmigDatasetMappingTargets": [{"href": "/mdr/sdtmig/3-2/datasets/CM/variables/CMDOSFRQ", "title": "Dosing Frequency per Interval", "type": "SDTM Dataset Variable"}], "self": {"href": "/mdr/cdashig/2-1/domains/CM/fields/CMDOSFRQ", "title": "CM Dosing Frequency per Interval", "type": "Data Collection Field"}}, "completionInstructions": "Record how often the (concomitant) [medication/treatment/therapy] was taken (e.g., BID, PRN).", "core": "O", "definition": "The number of doses given/administered/taken during a specific interval.", "implementationNotes": "The frequency of the concomitant medication/treatment. When collected, the recommendation is to collect dosing information in separate fields (e.g., CMDOSE, CMDOSEU, CMDOSFRQ) for specific and consistent data collection and to enable programmatically utilizing these data.", "label": "CM Dosing Frequency per Interval", "mappingInstructions": "Maps directly to the SDTMIG variable listed in the column with the heading \"SDTMIG Target\".", "name": "CMDOSFRQ", "ordinal": "20", "prompt": "Frequency", "questionText": "What was the frequency of the (concomitant) [medication/treatment/therapy]?", "simpleDatatype": "Char"}, {"_links": {"codelist": [{"href": "/mdr/root/ct/sdtmct/codelists/C66729", "title": "Version-agnostic anchor resource for codelist C66729", "type": "Root Value Domain"}, {"href": "/mdr/root/ct/cdashct/codelists/C78420", "title": "Version-agnostic anchor resource for codelist C78420", "type": "Root Value Domain"}], "implements": {"href": "/mdr/cdash/1-1/classes/Interventions/fields/--ROUTE", "title": "Route of Administration", "type": "Class Variable"}, "parentDomain": {"href": "/mdr/cdashig/2-1/domains/CM", "title": "Concomitant Medications", "type": "CDASH Domain"}, "parentProduct": {"href": "/mdr/cdashig/2-1", "title": "Clinical Data Acquisition Standards Harmonization Implementation Guide for Human Clinical Trials Version 2.1", "type": "Implementation Guide"}, "priorVersion": {"href": "/mdr/cdashig/2-0/domains/CM/fields/CMROUTE", "title": "Concomitant Meds Route of Administration", "type": "Data Collection Field"}, "rootItem": {"href": "/mdr/root/cdashig/domains/CM/fields/CMROUTE", "title": "Version-agnostic anchor element for field CM.CMROUTE", "type": "Root Data Element"}, "sdtmigDatasetMappingTargets": [{"href": "/mdr/sdtmig/3-2/datasets/CM/variables/CMROUTE", "title": "Route of Administration", "type": "SDTM Dataset Variable"}], "self": {"href": "/mdr/cdashig/2-1/domains/CM/fields/CMROUTE", "title": "CM Route of Administration", "type": "Data Collection Field"}}, "completionInstructions": "Provide the route of administration for the (concomitant) [medication/treatment/therapy].", "core": "R/C", "definition": "The route of administration of the (concomitant) [medication/treatment/therapy].", "implementationNotes": "This additional information may be important to collect on the CRF when the sponsor would want to capture a medication's/treatment's route of administration for purposes such as coding and the medication/treatment may have more than one route. Some companies may use route in coding medications/treatments to be able to choose a precise preferred name and ATC code.", "label": "CM Route of Administration", "mappingInstructions": "Maps directly to the SDTMIG variable listed in the column with the heading \"SDTMIG Target\".", "name": "CMROUTE", "ordinal": "21", "prompt": "Route", "questionText": "What was the route of administration of the (concomitant) [medication/treatment/therapy]?", "simpleDatatype": "Char"}, {"_links": {"implements": {"href": "/mdr/cdash/1-1/classes/Timing/fields/--STDAT", "title": "Observation Start Date", "type": "Class Variable"}, "parentDomain": {"href": "/mdr/cdashig/2-1/domains/CM", "title": "Concomitant Medications", "type": "CDASH Domain"}, "parentProduct": {"href": "/mdr/cdashig/2-1", "title": "Clinical Data Acquisition Standards Harmonization Implementation Guide for Human Clinical Trials Version 2.1", "type": "Implementation Guide"}, "priorVersion": {"href": "/mdr/cdashig/2-0/domains/CM/fields/CMSTDAT", "title": "Concomitant Meds Start Date", "type": "Data Collection Field"}, "rootItem": {"href": "/mdr/root/cdashig/domains/CM/fields/CMSTDAT", "title": "Version-agnostic anchor element for field CM.CMSTDAT", "type": "Root Data Element"}, "sdtmigDatasetMappingTargets": [{"href": "/mdr/sdtmig/3-2/datasets/CM/variables/CMSTDTC", "title": "Start Date/Time of Medication", "type": "SDTM Dataset Variable"}], "self": {"href": "/mdr/cdashig/2-1/domains/CM/fields/CMSTDAT", "title": "Concomitant Meds Start Date", "type": "Data Collection Field"}}, "completionInstructions": "Record the date the concomitant [medication/treatment] was first taken using this format (DD-MON-YYYY). If the subject has been taking the concomitant [medication/treatment] for a considerable amount of time prior to the start of the study, it is acceptable to have an incomplete date. Concomitant [medication/treatment] taken during the study are expected to have a complete start date. Prior concomitant [medication/treatment] that are exclusionary should have both a start and end date.", "core": "R/C", "definition": "The start date when the concomitant medication/treatment/therapy was first taken, represented in an unambiguous date format (e.g., DD-MON-YYYY).", "implementationNotes": "The assumption is that sponsors should either have a Start Date or will indicate that the medication or therapy was started before, during or after the study period. The preferred method is to collect a complete Start Date. Partial dates (e.g., providing year only) for medications/treatment started a considerable amount of time prior to the start of study are acceptable.", "label": "Concomitant Meds Start Date", "mappingInstructions": "This does not map directly to an SDTMIG variable. For the SDTM submission dataset, concatenate all collected CDASH START DATE and TIME components and populate the SDTMIG variable CMSTDTC in ISO 8601 format.", "name": "CMSTDAT", "ordinal": "22", "prompt": "Start Date", "questionText": "What was the (concomitant) [medication/treatment/therapy/dose] start date?", "simpleDatatype": "Char"}, {"_links": {"implements": {"href": "/mdr/cdash/1-1/classes/Timing/fields/--STTIM", "title": "Observation Start Time", "type": "Class Variable"}, "parentDomain": {"href": "/mdr/cdashig/2-1/domains/CM", "title": "Concomitant Medications", "type": "CDASH Domain"}, "parentProduct": {"href": "/mdr/cdashig/2-1", "title": "Clinical Data Acquisition Standards Harmonization Implementation Guide for Human Clinical Trials Version 2.1", "type": "Implementation Guide"}, "priorVersion": {"href": "/mdr/cdashig/2-0/domains/CM/fields/CMSTTIM", "title": "Concomitant Meds Start Time", "type": "Data Collection Field"}, "rootItem": {"href": "/mdr/root/cdashig/domains/CM/fields/CMSTTIM", "title": "Version-agnostic anchor element for field CM.CMSTTIM", "type": "Root Data Element"}, "sdtmigDatasetMappingTargets": [{"href": "/mdr/sdtmig/3-2/datasets/CM/variables/CMSTDTC", "title": "Start Date/Time of Medication", "type": "SDTM Dataset Variable"}], "self": {"href": "/mdr/cdashig/2-1/domains/CM/fields/CMSTTIM", "title": "Concomitant Meds Start Time", "type": "Data Collection Field"}}, "completionInstructions": "Record the time (as complete as possible) that the concomitant [medication/treatment] was started.", "core": "R/C", "definition": "The time the concomitant medication/treatment/therapy was started, represented in an unambiguous time format (e.g., hh:mm:ss).", "implementationNotes": "Recommend collecting the time a concomitant medication/treatment was started only when a protocol or data collection scenarios supports it. Typically, a start time is not collected unless the subject is under the direct care of the site at the time a concomitant medication/treatment administered or the subject records the start time in a diary. See Section 3.7, Mapping Relative Times from Collection to Submissions, and SDTMIG v3.2 Section 4.1.4.7 for more information.", "label": "Concomitant Meds Start Time", "mappingInstructions": "This does not map directly to an SDTMIG variable. For the SDTM submission dataset, concatenate all collected CDASH START DATE and TIME components and populate the SDTMIG variable CMSTDTC in ISO 8601 format.", "name": "CMSTTIM", "ordinal": "23", "prompt": "Start Time", "questionText": "What was the (concomitant) [medication/treatment/therapy/dose] start time?", "simpleDatatype": "Char"}, {"_links": {"codelist": [{"href": "/mdr/root/ct/sdtmct/codelists/C66742", "title": "Version-agnostic anchor resource for codelist C66742", "type": "Root Value Domain"}], "implements": {"href": "/mdr/cdash/1-1/classes/Timing/fields/--PRIOR", "title": "Prior", "type": "Class Variable"}, "parentDomain": {"href": "/mdr/cdashig/2-1/domains/CM", "title": "Concomitant Medications", "type": "CDASH Domain"}, "parentProduct": {"href": "/mdr/cdashig/2-1", "title": "Clinical Data Acquisition Standards Harmonization Implementation Guide for Human Clinical Trials Version 2.1", "type": "Implementation Guide"}, "priorVersion": {"href": "/mdr/cdashig/2-0/domains/CM/fields/CMPRIOR", "title": "Prior Concomitant Meds", "type": "Data Collection Field"}, "rootItem": {"href": "/mdr/root/cdashig/domains/CM/fields/CMPRIOR", "title": "Version-agnostic anchor element for field CM.CMPRIOR", "type": "Root Data Element"}, "sdtmigDatasetMappingTargets": [{"href": "/mdr/sdtmig/3-2/datasets/CM/variables/CMSTRTPT", "title": "Start Relative to Reference Time Point", "type": "SDTM Dataset Variable"}, {"href": "/mdr/sdtmig/3-2/datasets/CM/variables/CMSTRF", "title": "Start Relative to Reference Period", "type": "SDTM Dataset Variable"}], "self": {"href": "/mdr/cdashig/2-1/domains/CM/fields/CMPRIOR", "title": "Prior Concomitant Meds", "type": "Data Collection Field"}}, "completionInstructions": "Check if the concomitant [medication/treatment/therapy] was started before the study.", "core": "O", "definition": "Indication the concomitant medication/treatment/therapy was given or taken prior to [CMSTTPT] or prior to the date in DM.RFSTDTC.", "implementationNotes": "Sponsors may collect this information rather than start dates. See Section 3.7, Mapping Relative Times from Collection to Submissions, and SDTMIG v3.2 Section 4.1.4.7 for more information.", "label": "Prior Concomitant Meds", "mappingInstructions": "This does not map directly to an SDTMIG variable. May be used to populate a value into an SDTM relative timing variable such as CMSTRF or CMSTRTPT. When populating CMSTRF, or CMSTRTPT, if the value of the CDASH field CMPRIOR is \"Y\" a value from the CDISC CT (STENRF) may be used. When CMPRIOR refers to the Study Reference Period (defined in DM.RFSTDTC to DM.RFENDTC) the SDTM variable CMSTRF should be populated. When CMPRIOR is compared to another time point, the SDTM variables CMSTRTPT and CMSTTPT should be used. When CMONGO is used in conjunction with another time point, the SDTM variables CMENRTPT and CMENTPT should be used. \n Note: CMSTRTPT must refer to the time point anchor described in CMSTTPT.", "name": "CMPRIOR", "ordinal": "24", "prompt": "Prior to [CMSTTPT]; Prior to Study", "questionText": "Was the (concomitant) [medication/treatment/therapy] given/taken prior to [CMSTTPT]?; Was the (concomitant) [medication/treatment/therapy] given/taken prior to study start?", "simpleDatatype": "Char"}, {"_links": {"codelist": [{"href": "/mdr/root/ct/sdtmct/codelists/C66742", "title": "Version-agnostic anchor resource for codelist C66742", "type": "Root Value Domain"}], "implements": {"href": "/mdr/cdash/1-1/classes/Interventions/fields/--ONGO", "title": "Ongoing Intervention", "type": "Class Variable"}, "parentDomain": {"href": "/mdr/cdashig/2-1/domains/CM", "title": "Concomitant Medications", "type": "CDASH Domain"}, "parentProduct": {"href": "/mdr/cdashig/2-1", "title": "Clinical Data Acquisition Standards Harmonization Implementation Guide for Human Clinical Trials Version 2.1", "type": "Implementation Guide"}, "priorVersion": {"href": "/mdr/cdashig/2-0/domains/CM/fields/CMONGO", "title": "Ongoing Concomitant Meds", "type": "Data Collection Field"}, "rootItem": {"href": "/mdr/root/cdashig/domains/CM/fields/CMONGO", "title": "Version-agnostic anchor element for field CM.CMONGO", "type": "Root Data Element"}, "sdtmigDatasetMappingTargets": [{"href": "/mdr/sdtmig/3-2/datasets/CM/variables/CMENRTPT", "title": "End Relative to Reference Time Point", "type": "SDTM Dataset Variable"}, {"href": "/mdr/sdtmig/3-2/datasets/CM/variables/CMENRF", "title": "End Relative to Reference Period", "type": "SDTM Dataset Variable"}], "self": {"href": "/mdr/cdashig/2-1/domains/CM/fields/CMONGO", "title": "Ongoing Concomitant Meds", "type": "Data Collection Field"}}, "completionInstructions": "Record the concomitant [medication/treatment/therapy] as ongoing if the subject has not stopped taking the concomitant [medication/treatment/therapy] at [the timepoint defined by the study]. If the concomitant medication is ongoing, the end date should be left blank", "core": "R/C", "definition": "Indication the concomitant medication/treatment/therapy is ongoing when no end date is provided.", "implementationNotes": "This box should be checked to indicate that the concomitant medication/treatment has not stopped at the time of data collection. It is expected that every recorded medication/treatment should have either an End Date or be checked as Ongoing, but not both. However, in cases where ongoing concomitant medications/treatments are not permitted, it may not be necessary to include an Ongoing field in the CRF. See Section 3.7, Mapping Relative Times from Collection to Submission, for more information about collecting relative date/time; see SDTMIG v3.2 Section 4.1.4 for information about mapping relative times.", "label": "Ongoing Concomitant Meds", "mappingInstructions": "This does not map directly to an SDTM variable. May be used to populate a value into an SDTMIG relative timing variable such as CMENRF or CMENRTPT. When populating CMENRF, if the value of CMONGO is \"Y\", the value of \"DURING\", \"AFTER\" or \"DURING/AFTER\" may be used. When populating CMENRTPT, if the value of CMONGO is \"Y\", the value of \"ONGOING\" may be used. When CMONGO refers to the Study Reference Period (defined in DM.RFSTDTC to DM.RFENDTC) the SDTM variable CMENRF should be populated. When CMONGO is used in conjunction with another time point, the SDTM variables CMENRTPT and CMENTPT should be used. \n Note: CMENRTPT must refer to a time point anchor described in CMENTPT.", "name": "CMONGO", "ordinal": "25", "prompt": "Ongoing (as of [the study-specific time point or period])", "questionText": "Was the (concomitant) [medication/treatment/therapy] ongoing (as of [the study-specific time point or period])?", "simpleDatatype": "Char"}, {"_links": {"implements": {"href": "/mdr/cdash/1-1/classes/Timing/fields/--ENDAT", "title": "Observation End Date", "type": "Class Variable"}, "parentDomain": {"href": "/mdr/cdashig/2-1/domains/CM", "title": "Concomitant Medications", "type": "CDASH Domain"}, "parentProduct": {"href": "/mdr/cdashig/2-1", "title": "Clinical Data Acquisition Standards Harmonization Implementation Guide for Human Clinical Trials Version 2.1", "type": "Implementation Guide"}, "priorVersion": {"href": "/mdr/cdashig/2-0/domains/CM/fields/CMENDAT", "title": "Concomitant Meds End Date", "type": "Data Collection Field"}, "rootItem": {"href": "/mdr/root/cdashig/domains/CM/fields/CMENDAT", "title": "Version-agnostic anchor element for field CM.CMENDAT", "type": "Root Data Element"}, "sdtmigDatasetMappingTargets": [{"href": "/mdr/sdtmig/3-2/datasets/CM/variables/CMENDTC", "title": "End Date/Time of Medication", "type": "SDTM Dataset Variable"}], "self": {"href": "/mdr/cdashig/2-1/domains/CM/fields/CMENDAT", "title": "Concomitant Meds End Date", "type": "Data Collection Field"}}, "completionInstructions": "Record the date the concomitant [medication/treatment] was stopped using this format (DD-MON-YYYY). If the subject has not stopped taking the concomitant [medication/treatment] leave this field blank.", "core": "R/C", "definition": "The date that the subject ended/stopped taking the concomitant medication/treatment/therapy represented in an unambiguous date format (e.g., DD-MON-YYYY).", "implementationNotes": "The assumption is that sponsors should either have an End Date or will indicate that the medication or therapy was ongoing at the time of collection or at the end of the study. However, in cases where the End Date can be determined from dates collected elsewhere in the CRF it is not necessary to include an End Date in the CRF. For example, if all concomitant medications/treatments are administered only once during a trial, the End Date will be the same as the Start Date.", "label": "Concomitant Meds End Date", "mappingInstructions": "This does not map directly to an SDTMIG variable. For the SDTM submission dataset, concatenate all collected CDASH END DATE and TIME components and populate the SDTMIG variable CMENDTC in ISO 8601 format.", "name": "CMENDAT", "ordinal": "26", "prompt": "End Date", "questionText": "What was the (concomitant) [medication/treatment/therapy/dose] end date?", "simpleDatatype": "Char"}, {"_links": {"implements": {"href": "/mdr/cdash/1-1/classes/Timing/fields/--ENTIM", "title": "Observation End Time", "type": "Class Variable"}, "parentDomain": {"href": "/mdr/cdashig/2-1/domains/CM", "title": "Concomitant Medications", "type": "CDASH Domain"}, "parentProduct": {"href": "/mdr/cdashig/2-1", "title": "Clinical Data Acquisition Standards Harmonization Implementation Guide for Human Clinical Trials Version 2.1", "type": "Implementation Guide"}, "priorVersion": {"href": "/mdr/cdashig/2-0/domains/CM/fields/CMENTIM", "title": "Concomitant Meds End Time", "type": "Data Collection Field"}, "rootItem": {"href": "/mdr/root/cdashig/domains/CM/fields/CMENTIM", "title": "Version-agnostic anchor element for field CM.CMENTIM", "type": "Root Data Element"}, "sdtmigDatasetMappingTargets": [{"href": "/mdr/sdtmig/3-2/datasets/CM/variables/CMENDTC", "title": "End Date/Time of Medication", "type": "SDTM Dataset Variable"}], "self": {"href": "/mdr/cdashig/2-1/domains/CM/fields/CMENTIM", "title": "Concomitant Meds End Time", "type": "Data Collection Field"}}, "completionInstructions": "Record the time (as complete as possible) that the concomitant medication/treatment was stopped.", "core": "R/C", "definition": "The time when the subject ended/stopped taking the concomitant medication/treatment/therapy represented in an unambiguous time format (e.g., hh:mm:ss).", "implementationNotes": "Recommend collecting the time a concomitant medication or treatment was ended only when a protocol or data collection scenarios require it or the subject records the start time in a diary. Typically, an end time is not collected unless the subject is under the direct care of the site at the time a concomitant medication/treatment is stopped.", "label": "Concomitant Meds End Time", "mappingInstructions": "This does not map directly to an SDTMIG variable. For the SDTM submission dataset, concatenate all collected CDASH END DATE and TIME components and populate the SDTMIG variable CMENDTC in ISO 8601 format.", "name": "CMENTIM", "ordinal": "27", "prompt": "End Time", "questionText": "What was the [medication/treatment/therapy/dose] end time?", "simpleDatatype": "Char"}, {"_links": {"implements": {"href": "/mdr/cdash/1-1/classes/Interventions/fields/--DECOD", "title": "Standardized Treatment Name", "type": "Class Variable"}, "parentDomain": {"href": "/mdr/cdashig/2-1/domains/CM", "title": "Concomitant Medications", "type": "CDASH Domain"}, "parentProduct": {"href": "/mdr/cdashig/2-1", "title": "Clinical Data Acquisition Standards Harmonization Implementation Guide for Human Clinical Trials Version 2.1", "type": "Implementation Guide"}, "priorVersion": {"href": "/mdr/cdashig/2-0/domains/CM/fields/CMDECOD", "title": "Concomitant Meds Dictionary or Standardized Term", "type": "Data Collection Field"}, "rootItem": {"href": "/mdr/root/cdashig/domains/CM/fields/CMDECOD", "title": "Version-agnostic anchor element for field CM.CMDECOD", "type": "Root Data Element"}, "sdtmigDatasetMappingTargets": [{"href": "/mdr/sdtmig/3-2/datasets/CM/variables/CMDECOD", "title": "Standardized Medication Name", "type": "SDTM Dataset Variable"}], "self": {"href": "/mdr/cdashig/2-1/domains/CM/fields/CMDECOD", "title": "Standardized Medication Name", "type": "Data Collection Field"}}, "core": "O", "definition": "The dictionary- or sponsor-defined standardized text description of the topic variable, CMTRT, or the modified topic variable (CMMODIFY), if applicable.", "implementationNotes": "This field does not typically appear on the CRF. Sponsors will populate this through the coding process. Equivalent to the generic drug name in WHODrug, or a term in SNOMED, ICD9, or other published or sponsor-defined dictionaries.", "label": "Standardized Medication Name", "mappingInstructions": "Maps directly to the SDTMIG variable listed in the column with the heading \"SDTMIG Target\".", "name": "CMDECOD", "ordinal": "28", "simpleDatatype": "Char"}, {"_links": {"implements": {"href": "/mdr/cdash/1-1/classes/Interventions/fields/--CLAS", "title": "Class", "type": "Class Variable"}, "parentDomain": {"href": "/mdr/cdashig/2-1/domains/CM", "title": "Concomitant Medications", "type": "CDASH Domain"}, "parentProduct": {"href": "/mdr/cdashig/2-1", "title": "Clinical Data Acquisition Standards Harmonization Implementation Guide for Human Clinical Trials Version 2.1", "type": "Implementation Guide"}, "priorVersion": {"href": "/mdr/cdashig/2-0/domains/CM/fields/CMCLAS", "title": "Concomitant Meds Class Description", "type": "Data Collection Field"}, "rootItem": {"href": "/mdr/root/cdashig/domains/CM/fields/CMCLAS", "title": "Version-agnostic anchor element for field CM.CMCLAS", "type": "Root Data Element"}, "sdtmigDatasetMappingTargets": [{"href": "/mdr/sdtmig/3-2/datasets/CM/variables/CMCLAS", "title": "Medication Class", "type": "SDTM Dataset Variable"}], "self": {"href": "/mdr/cdashig/2-1/domains/CM/fields/CMCLAS", "title": "CM Medication Class", "type": "Data Collection Field"}}, "core": "O", "definition": "The class for the intervention, often obtained from a coding dictionary.", "implementationNotes": "This field does not typically appear on the CRF. Sponsors will populate this through the coding process. This would generally be the class used for analysis.", "label": "CM Medication Class", "mappingInstructions": "Maps directly to the SDTMIG variable listed in the column with the heading \"SDTMIG Target\".", "name": "CMCLAS", "ordinal": "29", "simpleDatatype": "Char"}, {"_links": {"implements": {"href": "/mdr/cdash/1-1/classes/Interventions/fields/--CLASCD", "title": "Class Code", "type": "Class Variable"}, "parentDomain": {"href": "/mdr/cdashig/2-1/domains/CM", "title": "Concomitant Medications", "type": "CDASH Domain"}, "parentProduct": {"href": "/mdr/cdashig/2-1", "title": "Clinical Data Acquisition Standards Harmonization Implementation Guide for Human Clinical Trials Version 2.1", "type": "Implementation Guide"}, "priorVersion": {"href": "/mdr/cdashig/2-0/domains/CM/fields/CMCLASCD", "title": "Concomitant Meds Class Code", "type": "Data Collection Field"}, "rootItem": {"href": "/mdr/root/cdashig/domains/CM/fields/CMCLASCD", "title": "Version-agnostic anchor element for field CM.CMCLASCD", "type": "Root Data Element"}, "sdtmigDatasetMappingTargets": [{"href": "/mdr/sdtmig/3-2/datasets/CM/variables/CMCLASCD", "title": "Medication Class Code", "type": "SDTM Dataset Variable"}], "self": {"href": "/mdr/cdashig/2-1/domains/CM/fields/CMCLASCD", "title": "CM Medication Class Code", "type": "Data Collection Field"}}, "core": "O", "definition": "The assigned dictionary code for the class for the intervention.", "implementationNotes": "This field does not typically appear on the CRF. Sponsors will populate this through the coding process. This would generally be the class code used for analysis.", "label": "CM Medication Class Code", "mappingInstructions": "Maps directly to the SDTMIG variable listed in the column with the heading \"SDTMIG Target\".", "name": "CMCLASCD", "ordinal": "30", "simpleDatatype": "Num"}, {"_links": {"implements": {"href": "/mdr/cdash/1-1/classes/Interventions/fields/--ATC1", "title": "ATC Level 1 Description", "type": "Class Variable"}, "parentDomain": {"href": "/mdr/cdashig/2-1/domains/CM", "title": "Concomitant Medications", "type": "CDASH Domain"}, "parentProduct": {"href": "/mdr/cdashig/2-1", "title": "Clinical Data Acquisition Standards Harmonization Implementation Guide for Human Clinical Trials Version 2.1", "type": "Implementation Guide"}, "priorVersion": {"href": "/mdr/cdashig/2-0/domains/CM/fields/CMATC1", "title": "ATC Level 1 Description", "type": "Data Collection Field"}, "rootItem": {"href": "/mdr/root/cdashig/domains/CM/fields/CMATC1", "title": "Version-agnostic anchor element for field CM.CMATC1", "type": "Root Data Element"}, "sdtmigDatasetMappingTargets": [{"href": "/mdr/sdtmig/3-2/datasets/SUPPQUAL/variables/QVAL", "title": "Data Value", "type": "SDTM Dataset Variable"}], "self": {"href": "/mdr/cdashig/2-1/domains/CM/fields/CMATC1", "title": "ATC Level 1 Description", "type": "Data Collection Field"}}, "core": "O", "definition": "Dictionary text description of the first level of hierarchy within the Anatomical Therapeutic Chemical Classification System. Indicates the anatomical main group.", "implementationNotes": "This field does not typically appear on the CRF. This is populated through the sponsor's coding process.", "label": "ATC Level 1 Description", "mappingInstructions": "This does not map directly to an SDTMIG variable. This information could be submitted in a SUPPCM dataset as the value of SUPPCM.QVAL where SUPPCM.QNAM=\"CMATC1\" and SUPPCM.QLABEL=\"ATC Level 1 Description\". Sponsors should include an Origin column in the SUPPQ dataset to indicate that the data was \"ASSIGNED\". Refer to the current SDTM and SDTMIG for instructions on placement of non-standard variables in SDTM domains.", "name": "CMATC1", "ordinal": "31", "simpleDatatype": "Char"}, {"_links": {"implements": {"href": "/mdr/cdash/1-1/classes/Interventions/fields/--ATC1CD", "title": "ATC Level 1 Code", "type": "Class Variable"}, "parentDomain": {"href": "/mdr/cdashig/2-1/domains/CM", "title": "Concomitant Medications", "type": "CDASH Domain"}, "parentProduct": {"href": "/mdr/cdashig/2-1", "title": "Clinical Data Acquisition Standards Harmonization Implementation Guide for Human Clinical Trials Version 2.1", "type": "Implementation Guide"}, "priorVersion": {"href": "/mdr/cdashig/2-0/domains/CM/fields/CMATC1CD", "title": "ATC Level 1 Code", "type": "Data Collection Field"}, "rootItem": {"href": "/mdr/root/cdashig/domains/CM/fields/CMATC1CD", "title": "Version-agnostic anchor element for field CM.CMATC1CD", "type": "Root Data Element"}, "sdtmigDatasetMappingTargets": [{"href": "/mdr/sdtmig/3-2/datasets/SUPPQUAL/variables/QVAL", "title": "Data Value", "type": "SDTM Dataset Variable"}], "self": {"href": "/mdr/cdashig/2-1/domains/CM/fields/CMATC1CD", "title": "ATC Level 1 Code", "type": "Data Collection Field"}}, "core": "O", "definition": "Dictionary code denoting the first level of hierarchy within the Anatomical Therapeutic Chemical Classification System. Indicates the anatomical main group.", "implementationNotes": "This field does not typically appear on the CRF. This is populated through the sponsor's coding process.", "label": "ATC Level 1 Code", "mappingInstructions": "This does not map directly to an SDTMIG variable. This information could be submitted in a SUPPCM dataset as the value of SUPPCM.QVAL where SUPPCM.QNAM =\"MATC1CD\" and SUPPCM.QLABEL=\"ATC Level 1 Code\". Sponsors should include an Origin column in the SUPPQ dataset to indicate that the data was \"ASSIGNED\".", "name": "CMATC1CD", "ordinal": "32", "simpleDatatype": "Num"}, {"_links": {"implements": {"href": "/mdr/cdash/1-1/classes/Interventions/fields/--ATC2", "title": "ATC Level 2 Description", "type": "Class Variable"}, "parentDomain": {"href": "/mdr/cdashig/2-1/domains/CM", "title": "Concomitant Medications", "type": "CDASH Domain"}, "parentProduct": {"href": "/mdr/cdashig/2-1", "title": "Clinical Data Acquisition Standards Harmonization Implementation Guide for Human Clinical Trials Version 2.1", "type": "Implementation Guide"}, "priorVersion": {"href": "/mdr/cdashig/2-0/domains/CM/fields/CMATC2", "title": "ATC Level 2 Description", "type": "Data Collection Field"}, "rootItem": {"href": "/mdr/root/cdashig/domains/CM/fields/CMATC2", "title": "Version-agnostic anchor element for field CM.CMATC2", "type": "Root Data Element"}, "sdtmigDatasetMappingTargets": [{"href": "/mdr/sdtmig/3-2/datasets/SUPPQUAL/variables/QVAL", "title": "Data Value", "type": "SDTM Dataset Variable"}], "self": {"href": "/mdr/cdashig/2-1/domains/CM/fields/CMATC2", "title": "ATC Level 2 Description", "type": "Data Collection Field"}}, "core": "O", "definition": "Dictionary text description for the second level of hierarchy within the Anatomical Therapeutic Chemical Classification System. Indicates the therapeutic main group.", "implementationNotes": "This field does not typically appear on the CRF. This is populated through the sponsor's coding process.", "label": "ATC Level 2 Description", "mappingInstructions": "This does not map directly to an SDTMIG variable. This information could be submitted in a SUPPCM dataset as the value of SUPPCM.QVAL where SUPPCM.QNAM=\"CMATC2\" and SUPPCM.QLABEL=\"ATC Level 2 Description\". Sponsors should include an Origin column in the SUPPQ dataset to indicate that the data was \"ASSIGNED\". Refer to the current SDTM and SDTMIG for instructions on placement of non-standard variables in SDTM domains.", "name": "CMATC2", "ordinal": "33", "simpleDatatype": "Char"}, {"_links": {"implements": {"href": "/mdr/cdash/1-1/classes/Interventions/fields/--ATC2CD", "title": "ATC Level 2 Code", "type": "Class Variable"}, "parentDomain": {"href": "/mdr/cdashig/2-1/domains/CM", "title": "Concomitant Medications", "type": "CDASH Domain"}, "parentProduct": {"href": "/mdr/cdashig/2-1", "title": "Clinical Data Acquisition Standards Harmonization Implementation Guide for Human Clinical Trials Version 2.1", "type": "Implementation Guide"}, "priorVersion": {"href": "/mdr/cdashig/2-0/domains/CM/fields/CMATC2CD", "title": "ATC Level 2 Code", "type": "Data Collection Field"}, "rootItem": {"href": "/mdr/root/cdashig/domains/CM/fields/CMATC2CD", "title": "Version-agnostic anchor element for field CM.CMATC2CD", "type": "Root Data Element"}, "sdtmigDatasetMappingTargets": [{"href": "/mdr/sdtmig/3-2/datasets/SUPPQUAL/variables/QVAL", "title": "Data Value", "type": "SDTM Dataset Variable"}], "self": {"href": "/mdr/cdashig/2-1/domains/CM/fields/CMATC2CD", "title": "ATC Level 2 Code", "type": "Data Collection Field"}}, "core": "O", "definition": "Dictionary code denoting the second level of hierarchy within the Anatomical Therapeutic Chemical Classification System. Indicates the therapeutic main group.", "implementationNotes": "This field does not typically appear on the CRF. This is populated through the sponsor's coding process.", "label": "ATC Level 2 Code", "mappingInstructions": "This does not map directly to an SDTMIG variable. This information could be submitted in a SUPPCM dataset as the value of SUPPCM.QVAL where SUPPCM.QNAM=\"CMATC2CD\" and SUPPCM.QLABEL=\"ATC Level 2 Code\". Sponsors should include an Origin column in the SUPPQ dataset to indicate that the data was \"ASSIGNED\".", "name": "CMATC2CD", "ordinal": "34", "simpleDatatype": "Num"}, {"_links": {"implements": {"href": "/mdr/cdash/1-1/classes/Interventions/fields/--ATC3", "title": "ATC Level 3 Description", "type": "Class Variable"}, "parentDomain": {"href": "/mdr/cdashig/2-1/domains/CM", "title": "Concomitant Medications", "type": "CDASH Domain"}, "parentProduct": {"href": "/mdr/cdashig/2-1", "title": "Clinical Data Acquisition Standards Harmonization Implementation Guide for Human Clinical Trials Version 2.1", "type": "Implementation Guide"}, "priorVersion": {"href": "/mdr/cdashig/2-0/domains/CM/fields/CMATC3", "title": "ATC Level 3 Description", "type": "Data Collection Field"}, "rootItem": {"href": "/mdr/root/cdashig/domains/CM/fields/CMATC3", "title": "Version-agnostic anchor element for field CM.CMATC3", "type": "Root Data Element"}, "sdtmigDatasetMappingTargets": [{"href": "/mdr/sdtmig/3-2/datasets/SUPPQUAL/variables/QVAL", "title": "Data Value", "type": "SDTM Dataset Variable"}], "self": {"href": "/mdr/cdashig/2-1/domains/CM/fields/CMATC3", "title": "ATC Level 3 Description", "type": "Data Collection Field"}}, "core": "O", "definition": "Dictionary text description of the third level of hierarchy within the Anatomical Therapeutic Chemical Classification System. Indicates the therapeutic/pharmacological subgroup.", "implementationNotes": "This field does not typically appear on the CRF. This is populated through the sponsor's coding process.", "label": "ATC Level 3 Description", "mappingInstructions": "This does not map directly to an SDTMIG variable. This information could be submitted in a SUPPCM dataset as the value of SUPPCM.QVAL where SUPPCM.QNAM=\"CMATC3\" and SUPPCM.QLABEL=\"ATC Level 3 Description\". Sponsors should include an Origin column in the SUPPQ dataset to indicate that the data was \"ASSIGNED\". Refer to the current SDTM and SDTMIG for instructions on placement of non-standard variables in SDTM domains.", "name": "CMATC3", "ordinal": "35", "simpleDatatype": "Char"}, {"_links": {"implements": {"href": "/mdr/cdash/1-1/classes/Interventions/fields/--ATC3CD", "title": "ATC Level 3 Code", "type": "Class Variable"}, "parentDomain": {"href": "/mdr/cdashig/2-1/domains/CM", "title": "Concomitant Medications", "type": "CDASH Domain"}, "parentProduct": {"href": "/mdr/cdashig/2-1", "title": "Clinical Data Acquisition Standards Harmonization Implementation Guide for Human Clinical Trials Version 2.1", "type": "Implementation Guide"}, "priorVersion": {"href": "/mdr/cdashig/2-0/domains/CM/fields/CMATC3CD", "title": "ATC Level 3 Code", "type": "Data Collection Field"}, "rootItem": {"href": "/mdr/root/cdashig/domains/CM/fields/CMATC3CD", "title": "Version-agnostic anchor element for field CM.CMATC3CD", "type": "Root Data Element"}, "sdtmigDatasetMappingTargets": [{"href": "/mdr/sdtmig/3-2/datasets/SUPPQUAL/variables/QVAL", "title": "Data Value", "type": "SDTM Dataset Variable"}], "self": {"href": "/mdr/cdashig/2-1/domains/CM/fields/CMATC3CD", "title": "ATC Level 3 Code", "type": "Data Collection Field"}}, "core": "O", "definition": "Dictionary code denoting the third level of hierarchy within the Anatomical Therapeutic Chemical Classification System. Indicates the therapeutic/pharmacological subgroup.", "implementationNotes": "This field does not typically appear on the CRF. This is populated through the sponsor's coding process.", "label": "ATC Level 3 Code", "mappingInstructions": "This does not map directly to an SDTMIG variable. This information could be submitted in a SUPPCM dataset as the value of SUPPCM.QVAL where SUPPCM.QNAM=\"CMATC3CD\" and SUPPCM.QLABEL=\"ATC Level 3 Code\". Sponsors should include an Origin column in the SUPPQ dataset to indicate that the data was \"ASSIGNED\".", "name": "CMATC3CD", "ordinal": "36", "simpleDatatype": "Num"}, {"_links": {"implements": {"href": "/mdr/cdash/1-1/classes/Interventions/fields/--ATC4", "title": "ATC Level 4 Description", "type": "Class Variable"}, "parentDomain": {"href": "/mdr/cdashig/2-1/domains/CM", "title": "Concomitant Medications", "type": "CDASH Domain"}, "parentProduct": {"href": "/mdr/cdashig/2-1", "title": "Clinical Data Acquisition Standards Harmonization Implementation Guide for Human Clinical Trials Version 2.1", "type": "Implementation Guide"}, "priorVersion": {"href": "/mdr/cdashig/2-0/domains/CM/fields/CMATC4", "title": "ATC Level 4 Description", "type": "Data Collection Field"}, "rootItem": {"href": "/mdr/root/cdashig/domains/CM/fields/CMATC4", "title": "Version-agnostic anchor element for field CM.CMATC4", "type": "Root Data Element"}, "sdtmigDatasetMappingTargets": [{"href": "/mdr/sdtmig/3-2/datasets/SUPPQUAL/variables/QVAL", "title": "Data Value", "type": "SDTM Dataset Variable"}], "self": {"href": "/mdr/cdashig/2-1/domains/CM/fields/CMATC4", "title": "ATC Level 4 Description", "type": "Data Collection Field"}}, "core": "O", "definition": "Dictionary text description of the fourth level of hierarchy within the Anatomical Therapeutic Chemical Classification System. Indicates the chemical/therapeutic/pharmacological subgroup.", "implementationNotes": "This field does not typically appear on the CRF. This is populated through the sponsor's coding process.", "label": "ATC Level 4 Description", "mappingInstructions": "This does not map directly to an SDTMIG variable. This information could be submitted in a SUPPCM dataset as the value of SUPPCM.QVAL where SUPPCM.QNAM=\"CMATC4\" and SUPPCM.QLABEL=\"ATC Level 4 Description\". Sponsors should include an Origin column in the SUPPQ dataset to indicate that the data was \"ASSIGNED\". Refer to the current SDTM and SDTMIG for instructions on placement of non-standard variables in SDTM domains.", "name": "CMATC4", "ordinal": "37", "simpleDatatype": "Char"}, {"_links": {"implements": {"href": "/mdr/cdash/1-1/classes/Interventions/fields/--ATC4CD", "title": "ATC Level 4 Code", "type": "Class Variable"}, "parentDomain": {"href": "/mdr/cdashig/2-1/domains/CM", "title": "Concomitant Medications", "type": "CDASH Domain"}, "parentProduct": {"href": "/mdr/cdashig/2-1", "title": "Clinical Data Acquisition Standards Harmonization Implementation Guide for Human Clinical Trials Version 2.1", "type": "Implementation Guide"}, "priorVersion": {"href": "/mdr/cdashig/2-0/domains/CM/fields/CMATC4CD", "title": "ATC Level 4 Code", "type": "Data Collection Field"}, "rootItem": {"href": "/mdr/root/cdashig/domains/CM/fields/CMATC4CD", "title": "Version-agnostic anchor element for field CM.CMATC4CD", "type": "Root Data Element"}, "sdtmigDatasetMappingTargets": [{"href": "/mdr/sdtmig/3-2/datasets/SUPPQUAL/variables/QVAL", "title": "Data Value", "type": "SDTM Dataset Variable"}], "self": {"href": "/mdr/cdashig/2-1/domains/CM/fields/CMATC4CD", "title": "ATC Level 4 Code", "type": "Data Collection Field"}}, "core": "O", "definition": "Dictionary code denoting the fourth level of hierarchy within the Anatomical Therapeutic Chemical Classification System. Indicates the chemical/therapeutic/pharmacological subgroup.", "implementationNotes": "This field does not typically appear on the CRF. This is populated through the sponsor's coding process.", "label": "ATC Level 4 Code", "mappingInstructions": "This does not map directly to an SDTMIG variable. This information could be submitted in a SUPPCM dataset as the value of SUPPCM.QVAL where SUPPCM.QNAM=\"CMATC4CD\" and SUPPCM.QLABEL=\"ATC Level 4 Code\". Sponsors should include an Origin column in the SUPPQ dataset to indicate that the data was \"ASSIGNED\".", "name": "CMATC4CD", "ordinal": "38", "simpleDatatype": "Num"}, {"_links": {"implements": {"href": "/mdr/cdash/1-1/classes/Interventions/fields/--ATC5", "title": "ATC Level 5 Description", "type": "Class Variable"}, "parentDomain": {"href": "/mdr/cdashig/2-1/domains/CM", "title": "Concomitant Medications", "type": "CDASH Domain"}, "parentProduct": {"href": "/mdr/cdashig/2-1", "title": "Clinical Data Acquisition Standards Harmonization Implementation Guide for Human Clinical Trials Version 2.1", "type": "Implementation Guide"}, "priorVersion": {"href": "/mdr/cdashig/2-0/domains/CM/fields/CMATC5", "title": "ATC Level 5 Description", "type": "Data Collection Field"}, "rootItem": {"href": "/mdr/root/cdashig/domains/CM/fields/CMATC5", "title": "Version-agnostic anchor element for field CM.CMATC5", "type": "Root Data Element"}, "sdtmigDatasetMappingTargets": [{"href": "/mdr/sdtmig/3-2/datasets/SUPPQUAL/variables/QVAL", "title": "Data Value", "type": "SDTM Dataset Variable"}], "self": {"href": "/mdr/cdashig/2-1/domains/CM/fields/CMATC5", "title": "ATC Level 5 Description", "type": "Data Collection Field"}}, "core": "O", "definition": "Dictionary text description of the fifth level of hierarchy within the Anatomical Therapeutic Chemical Classification system. Indicates the chemical substance.", "implementationNotes": "This field does not typically appear on the CRF. This is populated through the sponsor's coding process.", "label": "ATC Level 5 Description", "mappingInstructions": "This does not map directly to an SDTMIG variable. This information could be submitted in a SUPPCM dataset as the value of SUPPCM.QVAL where SUPPCM.QNAM=\"CMATC5\" and SUPPCM.QLABEL=\"ATC Level 5 Description\". Sponsors should include an Origin column in the SUPPQ dataset to indicate that the data was \"ASSIGNED\". Refer to the current SDTM and SDTMIG for instructions on placement of non-standard variables in SDTM domains.", "name": "CMATC5", "ordinal": "39", "simpleDatatype": "Char"}, {"_links": {"implements": {"href": "/mdr/cdash/1-1/classes/Interventions/fields/--ATC5CD", "title": "ATC Level 5 Code", "type": "Class Variable"}, "parentDomain": {"href": "/mdr/cdashig/2-1/domains/CM", "title": "Concomitant Medications", "type": "CDASH Domain"}, "parentProduct": {"href": "/mdr/cdashig/2-1", "title": "Clinical Data Acquisition Standards Harmonization Implementation Guide for Human Clinical Trials Version 2.1", "type": "Implementation Guide"}, "priorVersion": {"href": "/mdr/cdashig/2-0/domains/CM/fields/CMATC5CD", "title": "ATC Level 5 Code", "type": "Data Collection Field"}, "rootItem": {"href": "/mdr/root/cdashig/domains/CM/fields/CMATC5CD", "title": "Version-agnostic anchor element for field CM.CMATC5CD", "type": "Root Data Element"}, "sdtmigDatasetMappingTargets": [{"href": "/mdr/sdtmig/3-2/datasets/SUPPQUAL/variables/QVAL", "title": "Data Value", "type": "SDTM Dataset Variable"}], "self": {"href": "/mdr/cdashig/2-1/domains/CM/fields/CMATC5CD", "title": "ATC Level 5 Code", "type": "Data Collection Field"}}, "core": "O", "definition": "Dictionary code denoting the fifth level of hierarchy within the Anatomical Therapeutic Chemical Classification system. Indicates the chemical substance.", "implementationNotes": "This field does not typically appear on the CRF. This is populated through the sponsor's coding process.", "label": "ATC Level 5 Code", "mappingInstructions": "This does not map directly to an SDTMIG variable. This information could be submitted in a SUPPCM dataset as the value of SUPPCM.QVAL where SUPPCM.QNAM=\"CMATC5CD\" and SUPPCM.QLABEL=\"ATC Level 5 Code\". Sponsors should include an Origin column in the SUPPQ dataset to indicate that the data was \"ASSIGNED\".", "name": "CMATC5CD", "ordinal": "40", "simpleDatatype": "Num"}], "label": "Concomitant Medications", "name": "CM", "ordinal": "3"}
