{"_links": {"parentClass": {"href": "/mdr/cdashig/2-1/classes/SpecialPurpose", "title": "Special-Purpose", "type": "Class"}, "parentProduct": {"href": "/mdr/cdashig/2-1", "title": "Clinical Data Acquisition Standards Harmonization Implementation Guide for Human Clinical Trials Version 2.1", "type": "Implementation Guide"}, "priorVersion": {"href": "/mdr/cdashig/2-0/domains/DM", "title": "Demographics", "type": "CDASH Domain"}, "self": {"href": "/mdr/cdashig/2-1/domains/DM", "title": "Demographics", "type": "CDASH Domain"}}, "fields": [{"_links": {"implements": {"href": "/mdr/cdash/1-1/classes/Identifiers/fields/STUDYID", "title": "Study Identifier", "type": "Class Variable"}, "parentDomain": {"href": "/mdr/cdashig/2-1/domains/DM", "title": "Demographics", "type": "CDASH Domain"}, "parentProduct": {"href": "/mdr/cdashig/2-1", "title": "Clinical Data Acquisition Standards Harmonization Implementation Guide for Human Clinical Trials Version 2.1", "type": "Implementation Guide"}, "priorVersion": {"href": "/mdr/cdashig/2-0/domains/DM/fields/STUDYID", "title": "Study Identifier", "type": "Data Collection Field"}, "rootItem": {"href": "/mdr/root/cdashig/domains/DM/fields/STUDYID", "title": "Version-agnostic anchor element for field DM.STUDYID", "type": "Root Data Element"}, "sdtmigDatasetMappingTargets": [{"href": "/mdr/sdtmig/3-2/datasets/DM/variables/STUDYID", "title": "Study Identifier", "type": "SDTM Dataset Variable"}], "self": {"href": "/mdr/cdashig/2-1/domains/DM/fields/STUDYID", "title": "Study Identifier", "type": "Data Collection Field"}}, "core": "HR", "definition": "A unique identifier for a study.", "implementationNotes": "While this field is not typically captured on a CRF, it should be displayed clearly on the CRF and/or the EDC system. This field can be included into the database or populated during SDTM-based dataset creation before submission.", "label": "Study Identifier", "mappingInstructions": "Maps directly to the SDTMIG variable listed in the column with the heading SDTMIG Target.", "name": "STUDYID", "ordinal": "1", "prompt": "[Protocol/Study]", "questionText": "What is the study identifier?", "simpleDatatype": "Char"}, {"_links": {"implements": {"href": "/mdr/cdash/1-1/domains/DM/fields/SITEID", "title": "Study Site Identifier", "type": "Data Collection Field"}, "parentDomain": {"href": "/mdr/cdashig/2-1/domains/DM", "title": "Demographics", "type": "CDASH Domain"}, "parentProduct": {"href": "/mdr/cdashig/2-1", "title": "Clinical Data Acquisition Standards Harmonization Implementation Guide for Human Clinical Trials Version 2.1", "type": "Implementation Guide"}, "priorVersion": {"href": "/mdr/cdashig/2-0/domains/DM/fields/SITEID", "title": "Study Site Identifier", "type": "Data Collection Field"}, "rootItem": {"href": "/mdr/root/cdashig/domains/DM/fields/SITEID", "title": "Version-agnostic anchor element for field DM.SITEID", "type": "Root Data Element"}, "sdtmigDatasetMappingTargets": [{"href": "/mdr/sdtmig/3-2/datasets/DM/variables/SITEID", "title": "Study Site Identifier", "type": "SDTM Dataset Variable"}], "self": {"href": "/mdr/cdashig/2-1/domains/DM/fields/SITEID", "title": "Study Site Identifier", "type": "Data Collection Field"}}, "core": "HR", "definition": "A unique identifier for a site within a study.", "implementationNotes": "Paper: This is typically preprinted in the header of each CRF page for single site studies. For studies with multiple sites, this field may be left blank so that the number can be recorded by the site, or it may be preprinted for the CRFs that are shipped to each site. EDC: This should be prepopulated.", "label": "Study Site Identifier", "mappingInstructions": "Maps directly to the SDTMIG variable listed in the column with the heading SDTMIG Target.", "name": "SITEID", "ordinal": "2", "prompt": "Site (Identifier)", "questionText": "What is the site identifier?", "simpleDatatype": "Char"}, {"_links": {"implements": {"href": "/mdr/cdash/1-1/classes/Identifiers/fields/SUBJID", "title": "Subject Identifier for the Study", "type": "Class Variable"}, "parentDomain": {"href": "/mdr/cdashig/2-1/domains/DM", "title": "Demographics", "type": "CDASH Domain"}, "parentProduct": {"href": "/mdr/cdashig/2-1", "title": "Clinical Data Acquisition Standards Harmonization Implementation Guide for Human Clinical Trials Version 2.1", "type": "Implementation Guide"}, "priorVersion": {"href": "/mdr/cdashig/2-0/domains/DM/fields/SUBJID", "title": "Subject Identifier for the Study", "type": "Data Collection Field"}, "rootItem": {"href": "/mdr/root/cdashig/domains/DM/fields/SUBJID", "title": "Version-agnostic anchor element for field DM.SUBJID", "type": "Root Data Element"}, "sdtmigDatasetMappingTargets": [{"href": "/mdr/sdtmig/3-2/datasets/DM/variables/SUBJID", "title": "Subject Identifier for the Study", "type": "SDTM Dataset Variable"}], "self": {"href": "/mdr/cdashig/2-1/domains/DM/fields/SUBJID", "title": "Subject Identifier for the Study", "type": "Data Collection Field"}}, "completionInstructions": "Record the identifier for the subject.", "core": "HR", "definition": "A unique subject identifier within a site and a study.", "implementationNotes": "Paper: This is typically recorded in the header of each CRF page. EDC: The subject identifiers may be system generated. This CDASH variable is typically collected in all CDASH domains. However, this CDASH variable is populated only in the SDTMIG DM domain. For more information, refer to the SDTM Implementation Guide.", "label": "Subject Identifier for the Study", "mappingInstructions": "Maps directly to the SDTMIG variable listed in the column with the heading SDTMIG Target.", "name": "SUBJID", "ordinal": "3", "prompt": "[Subject/Participant] (Identifier)", "questionText": "What [is/was] the (study) [subject/participant] identifier?", "simpleDatatype": "Char"}, {"_links": {"implements": {"href": "/mdr/cdash/1-1/domains/DM/fields/BRTHDAT", "title": "Birth Date", "type": "Data Collection Field"}, "parentDomain": {"href": "/mdr/cdashig/2-1/domains/DM", "title": "Demographics", "type": "CDASH Domain"}, "parentProduct": {"href": "/mdr/cdashig/2-1", "title": "Clinical Data Acquisition Standards Harmonization Implementation Guide for Human Clinical Trials Version 2.1", "type": "Implementation Guide"}, "priorVersion": {"href": "/mdr/cdashig/2-0/domains/DM/fields/BRTHDAT", "title": "Date of Birth", "type": "Data Collection Field"}, "rootItem": {"href": "/mdr/root/cdashig/domains/DM/fields/BRTHDAT", "title": "Version-agnostic anchor element for field DM.BRTHDAT", "type": "Root Data Element"}, "sdtmigDatasetMappingTargets": [{"href": "/mdr/sdtmig/3-2/datasets/DM/variables/BRTHDTC", "title": "Date/Time of Birth", "type": "SDTM Dataset Variable"}], "self": {"href": "/mdr/cdashig/2-1/domains/DM/fields/BRTHDAT", "title": "Birth Date", "type": "Data Collection Field"}}, "completionInstructions": "Record the date of birth to the level of precision known (e.g., day/month/year, year, month/year, etc.) in this format (DD-MON-YYYY).", "core": "R/C", "definition": "A subject's date of birth (with or without the time of birth). The complete Date of Birth is made from the temporal components of Birth Year, Birth Month, Birth Day and Birth Time.", "implementationNotes": "BRTHDAT is the collected field used for recording the full birth date. The sponsor may choose to database the date of birth as a single variable (BRTHDAT), or as separate variables for each component of the date/time (BRTHYY, BRTHMO, BRTHDD, BRTHTIM). The sponsor may choose a method based on database considerations, or for regulatory reasons. It is expected that what is collected for BRTHDAT (complete date or whichever components are collected) is reported in the SDTMIG variable BRTHDTC in the ISO 8601 format. If data are collected in a manner resulting in a reduced precision level, then the AGE (SDTM expected variable), if not collected on the CRF, should be derived using a documented algorithm that describes how the age was determined and/or imputed for those birth dates collected with reduced precision.", "label": "Birth Date", "mappingInstructions": "This does not map directly to an SDTMIG variable. For the SDTM submission dataset, concatenate all collected CDASH DATE and TIME components and populate the SDTMIG variable BRTHDTC in ISO 8601 format.", "name": "BRTHDAT", "ordinal": "4", "prompt": "Birth Date", "questionText": "What is the subject's date of birth?", "simpleDatatype": "Char"}, {"_links": {"implements": {"href": "/mdr/cdash/1-1/domains/DM/fields/BRTHDD", "title": "Birth Day", "type": "Data Collection Field"}, "parentDomain": {"href": "/mdr/cdashig/2-1/domains/DM", "title": "Demographics", "type": "CDASH Domain"}, "parentProduct": {"href": "/mdr/cdashig/2-1", "title": "Clinical Data Acquisition Standards Harmonization Implementation Guide for Human Clinical Trials Version 2.1", "type": "Implementation Guide"}, "priorVersion": {"href": "/mdr/cdashig/2-0/domains/DM/fields/BRTHDD", "title": "Day of Birth", "type": "Data Collection Field"}, "rootItem": {"href": "/mdr/root/cdashig/domains/DM/fields/BRTHDD", "title": "Version-agnostic anchor element for field DM.BRTHDD", "type": "Root Data Element"}, "sdtmigDatasetMappingTargets": [{"href": "/mdr/sdtmig/3-2/datasets/DM/variables/BRTHDTC", "title": "Date/Time of Birth", "type": "SDTM Dataset Variable"}], "self": {"href": "/mdr/cdashig/2-1/domains/DM/fields/BRTHDD", "title": "Birth Day", "type": "Data Collection Field"}}, "completionInstructions": "Record the subject's day of birth (e.g., 01 or 31).", "core": "R/C", "definition": "Day of birth of the subject in an unambiguous date format (e.g., DD).", "implementationNotes": "Day of Birth is the collected variable used for recording the day component of the Date of Birth. The sponsor may choose to database the date of birth as a single variable (BRTHDAT), or as separate variables for each component of the date/time (BRTHYY, BRTHMO, BRTHDD, BRTHTIM). The sponsor may choose a method based on database considerations, or for regulatory reasons. It is expected that what is collected for BRTHDAT (complete date or whichever components are collected) is reported in the SDTMIG variable BRTHDTC in the ISO 8601 format. If data are collected in a manner resulting in a reduced precision level, then the AGE (SDTM expected variable), if not collected on the CRF, should be derived using a documented algorithm that describes how the age was derived and/or imputed for those birth dates collected with reduced precision.", "label": "Birth Day", "mappingInstructions": "This does not map directly to an SDTMIG variable. For the SDTM submission dataset, concatenate all collected CDASH DATE and TIME components and populate the SDTMIG variable BRTHDTC in ISO 8601 format.", "name": "BRTHDD", "ordinal": "5", "prompt": "Birth Day", "questionText": "What is the subject's day of birth?", "simpleDatatype": "Char"}, {"_links": {"implements": {"href": "/mdr/cdash/1-1/domains/DM/fields/BRTHMO", "title": "Birth Month", "type": "Data Collection Field"}, "parentDomain": {"href": "/mdr/cdashig/2-1/domains/DM", "title": "Demographics", "type": "CDASH Domain"}, "parentProduct": {"href": "/mdr/cdashig/2-1", "title": "Clinical Data Acquisition Standards Harmonization Implementation Guide for Human Clinical Trials Version 2.1", "type": "Implementation Guide"}, "priorVersion": {"href": "/mdr/cdashig/2-0/domains/DM/fields/BRTHMO", "title": "Month of Birth", "type": "Data Collection Field"}, "rootItem": {"href": "/mdr/root/cdashig/domains/DM/fields/BRTHMO", "title": "Version-agnostic anchor element for field DM.BRTHMO", "type": "Root Data Element"}, "sdtmigDatasetMappingTargets": [{"href": "/mdr/sdtmig/3-2/datasets/DM/variables/BRTHDTC", "title": "Date/Time of Birth", "type": "SDTM Dataset Variable"}], "self": {"href": "/mdr/cdashig/2-1/domains/DM/fields/BRTHMO", "title": "Birth Month", "type": "Data Collection Field"}}, "completionInstructions": "Record the subject's month of birth [e.g., (in local language short month format) (JAN-DEC) or (ENE-DIE) or (JAN-DEZ), etc.].", "core": "R/C", "definition": "Month of birth of the subject in an unambiguous date format (e.g., MMM).", "implementationNotes": "Month of Birth is the collected variable used for recording the month component of the Date of Birth. The sponsor may choose to database the date of birth as a single variable (BRTHDAT), or as separate variables for each component of the date/time (BRTHYY, BRTHMO, BRTHDD, BRTHTIM). The sponsor may choose a method based on database considerations, or for regulatory reasons. It is expected that what is collected for BRTHDAT (complete date or whichever components are collected) is reported in the SDTMIG variable BRTHDTC in the ISO 8601 format. If data are collected in a manner resulting in a reduced precision level, then the AGE (SDTM expected variable), if not collected on the CRF, should be derived using a documented algorithm that describes how the age was derived and/or imputed for those birth dates collected with reduced precision.", "label": "Birth Month", "mappingInstructions": "This does not map directly to an SDTMIG variable. For the SDTM submission dataset, concatenate all collected CDASH DATE and TIME components and populate the SDTMIG variable BRTHDTC in ISO 8601 format.", "name": "BRTHMO", "ordinal": "6", "prompt": "Birth Month", "questionText": "What is the subject's month of birth?", "simpleDatatype": "Char"}, {"_links": {"implements": {"href": "/mdr/cdash/1-1/domains/DM/fields/BRTHYY", "title": "Birth Year", "type": "Data Collection Field"}, "parentDomain": {"href": "/mdr/cdashig/2-1/domains/DM", "title": "Demographics", "type": "CDASH Domain"}, "parentProduct": {"href": "/mdr/cdashig/2-1", "title": "Clinical Data Acquisition Standards Harmonization Implementation Guide for Human Clinical Trials Version 2.1", "type": "Implementation Guide"}, "priorVersion": {"href": "/mdr/cdashig/2-0/domains/DM/fields/BRTHYY", "title": "Year of Birth", "type": "Data Collection Field"}, "rootItem": {"href": "/mdr/root/cdashig/domains/DM/fields/BRTHYY", "title": "Version-agnostic anchor element for field DM.BRTHYY", "type": "Root Data Element"}, "sdtmigDatasetMappingTargets": [{"href": "/mdr/sdtmig/3-2/datasets/DM/variables/BRTHDTC", "title": "Date/Time of Birth", "type": "SDTM Dataset Variable"}], "self": {"href": "/mdr/cdashig/2-1/domains/DM/fields/BRTHYY", "title": "Birth Year", "type": "Data Collection Field"}}, "completionInstructions": "Record the subject's year of birth (e.g., YYYY, a four-digit year).", "core": "R/C", "definition": "The year of birth of the subject in an unambiguous date format (e.g., YYYY).", "implementationNotes": "Year of Birth is the collected variable used for recording the year component of the Date of Birth. The sponsor may choose to database the date of birth as a single variable (BRTHDAT), or as separate variables for each component of the date/time (BRTHYY, BRTHMO, BRTHDD, BRTHTIM). The sponsor may choose a method based on database considerations, or for regulatory reasons. It is expected that what is collected for BRTHDAT (complete date or whichever components are collected) is reported in the SDTMIG variable BRTHDTC in the ISO 8601 format. If data are collected in a manner resulting in a reduced precision level, then the AGE (SDTM expected variable), if not collected on the CRF, should be derived using a documented algorithm that describes how the age was derived and/or imputed for those birth dates collected with reduced precision.", "label": "Birth Year", "mappingInstructions": "This does not map directly to an SDTMIG variable. For the SDTM submission dataset, concatenate all collected CDASH DATE and TIME components and populate the SDTMIG variable BRTHDTC in ISO 8601 format.", "name": "BRTHYY", "ordinal": "7", "prompt": "Birth Year", "questionText": "What is the subject's year of birth?", "simpleDatatype": "Char"}, {"_links": {"implements": {"href": "/mdr/cdash/1-1/domains/DM/fields/BRTHTIM", "title": "Birth Time", "type": "Data Collection Field"}, "parentDomain": {"href": "/mdr/cdashig/2-1/domains/DM", "title": "Demographics", "type": "CDASH Domain"}, "parentProduct": {"href": "/mdr/cdashig/2-1", "title": "Clinical Data Acquisition Standards Harmonization Implementation Guide for Human Clinical Trials Version 2.1", "type": "Implementation Guide"}, "priorVersion": {"href": "/mdr/cdashig/2-0/domains/DM/fields/BRTHTIM", "title": "Time of Birth", "type": "Data Collection Field"}, "rootItem": {"href": "/mdr/root/cdashig/domains/DM/fields/BRTHTIM", "title": "Version-agnostic anchor element for field DM.BRTHTIM", "type": "Root Data Element"}, "sdtmigDatasetMappingTargets": [{"href": "/mdr/sdtmig/3-2/datasets/DM/variables/BRTHDTC", "title": "Date/Time of Birth", "type": "SDTM Dataset Variable"}], "self": {"href": "/mdr/cdashig/2-1/domains/DM/fields/BRTHTIM", "title": "Birth Time", "type": "Data Collection Field"}}, "completionInstructions": "Record the time of birth (as completely as possible).", "core": "O", "definition": "The time of birth of the subject in an unambiguous time format (e.g., hh:mm)", "implementationNotes": "The level of detail collected by Time of Birth may be necessary for analysis for some pediatric, natal or neonatal studies. The sponsor may choose to database the date of birth as a single variable (BRTHDAT), or as separate variables for each component of the date/time (BRTHYY, BRTHMO, BRTHDD, BRTHTIM). The sponsor may choose a method based on database considerations, or for regulatory reasons. It is expected that what is collected for BRTHDAT (complete date or whichever components are collected) is reported in the SDTMIG variable BRTHDTC in the ISO 8601 format. If data are collected in a manner resulting in a reduced precision level, then the AGE (SDTMIG expected variable), if not collected on the CRF, should be derived using a documented algorithm that describes how the age was derived and/or imputed for those birth dates collected with reduced precision.", "label": "Birth Time", "mappingInstructions": "This does not map directly to an SDTMIG variable. For the SDTM submission dataset, concatenate all collected CDASH DATE and TIME components and populate the SDTMIG variable BRTHDTC in ISO 8601 format.", "name": "BRTHTIM", "ordinal": "8", "prompt": "Birth Time", "questionText": "What is the subject's time of birth?", "simpleDatatype": "Char"}, {"_links": {"implements": {"href": "/mdr/cdash/1-1/domains/DM/fields/AGE", "title": "Age", "type": "Data Collection Field"}, "parentDomain": {"href": "/mdr/cdashig/2-1/domains/DM", "title": "Demographics", "type": "CDASH Domain"}, "parentProduct": {"href": "/mdr/cdashig/2-1", "title": "Clinical Data Acquisition Standards Harmonization Implementation Guide for Human Clinical Trials Version 2.1", "type": "Implementation Guide"}, "priorVersion": {"href": "/mdr/cdashig/2-0/domains/DM/fields/AGE", "title": "Age", "type": "Data Collection Field"}, "rootItem": {"href": "/mdr/root/cdashig/domains/DM/fields/AGE", "title": "Version-agnostic anchor element for field DM.AGE", "type": "Root Data Element"}, "sdtmigDatasetMappingTargets": [{"href": "/mdr/sdtmig/3-2/datasets/DM/variables/AGE", "title": "Age", "type": "SDTM Dataset Variable"}], "self": {"href": "/mdr/cdashig/2-1/domains/DM/fields/AGE", "title": "Age", "type": "Data Collection Field"}}, "completionInstructions": "Record age of the subject.", "core": "O", "definition": "The age of the subject expressed in AGEU.", "implementationNotes": "If Age is collected, it should be collected as a number and, to be correctly interpreted, the age value should be associated to a variable for the Age Unit. It may be necessary to know when the age was collected as an age may need to be recalculated for analysis, such as deriving age at a reference start time (RFSTDTC for SDTM). BRTHDTC may not be available in all cases (due to subject privacy concerns).If AGE is collected, then it is recommended that the date of collection also be recorded, either separately or by association to the date of the visit.", "label": "Age", "mappingInstructions": "Maps directly to the SDTMIG variable listed in the column with the heading SDTMIG Target.", "name": "AGE", "ordinal": "9", "prompt": "Age", "questionText": "What is the subject's age?", "simpleDatatype": "Num"}, {"_links": {"codelist": [{"href": "/mdr/root/ct/sdtmct/codelists/C66781", "title": "Version-agnostic anchor resource for codelist C66781", "type": "Root Value Domain"}], "implements": {"href": "/mdr/cdash/1-1/domains/DM/fields/AGEU", "title": "Age Units", "type": "Data Collection Field"}, "parentDomain": {"href": "/mdr/cdashig/2-1/domains/DM", "title": "Demographics", "type": "CDASH Domain"}, "parentProduct": {"href": "/mdr/cdashig/2-1", "title": "Clinical Data Acquisition Standards Harmonization Implementation Guide for Human Clinical Trials Version 2.1", "type": "Implementation Guide"}, "priorVersion": {"href": "/mdr/cdashig/2-0/domains/DM/fields/AGEU", "title": "Age Units", "type": "Data Collection Field"}, "rootItem": {"href": "/mdr/root/cdashig/domains/DM/fields/AGEU", "title": "Version-agnostic anchor element for field DM.AGEU", "type": "Root Data Element"}, "sdtmigDatasetMappingTargets": [{"href": "/mdr/sdtmig/3-2/datasets/DM/variables/AGEU", "title": "Age Units", "type": "SDTM Dataset Variable"}], "self": {"href": "/mdr/cdashig/2-1/domains/DM/fields/AGEU", "title": "Age Units", "type": "Data Collection Field"}}, "completionInstructions": "Record the appropriate age unit (e.g., YEARS, MONTHS, WEEKS, etc.).", "core": "O", "definition": "Those units of time that are routinely used to express the age of a person.", "implementationNotes": "If Age is captured on the CRF, the age unit must be known to make the age value meaningful. The age unit might be collected on the CRF, in those cases where the protocol allows for any age group, or it may be preprinted on the CRF (typically with the unit of \"years\").", "label": "Age Units", "mappingInstructions": "Maps directly to the SDTMIG variable listed in the column with the heading SDTMIG Target.", "name": "AGEU", "ordinal": "10", "prompt": "Age Unit", "questionText": "What is the age unit used?", "simpleDatatype": "Char"}, {"_links": {"implements": {"href": "/mdr/cdash/1-1/classes/Timing/fields/--DAT", "title": "Collection Date", "type": "Class Variable"}, "parentDomain": {"href": "/mdr/cdashig/2-1/domains/DM", "title": "Demographics", "type": "CDASH Domain"}, "parentProduct": {"href": "/mdr/cdashig/2-1", "title": "Clinical Data Acquisition Standards Harmonization Implementation Guide for Human Clinical Trials Version 2.1", "type": "Implementation Guide"}, "priorVersion": {"href": "/mdr/cdashig/2-0/domains/DM/fields/DMDAT", "title": "Date of Demographics Collection", "type": "Data Collection Field"}, "rootItem": {"href": "/mdr/root/cdashig/domains/DM/fields/DMDAT", "title": "Version-agnostic anchor element for field DM.DMDAT", "type": "Root Data Element"}, "sdtmigDatasetMappingTargets": [{"href": "/mdr/sdtmig/3-2/datasets/DM/variables/DMDTC", "title": "Date/Time of Collection", "type": "SDTM Dataset Variable"}], "self": {"href": "/mdr/cdashig/2-1/domains/DM/fields/DMDAT", "title": "Demographics Collection Date", "type": "Data Collection Field"}}, "completionInstructions": "Record the date of collection using this format (DD-MON-YYYY).", "core": "R/C", "definition": "The date of collection represented in an unambiguous date format (e.g., DD-MON-YYYY)", "implementationNotes": "The date of collection may be determined from the date of visit; if so, a separate date field is not needed.", "label": "Demographics Collection Date", "mappingInstructions": "This does not map directly to an SDTMIG variable. For the SDTM submission dataset, concatenate all collected CDASH DATE and TIME components and populate the SDTMIG variable DMDTC in ISO 8601 format.", "name": "DMDAT", "ordinal": "11", "prompt": "Collection Date", "questionText": "What is the date of collection?", "simpleDatatype": "Char"}, {"_links": {"codelist": [{"href": "/mdr/root/ct/sdtmct/codelists/C66731", "title": "Version-agnostic anchor resource for codelist C66731", "type": "Root Value Domain"}], "implements": {"href": "/mdr/cdash/1-1/domains/DM/fields/SEX", "title": "Sex", "type": "Data Collection Field"}, "parentDomain": {"href": "/mdr/cdashig/2-1/domains/DM", "title": "Demographics", "type": "CDASH Domain"}, "parentProduct": {"href": "/mdr/cdashig/2-1", "title": "Clinical Data Acquisition Standards Harmonization Implementation Guide for Human Clinical Trials Version 2.1", "type": "Implementation Guide"}, "priorVersion": {"href": "/mdr/cdashig/2-0/domains/DM/fields/SEX", "title": "Sex", "type": "Data Collection Field"}, "rootItem": {"href": "/mdr/root/cdashig/domains/DM/fields/SEX", "title": "Version-agnostic anchor element for field DM.SEX", "type": "Root Data Element"}, "sdtmigDatasetMappingTargets": [{"href": "/mdr/sdtmig/3-2/datasets/DM/variables/SEX", "title": "Sex", "type": "SDTM Dataset Variable"}], "self": {"href": "/mdr/cdashig/2-1/domains/DM/fields/SEX", "title": "Sex", "type": "Data Collection Field"}}, "completionInstructions": "Record the appropriate sex (e.g., F (female), M (male).", "core": "R/C", "definition": "Sex of the subject as determined by the investigator.", "implementationNotes": "Collect the subject's sex or gender, as reported by the investigator. This is a phenotypic assessment and not a genotypic assessment.", "label": "Sex", "mappingInstructions": "Maps directly to the SDTMIG variable listed in the column with the heading SDTMIG Target.", "name": "SEX", "ordinal": "12", "prompt": "Sex", "questionText": "What is the sex of the subject?", "simpleDatatype": "Char"}, {"_links": {"codelist": [{"href": "/mdr/root/ct/sdtmct/codelists/C66790", "title": "Version-agnostic anchor resource for codelist C66790", "type": "Root Value Domain"}], "implements": {"href": "/mdr/cdash/1-1/domains/DM/fields/ETHNIC", "title": "Ethnicity", "type": "Data Collection Field"}, "parentDomain": {"href": "/mdr/cdashig/2-1/domains/DM", "title": "Demographics", "type": "CDASH Domain"}, "parentProduct": {"href": "/mdr/cdashig/2-1", "title": "Clinical Data Acquisition Standards Harmonization Implementation Guide for Human Clinical Trials Version 2.1", "type": "Implementation Guide"}, "priorVersion": {"href": "/mdr/cdashig/2-0/domains/DM/fields/ETHNIC", "title": "Ethnicity", "type": "Data Collection Field"}, "rootItem": {"href": "/mdr/root/cdashig/domains/DM/fields/ETHNIC", "title": "Version-agnostic anchor element for field DM.ETHNIC", "type": "Root Data Element"}, "sdtmigDatasetMappingTargets": [{"href": "/mdr/sdtmig/3-2/datasets/DM/variables/ETHNIC", "title": "Ethnicity", "type": "SDTM Dataset Variable"}], "self": {"href": "/mdr/cdashig/2-1/domains/DM/fields/ETHNIC", "title": "Ethnicity", "type": "Data Collection Field"}}, "completionInstructions": "Study participants should self-report ethnicity, with ethnicity being asked about before race.", "core": "O", "definition": "A social group characterized by a distinctive social and cultural tradition maintained from generation to generation, a common history and origin and a sense of identification with the group; members of the group have distinctive features in their way of life, shared experiences and often a common genetic heritage; these features may be reflected in their experience of health and disease.", "implementationNotes": "For use when values are being collected using the exact non-extensible ETHNIC codelist (C66790) values. Sponsors should refer to the FDA's Collection of Race and Ethnicity Data in Clinical Trials guidance regarding the collection of ethnicity (http://www.fda.gov/).", "label": "Ethnicity", "mappingInstructions": "Maps directly to the SDTMIG variable listed in the column with the heading SDTMIG Target.", "name": "ETHNIC", "ordinal": "13", "prompt": "Ethnicity", "questionText": "Do you consider yourself Hispanic/Latino or not Hispanic/Latino?", "simpleDatatype": "Char"}, {"_links": {"codelist": [{"href": "/mdr/root/ct/sdtmct/codelists/C128690", "title": "Version-agnostic anchor resource for codelist C128690", "type": "Root Value Domain"}], "implements": {"href": "/mdr/cdash/1-1/domains/DM/fields/CETHNIC", "title": "Collected Ethnicity", "type": "Data Collection Field"}, "parentDomain": {"href": "/mdr/cdashig/2-1/domains/DM", "title": "Demographics", "type": "CDASH Domain"}, "parentProduct": {"href": "/mdr/cdashig/2-1", "title": "Clinical Data Acquisition Standards Harmonization Implementation Guide for Human Clinical Trials Version 2.1", "type": "Implementation Guide"}, "priorVersion": {"href": "/mdr/cdashig/2-0/domains/DM/fields/CETHNIC", "title": "Collected Ethnicity", "type": "Data Collection Field"}, "rootItem": {"href": "/mdr/root/cdashig/domains/DM/fields/CETHNIC", "title": "Version-agnostic anchor element for field DM.CETHNIC", "type": "Root Data Element"}, "sdtmigDatasetMappingTargets": [{"href": "/mdr/sdtmig/3-2/datasets/SUPPQUAL/variables/QVAL", "title": "Data Value", "type": "SDTM Dataset Variable"}], "self": {"href": "/mdr/cdashig/2-1/domains/DM/fields/CETHNIC", "title": "Collected Ethnicity", "type": "Data Collection Field"}}, "completionInstructions": "Study participants should self-report ethnicity, with ethnicity being asked about before race.", "core": "O", "definition": "A social group characterized by a distinctive social and cultural tradition maintained from generation to generation, a common history and origin and a sense of identification with the group; members of the group have distinctive features in their way of life, shared experiences and often a common genetic heritage; these features may be reflected in their experience of health and disease.", "implementationNotes": "Use when values are collected using the NCI Thesaurus codelist for Ethnicity As Collected (C128690), the extended HL7 hierarchy of codelist values, or other regulatory agency-specific controlled terminology for Ethnic Group. Sponsors may append a suffix to denote multiple collected ethnicities (e.g. CETHNIC1, CETHNIC2).", "label": "Collected Ethnicity", "mappingInstructions": "This does not map directly to an SDTMIG variable. This information could be submitted in a SUPPDM dataset as the value of SUPPDM.QVAL where SUPPDM.QNAM = \"CETHNIC\" and SUPPDM.QLABEL= \"Collected Ethnicity\". See SDTMIG v3.2 Section 5, DM Domain. Refer to the current SDTM and SDTMIG for instructions on placement of non-standard variables in SDTM domains.", "name": "CETHNIC", "ordinal": "14", "prompt": "Ethnicity", "questionText": "What is the ethnicity of the subject?", "simpleDatatype": "Char"}, {"_links": {"codelist": [{"href": "/mdr/root/ct/sdtmct/codelists/C74457", "title": "Version-agnostic anchor resource for codelist C74457", "type": "Root Value Domain"}], "implements": {"href": "/mdr/cdash/1-1/domains/DM/fields/RACE", "title": "Race", "type": "Data Collection Field"}, "parentDomain": {"href": "/mdr/cdashig/2-1/domains/DM", "title": "Demographics", "type": "CDASH Domain"}, "parentProduct": {"href": "/mdr/cdashig/2-1", "title": "Clinical Data Acquisition Standards Harmonization Implementation Guide for Human Clinical Trials Version 2.1", "type": "Implementation Guide"}, "priorVersion": {"href": "/mdr/cdashig/2-0/domains/DM/fields/RACE", "title": "Race", "type": "Data Collection Field"}, "rootItem": {"href": "/mdr/root/cdashig/domains/DM/fields/RACE", "title": "Version-agnostic anchor element for field DM.RACE", "type": "Root Data Element"}, "sdtmigDatasetMappingTargets": [{"href": "/mdr/sdtmig/3-2/datasets/DM/variables/RACE", "title": "Race", "type": "SDTM Dataset Variable"}], "self": {"href": "/mdr/cdashig/2-1/domains/DM/fields/RACE", "title": "Race", "type": "Data Collection Field"}}, "completionInstructions": "Study participants should self-report race, with race being asked about after ethnicity.", "core": "R/C", "definition": "An arbitrary classification based on physical characteristics; a group of persons related by common descent or heredity (U.S. Center for Disease Control).", "implementationNotes": "Use RACE when the 5 designations for race used by the FDA are collected (American Indian or Alaska Native; Asian; Black or African American; Native Hawaiian or Other Pacific Islander ; White).* Sponsors should refer to the FDA Guidance. See SDTMIG v3.2 Section 5, DM Domain. \n *For studies where data are collected outside the US, the recommended categories are the same except for Black instead of Black or African American. If multiple races are collected, an alternate sponsor-defined variable structure would be required. Sponsors may record multiple self-reported races for a subject by appending a suffix to denote multiple collected races (e.g. RACE1, RACE2) and populate RACE with the value MULTIPLE.", "label": "Race", "mappingInstructions": "Maps directly to the SDTMIG variable listed in the column with the heading SDTMIG Target.", "name": "RACE", "ordinal": "15", "prompt": "Race", "questionText": "Which of the following five racial designations best describes you? (More than one choice is acceptable.)", "simpleDatatype": "Char"}, {"_links": {"codelist": [{"href": "/mdr/root/ct/sdtmct/codelists/C128689", "title": "Version-agnostic anchor resource for codelist C128689", "type": "Root Value Domain"}], "implements": {"href": "/mdr/cdash/1-1/domains/DM/fields/CRACE", "title": "Collected Race", "type": "Data Collection Field"}, "parentDomain": {"href": "/mdr/cdashig/2-1/domains/DM", "title": "Demographics", "type": "CDASH Domain"}, "parentProduct": {"href": "/mdr/cdashig/2-1", "title": "Clinical Data Acquisition Standards Harmonization Implementation Guide for Human Clinical Trials Version 2.1", "type": "Implementation Guide"}, "priorVersion": {"href": "/mdr/cdashig/2-0/domains/DM/fields/CRACE", "title": "Collected Race", "type": "Data Collection Field"}, "rootItem": {"href": "/mdr/root/cdashig/domains/DM/fields/CRACE", "title": "Version-agnostic anchor element for field DM.CRACE", "type": "Root Data Element"}, "sdtmigDatasetMappingTargets": [{"href": "/mdr/sdtmig/3-2/datasets/SUPPQUAL/variables/QVAL", "title": "Data Value", "type": "SDTM Dataset Variable"}], "self": {"href": "/mdr/cdashig/2-1/domains/DM/fields/CRACE", "title": "Collected Race", "type": "Data Collection Field"}}, "completionInstructions": "Study participants should self-report race, with race being asked about after ethnicity. (The FDA guidance suggests that individuals be permitted to designate a multiracial identity. Check all that apply at the time of collection).", "core": "R/C", "definition": "An arbitrary classification based on physical characteristics; a group of persons related by common descent or heredity (US Centers for Disease Control).", "implementationNotes": "Use CRACE when more detailed race categorizations are desired (e.g., more than the 5 minimum designations for race used by the FDA). The use of race and vocabulary tables located within the HL7 Reference Information Model Structural Vocabulary Tables is recommended, as they are designed to collapse up to the SDTM variable RACE with CT (e.g., American Indian or Alaska Native Asian; Black or African American; Native Hawaiian or Other Pacific Islander; White ).* If sponsors choose to map the extended Race codelist values to RACE CT (e.g., Japanese to Asian), then this mapped variable would be reported using the SDTMIG variable RACE. Sponsors should refer to the FDA Guidance. \n *For studies where data are collected outside the US, the recommended categories are the same except for Black instead of Black or African American. If multiple races are collected, an alternate sponsor-defined variable structure would be required. Sponsors may record multiple self-reported races for a subject by appending a suffix to denote multiple collected races (e.g. CRACE1, CRACE2) and populate CRACE with the value MULTIPLE.", "label": "Collected Race", "mappingInstructions": "This does not map directly to an SDTMIG variable. This information could be submitted in a SUPPDM dataset as the value of SUPPDM.QVAL when SUPPDM.QNAM = \"CRACE\" and SUPPDM.QLABEL=\"Collected Race\". See SDTMIG v3.2 Section 5 for the DM Domain.", "name": "CRACE", "ordinal": "16", "prompt": "Race", "questionText": "Which of the following racial designations best describes you? (More than one choice is acceptable.)", "simpleDatatype": "Char"}, {"_links": {"implements": {"href": "/mdr/cdash/1-1/domains/DM/fields/RACEOTH", "title": "Race Other", "type": "Data Collection Field"}, "parentDomain": {"href": "/mdr/cdashig/2-1/domains/DM", "title": "Demographics", "type": "CDASH Domain"}, "parentProduct": {"href": "/mdr/cdashig/2-1", "title": "Clinical Data Acquisition Standards Harmonization Implementation Guide for Human Clinical Trials Version 2.1", "type": "Implementation Guide"}, "priorVersion": {"href": "/mdr/cdashig/2-0/domains/DM/fields/RACEOTH", "title": "Race Other", "type": "Data Collection Field"}, "rootItem": {"href": "/mdr/root/cdashig/domains/DM/fields/RACEOTH", "title": "Version-agnostic anchor element for field DM.RACEOTH", "type": "Root Data Element"}, "sdtmigDatasetMappingTargets": [{"href": "/mdr/sdtmig/3-2/datasets/SUPPQUAL/variables/QVAL", "title": "Data Value", "type": "SDTM Dataset Variable"}], "self": {"href": "/mdr/cdashig/2-1/domains/DM/fields/RACEOTH", "title": "Race Other", "type": "Data Collection Field"}}, "completionInstructions": "If none of the pre-printed values for RACE are applicable or if another, unprinted selection should be added to those pre-printed values, record the value in this free text field.", "core": "O", "definition": "A free-text field to be used when none of the preprinted values for RACE are applicable or if another, unprinted selection should be added to those preprinted values.", "implementationNotes": "When creating the DM form, it is suggested that the 5 standard race categories be included. Sponsors may choose to include another value of Specify, Other with a free-text field for extending the list of values. The RACEOTH variable contains the free text added by the site. The value(s) added in the optional variable might or might not \"collapse up\" into one of the 5 categories specified by the FDA Guidance. See SDTMIG v3.2, Section 5 -DM Domain for examples of reporting this implementation.", "label": "Race Other", "mappingInstructions": "This does not map directly to an SDTMIG variable. This information could be submitted in a SUPPDM dataset as the value of SUPPDM.QVAL where SUPPDM.QNAM = \"RACEOTH\" and SUPP.QLABEL=\"RACE OTHER\". See SDTMIG v3.2 Section 5, DM Domain. Refer to the current SDTM and SDTMIG for instructions on placement of non-standard variables in SDTM domains.", "name": "RACEOTH", "ordinal": "17", "prompt": "Specify Other Race", "questionText": "What was the other race?", "simpleDatatype": "Char"}], "label": "Demographics", "name": "DM", "ordinal": "7"}
