{"_links": {"parentClass": {"href": "/mdr/cdashig/2-1/classes/Events", "title": "Events", "type": "Class"}, "parentProduct": {"href": "/mdr/cdashig/2-1", "title": "Clinical Data Acquisition Standards Harmonization Implementation Guide for Human Clinical Trials Version 2.1", "type": "Implementation Guide"}, "priorVersion": {"href": "/mdr/cdashig/2-0/domains/DS", "title": "Disposition", "type": "CDASH Domain"}, "self": {"href": "/mdr/cdashig/2-1/domains/DS", "title": "Disposition", "type": "CDASH Domain"}}, "fields": [{"_links": {"implements": {"href": "/mdr/cdash/1-1/classes/Identifiers/fields/STUDYID", "title": "Study Identifier", "type": "Class Variable"}, "parentDomain": {"href": "/mdr/cdashig/2-1/domains/DS", "title": "Disposition", "type": "CDASH Domain"}, "parentProduct": {"href": "/mdr/cdashig/2-1", "title": "Clinical Data Acquisition Standards Harmonization Implementation Guide for Human Clinical Trials Version 2.1", "type": "Implementation Guide"}, "priorVersion": {"href": "/mdr/cdashig/2-0/domains/DS/fields/STUDYID", "title": "Study Identifier", "type": "Data Collection Field"}, "rootItem": {"href": "/mdr/root/cdashig/domains/DS/fields/STUDYID", "title": "Version-agnostic anchor element for field DS.STUDYID", "type": "Root Data Element"}, "sdtmigDatasetMappingTargets": [{"href": "/mdr/sdtmig/3-2/datasets/DS/variables/STUDYID", "title": "Study Identifier", "type": "SDTM Dataset Variable"}], "self": {"href": "/mdr/cdashig/2-1/domains/DS/fields/STUDYID", "title": "Study Identifier", "type": "Data Collection Field"}}, "core": "HR", "definition": "A unique identifier for a study.", "implementationNotes": "While this field is not typically captured on a CRF, it should be displayed clearly on the CRF and/or the EDC system. This field can be included into the database or populated during SDTM-based dataset creation before submission.", "label": "Study Identifier", "mappingInstructions": "Maps directly to the SDTMIG variable listed in the column with the heading SDTMIG Target.", "name": "STUDYID", "ordinal": "1", "prompt": "[Protocol/Study]", "questionText": "What is the study identifier?", "simpleDatatype": "Char"}, {"_links": {"implements": {"href": "/mdr/cdash/1-1/classes/Identifiers/fields/SITEID", "title": "Study Site Identifier", "type": "Class Variable"}, "parentDomain": {"href": "/mdr/cdashig/2-1/domains/DS", "title": "Disposition", "type": "CDASH Domain"}, "parentProduct": {"href": "/mdr/cdashig/2-1", "title": "Clinical Data Acquisition Standards Harmonization Implementation Guide for Human Clinical Trials Version 2.1", "type": "Implementation Guide"}, "priorVersion": {"href": "/mdr/cdashig/2-0/domains/DS/fields/SITEID", "title": "Study Site Identifier", "type": "Data Collection Field"}, "rootItem": {"href": "/mdr/root/cdashig/domains/DS/fields/SITEID", "title": "Version-agnostic anchor element for field DS.SITEID", "type": "Root Data Element"}, "sdtmigDatasetMappingTargets": [{"href": "/mdr/sdtmig/3-2/datasets/DM/variables/SITEID", "title": "Study Site Identifier", "type": "SDTM Dataset Variable"}], "self": {"href": "/mdr/cdashig/2-1/domains/DS/fields/SITEID", "title": "Study Site Identifier", "type": "Data Collection Field"}}, "core": "HR", "definition": "A unique identifier for a site within a study.", "implementationNotes": "Paper: This is typically preprinted in the header of each CRF page for single site studies. For studies with multiple sites, this field may be left blank so that the number can be recorded by the site, or it may be preprinted on the CRFs that are shipped to each site. EDC: This should be prepopulated.", "label": "Study Site Identifier", "mappingInstructions": "Maps directly to the SDTMIG variable listed in the column with the heading SDTMIG Target.", "name": "SITEID", "ordinal": "2", "prompt": "Site (Identifier)", "questionText": "What is the site identifier?", "simpleDatatype": "Char"}, {"_links": {"implements": {"href": "/mdr/cdash/1-1/classes/Identifiers/fields/SUBJID", "title": "Subject Identifier for the Study", "type": "Class Variable"}, "parentDomain": {"href": "/mdr/cdashig/2-1/domains/DS", "title": "Disposition", "type": "CDASH Domain"}, "parentProduct": {"href": "/mdr/cdashig/2-1", "title": "Clinical Data Acquisition Standards Harmonization Implementation Guide for Human Clinical Trials Version 2.1", "type": "Implementation Guide"}, "priorVersion": {"href": "/mdr/cdashig/2-0/domains/DS/fields/SUBJID", "title": "Subject Identifier for the Study", "type": "Data Collection Field"}, "rootItem": {"href": "/mdr/root/cdashig/domains/DS/fields/SUBJID", "title": "Version-agnostic anchor element for field DS.SUBJID", "type": "Root Data Element"}, "sdtmigDatasetMappingTargets": [{"href": "/mdr/sdtmig/3-2/datasets/DM/variables/SUBJID", "title": "Subject Identifier for the Study", "type": "SDTM Dataset Variable"}], "self": {"href": "/mdr/cdashig/2-1/domains/DS/fields/SUBJID", "title": "Subject Identifier for the Study", "type": "Data Collection Field"}}, "completionInstructions": "Record the identifier for the subject.", "core": "HR", "definition": "A unique subject identifier within a site and a study.", "implementationNotes": "Paper: This is typically recorded in the header of each CRF page. EDC: The subject identifiers may be system generated. This CDASH variable is typically collected in all CDASH domains. However, this CDASH variable is populated only in the SDTMIG DM domain. For more information, refer to the SDTM Implementation Guide.", "label": "Subject Identifier for the Study", "mappingInstructions": "Maps directly to the SDTMIG variable listed in the column with the heading SDTMIG Target.", "name": "SUBJID", "ordinal": "3", "prompt": "[Subject/Participant] (Identifier)", "questionText": "What [is/was] the (study) [subject/participant] identifier?", "simpleDatatype": "Char"}, {"_links": {"codelist": [{"href": "/mdr/root/ct/sdtmct/codelists/C74558", "title": "Version-agnostic anchor resource for codelist C74558", "type": "Root Value Domain"}], "implements": {"href": "/mdr/cdash/1-1/classes/Events/fields/--CAT", "title": "Category", "type": "Class Variable"}, "parentDomain": {"href": "/mdr/cdashig/2-1/domains/DS", "title": "Disposition", "type": "CDASH Domain"}, "parentProduct": {"href": "/mdr/cdashig/2-1", "title": "Clinical Data Acquisition Standards Harmonization Implementation Guide for Human Clinical Trials Version 2.1", "type": "Implementation Guide"}, "priorVersion": {"href": "/mdr/cdashig/2-0/domains/DS/fields/DSCAT", "title": "Category for Disposition Events", "type": "Data Collection Field"}, "rootItem": {"href": "/mdr/root/cdashig/domains/DS/fields/DSCAT", "title": "Version-agnostic anchor element for field DS.DSCAT", "type": "Root Data Element"}, "sdtmigDatasetMappingTargets": [{"href": "/mdr/sdtmig/3-2/datasets/DS/variables/DSCAT", "title": "Category for Disposition Event", "type": "SDTM Dataset Variable"}], "self": {"href": "/mdr/cdashig/2-1/domains/DS/fields/DSCAT", "title": "Category for Disposition Event", "type": "Data Collection Field"}}, "completionInstructions": "If collected on the CRF, the sponsor provides instructions to ensure the data is entered as intended.", "core": "HR", "definition": "A categorization of the disposition events which is used to distinguish between disposition events, protocol milestones, and other events.", "implementationNotes": "This would most commonly be a heading on the CRF or screen, not a question to which the site would provide an answer. This is used to distinguish a DISPOSITION EVENT, a PROTOCOL MILESTONE, or an OTHER EVENT.", "label": "Category for Disposition Event", "mappingInstructions": "Maps directly to the SDTMIG variable listed in the column with the heading SDTMIG Target.", "name": "DSCAT", "ordinal": "4", "prompt": "[Disposition Category]", "questionText": "What was the category of the disposition?", "simpleDatatype": "Char"}, {"_links": {"implements": {"href": "/mdr/cdash/1-1/classes/Events/fields/--SCAT", "title": "Subcategory", "type": "Class Variable"}, "parentDomain": {"href": "/mdr/cdashig/2-1/domains/DS", "title": "Disposition", "type": "CDASH Domain"}, "parentProduct": {"href": "/mdr/cdashig/2-1", "title": "Clinical Data Acquisition Standards Harmonization Implementation Guide for Human Clinical Trials Version 2.1", "type": "Implementation Guide"}, "priorVersion": {"href": "/mdr/cdashig/2-0/domains/DS/fields/DSSCAT", "title": "Subcategory for Disposition Event", "type": "Data Collection Field"}, "rootItem": {"href": "/mdr/root/cdashig/domains/DS/fields/DSSCAT", "title": "Version-agnostic anchor element for field DS.DSSCAT", "type": "Root Data Element"}, "sdtmigDatasetMappingTargets": [{"href": "/mdr/sdtmig/3-2/datasets/DS/variables/DSSCAT", "title": "Subcategory for Disposition Event", "type": "SDTM Dataset Variable"}], "self": {"href": "/mdr/cdashig/2-1/domains/DS/fields/DSSCAT", "title": "Subcategory for Disposition Event", "type": "Data Collection Field"}}, "completionInstructions": "If collected on the CRF, the sponsor provides instructions to ensure the data is entered as intended.", "core": "O", "definition": "A sub-division of the DSCAT values based on user-defined characteristics.", "implementationNotes": "Sponsor-defined controlled terminology. This would most commonly be preprinted on the CRF or screen and prepopulated in the data management system. This is not typically a question to which the site would provide an answer. DSSCAT can only be used if there is an DSCAT with a and it must be a subcategorization of the Disposition event.", "label": "Subcategory for Disposition Event", "mappingInstructions": "Maps directly to the SDTMIG variable listed in the column with the heading SDTMIG Target.", "name": "DSSCAT", "ordinal": "5", "prompt": "[Disposition Subcategory]; NULL", "questionText": "What was the subcategory of the disposition?", "simpleDatatype": "Char"}, {"_links": {"codelist": [{"href": "/mdr/root/ct/sdtmct/codelists/C99079", "title": "Version-agnostic anchor resource for codelist C99079", "type": "Root Value Domain"}], "implements": {"href": "/mdr/cdash/1-1/classes/Timing/fields/EPOCH", "title": "Epoch", "type": "Class Variable"}, "parentDomain": {"href": "/mdr/cdashig/2-1/domains/DS", "title": "Disposition", "type": "CDASH Domain"}, "parentProduct": {"href": "/mdr/cdashig/2-1", "title": "Clinical Data Acquisition Standards Harmonization Implementation Guide for Human Clinical Trials Version 2.1", "type": "Implementation Guide"}, "priorVersion": {"href": "/mdr/cdashig/2-0/domains/DS/fields/EPOCH", "title": "Epoch", "type": "Data Collection Field"}, "rootItem": {"href": "/mdr/root/cdashig/domains/DS/fields/EPOCH", "title": "Version-agnostic anchor element for field DS.EPOCH", "type": "Root Data Element"}, "sdtmigDatasetMappingTargets": [{"href": "/mdr/sdtmig/3-2/datasets/DS/variables/EPOCH", "title": "Epoch", "type": "SDTM Dataset Variable"}], "self": {"href": "/mdr/cdashig/2-1/domains/DS/fields/EPOCH", "title": "Epoch", "type": "Data Collection Field"}}, "completionInstructions": "Check the [epoch, or insert more appropriate wording] for which disposition is being recorded.", "core": "R/C", "definition": "Trial epoch (e.g., DOUBLE BLIND, SINGLE BLIND, TREATMENT, SCREENING, RUN IN) for which subject disposition is being collected.", "implementationNotes": "If disposition events are collected more than once in the study, EPOCH may be needed to differentiate them. Typically, the trial epoch will be preprinted on the CRF as the title of the page; however, some companies have a standard CRF module that includes a pick-list of epochs. See SDTMIG for further information regarding EPOCH. EPOCH would only be populated for disposition event and not for protocol milestones.", "label": "Epoch", "mappingInstructions": "Maps directly to the SDTMIG variable listed in the column with the heading SDTMIG Target.", "name": "EPOCH", "ordinal": "6", "prompt": "Trial Period", "questionText": "What is the trial period for this disposition event?", "simpleDatatype": "Char"}, {"_links": {"codelist": [{"href": "/mdr/root/ct/sdtmct/codelists/C66727", "title": "Version-agnostic anchor resource for codelist C66727", "type": "Root Value Domain"}], "implements": {"href": "/mdr/cdash/1-1/classes/Events/fields/--DECOD", "title": "Dictionary-Derived Term", "type": "Class Variable"}, "parentDomain": {"href": "/mdr/cdashig/2-1/domains/DS", "title": "Disposition", "type": "CDASH Domain"}, "parentProduct": {"href": "/mdr/cdashig/2-1", "title": "Clinical Data Acquisition Standards Harmonization Implementation Guide for Human Clinical Trials Version 2.1", "type": "Implementation Guide"}, "priorVersion": {"href": "/mdr/cdashig/2-0/domains/DS/fields/DSDECOD", "title": "Disposition Event Dictionary-Derived/Standardized Term", "type": "Data Collection Field"}, "rootItem": {"href": "/mdr/root/cdashig/domains/DS/fields/DSDECOD", "title": "Version-agnostic anchor element for field DS.DSDECOD", "type": "Root Data Element"}, "sdtmigDatasetMappingTargets": [{"href": "/mdr/sdtmig/3-2/datasets/DS/variables/DSDECOD", "title": "Standardized Disposition Term", "type": "SDTM Dataset Variable"}], "self": {"href": "/mdr/cdashig/2-1/domains/DS/fields/DSDECOD", "title": "Standardized Disposition Term", "type": "Data Collection Field"}}, "completionInstructions": "Document the subject's status at [insert text corresponding to the selected trial epoch/study specific time frame]. If the subject discontinued prematurely, record the primary reason for discontinuation.", "core": "R/C", "definition": "The standardized terminology of the disposition term that describes whether a subject completed the study or a portion of a study (epoch) or the reason they did not complete.", "implementationNotes": "DSDECOD can be used as the standardized coded list with DSTERM used to capture any \"Specify, Other\" information, or DSDECOD can be used on its own. For Sponsor- and/or study-specific reasons for discontinuation, it is recommended that these reasons be preprinted on the CRF, as subcategories of the appropriate standardized DSDECOD item. However, it is recommended to limit the use of sponsor and study-specific reasons in order to promote consistent use of terminology and hence permit the combination of data across multiple sponsors. Either DSTERM or DSDECOD must be on the CRF. Both may be used if DSTERM is used as a \"Specify, Other\" field. \n", "label": "Standardized Disposition Term", "mappingInstructions": "Maps directly to the SDTMIG variable listed in the column with the heading SDTMIG Target. Both DSDECOD and DSTERM must be populated in the SDTM-based datasets. If DSTERM was collected as an \"Other, Specify\" free text, populate DSTERM with the free text and populate DSDECOD with the sponsor-defined standardized text. If DSDECOD was collected with no free text, populate DSTERM and DSDECOD in the SDTM-based dataset with the DSDECOD value that was collected.", "name": "DSDECOD", "ordinal": "7", "prompt": "Status (at the EPOCH/study specific time frame)", "questionText": "What was the subject's status (at the EPOCH/study specific time frame)?", "simpleDatatype": "Char"}, {"_links": {"implements": {"href": "/mdr/cdash/1-1/classes/Events/fields/--TERM", "title": "Reported Term", "type": "Class Variable"}, "parentDomain": {"href": "/mdr/cdashig/2-1/domains/DS", "title": "Disposition", "type": "CDASH Domain"}, "parentProduct": {"href": "/mdr/cdashig/2-1", "title": "Clinical Data Acquisition Standards Harmonization Implementation Guide for Human Clinical Trials Version 2.1", "type": "Implementation Guide"}, "priorVersion": {"href": "/mdr/cdashig/2-0/domains/DS/fields/DSTERM", "title": "Disposition Event Reported Term", "type": "Data Collection Field"}, "rootItem": {"href": "/mdr/root/cdashig/domains/DS/fields/DSTERM", "title": "Version-agnostic anchor element for field DS.DSTERM", "type": "Root Data Element"}, "sdtmigDatasetMappingTargets": [{"href": "/mdr/sdtmig/3-2/datasets/DS/variables/DSTERM", "title": "Reported Term for the Disposition Event", "type": "SDTM Dataset Variable"}], "self": {"href": "/mdr/cdashig/2-1/domains/DS/fields/DSTERM", "title": "Reported Term for the Disposition Event", "type": "Data Collection Field"}}, "completionInstructions": "Document the subject's status at [insert text corresponding to the selected trial epoch]. If the subject discontinued prematurely, record the primary reason for discontinuation. (Or, if used with a DECOD list), if Other is selected from the Status list, provide the verbatim reason.", "core": "R/C", "definition": "The verbatim or prespecified name of the event. The reported or prespecified name for how a subject completed the study or a portion of a study (epoch) or the reason they did not complete.", "implementationNotes": "If used with a DECOD list, free text description of the subject's \"Other\" status. DSTERM is the verbatim term for subject status when Other is selected from the DSDECOD code list. This field would only be used with the Prompt and Completion Instructions provided as an Specify, Other field in conjunction with DSDECOD. DSTERM may be used by itself when no code list is provided for DSDECOD on the CRF. Either DSTERM or DSDECOD must be on the CRF. DSTERM is required in the SDTM-based dataset.", "label": "Reported Term for the Disposition Event", "mappingInstructions": "Maps directly to the SDTMIG variable listed in the column with the heading SDTMIG Target. The SDTMIG variables DSDECOD and DSTERM must be populated in SDTM. If DSTERM was collected as an \"Other, Specify\" free text, populate the SDTMIG variable DSTERM with the free text and populate DSDECOD with the sponsor-defined standardized text. If DSDECOD was collected with no free text, populate DSTERM and DSDECOD in the SDTM-based dataset with the DSDECOD value that was collected.", "name": "DSTERM", "ordinal": "8", "prompt": "[Status]; [Specify]", "questionText": "What was the subject's status?; If [DSDECOD], specify", "simpleDatatype": "Char"}, {"_links": {"implements": {"href": "/mdr/cdash/1-1/classes/Timing/fields/--STDAT", "title": "Observation Start Date", "type": "Class Variable"}, "parentDomain": {"href": "/mdr/cdashig/2-1/domains/DS", "title": "Disposition", "type": "CDASH Domain"}, "parentProduct": {"href": "/mdr/cdashig/2-1", "title": "Clinical Data Acquisition Standards Harmonization Implementation Guide for Human Clinical Trials Version 2.1", "type": "Implementation Guide"}, "priorVersion": {"href": "/mdr/cdashig/2-0/domains/DS/fields/DSSTDAT", "title": "Disposition Event Start Date", "type": "Data Collection Field"}, "rootItem": {"href": "/mdr/root/cdashig/domains/DS/fields/DSSTDAT", "title": "Version-agnostic anchor element for field DS.DSSTDAT", "type": "Root Data Element"}, "sdtmigDatasetMappingTargets": [{"href": "/mdr/sdtmig/3-2/datasets/DS/variables/DSSTDTC", "title": "Start Date/Time of Disposition Event", "type": "SDTM Dataset Variable"}], "self": {"href": "/mdr/cdashig/2-1/domains/DS/fields/DSSTDAT", "title": "Disposition Event Start Date", "type": "Data Collection Field"}}, "completionInstructions": "Record the date of [protocol milestone/disposition event] as defined in the protocol and/or CRF Completion Instructions using this format (DD-MON-YYYY).", "core": "R/C", "definition": "The date of the specified protocol milestone (e.g., informed consent, randomization) or disposition event (e.g., study completion or discontinuation), represented in an unambiguous date format (e.g., DD-MON-YYYY).", "implementationNotes": "Define in the protocol and/or CRF completion instructions the criteria for completion of each protocol milestone or disposition event for which a disposition CRF will be provided. Only collect the date of each protocol milestone or disposition event once. For example, if the date of the last dose is defined to mark the end of the Treatment Phase epoch, and is collected on the Exposure form, then this field would not be collected on the Disposition CRF module. If not collected elsewhere, this field should be collected on the Disposition CRF module.", "label": "Disposition Event Start Date", "mappingInstructions": "This does not map directly to an SDTMIG variable. For the SDTM submission dataset, concatenate all collected CDASH START DATE and TIME components and populate the SDTMIG variable DSSTDTC in ISO 8601 format.", "name": "DSSTDAT", "ordinal": "9", "prompt": "[Protocol Milestone/Disposition Event/Other Event Name] Date", "questionText": "What was the [protocol milestone/disposition event/other event name] date?", "simpleDatatype": "Char"}, {"_links": {"implements": {"href": "/mdr/cdash/1-1/classes/Timing/fields/--STTIM", "title": "Observation Start Time", "type": "Class Variable"}, "parentDomain": {"href": "/mdr/cdashig/2-1/domains/DS", "title": "Disposition", "type": "CDASH Domain"}, "parentProduct": {"href": "/mdr/cdashig/2-1", "title": "Clinical Data Acquisition Standards Harmonization Implementation Guide for Human Clinical Trials Version 2.1", "type": "Implementation Guide"}, "priorVersion": {"href": "/mdr/cdashig/2-0/domains/DS/fields/DSSTTIM", "title": "Start Time of Disposition Event", "type": "Data Collection Field"}, "rootItem": {"href": "/mdr/root/cdashig/domains/DS/fields/DSSTTIM", "title": "Version-agnostic anchor element for field DS.DSSTTIM", "type": "Root Data Element"}, "sdtmigDatasetMappingTargets": [{"href": "/mdr/sdtmig/3-2/datasets/DS/variables/DSSTDTC", "title": "Start Date/Time of Disposition Event", "type": "SDTM Dataset Variable"}], "self": {"href": "/mdr/cdashig/2-1/domains/DS/fields/DSSTTIM", "title": "Disposition Event Start Time", "type": "Data Collection Field"}}, "completionInstructions": "Record the time (as complete as possible) that the subject completed the study or portion of the study as defined in the protocol and/or CRF Completion Instructions. If the subject did not complete the study or portion of the study, record the time (as complete as possible) as defined in the protocol and/or CRF Completion Instructions.", "core": "O", "definition": "The time of the specified protocol milestone (e.g., informed consent, randomization) or disposition event (e.g., study completion or discontinuation), represented in an unambiguous time format (e.g., hh:mm:ss).", "implementationNotes": "Define in the protocol and/or CRF completion instructions the criteria for completion of each epoch for which a disposition CRF will be provided. Define also the date of completion or discontinuation. Collecting the time of completion or discontinuation is only appropriate if it can be realistically determined and if there is a scientific reason for needing to know this level of detail. Typically, it is not recommended that a time be collected unless the subject is under the direct care of the site at the time of the event. Only collect the time of completion or discontinuation on the disposition CRF module if the same information is not being collected on another CRF module. For example, if the time of the last dose is defined to mark the end of the Treatment Phase epoch, and is collected on the Drug Exposure form, then this field would not be collected on the Disposition CRF module.", "label": "Disposition Event Start Time", "mappingInstructions": "This does not map directly to an SDTMIG variable. For the SDTM submission dataset, concatenate all collected CDASH START DATE and TIME components and populate the SDTMIG variable DSSTDTC in ISO 8601 format.", "name": "DSSTTIM", "ordinal": "10", "prompt": "[Protocol Milestone/Disposition Event/Other Event Name] Time", "questionText": "What was the [protocol milestone/disposition event/other event name] time?", "simpleDatatype": "Char"}, {"_links": {"implements": {"href": "/mdr/cdash/1-1/classes/Timing/fields/DTHDAT", "title": "Death Date", "type": "Class Variable"}, "parentDomain": {"href": "/mdr/cdashig/2-1/domains/DS", "title": "Disposition", "type": "CDASH Domain"}, "parentProduct": {"href": "/mdr/cdashig/2-1", "title": "Clinical Data Acquisition Standards Harmonization Implementation Guide for Human Clinical Trials Version 2.1", "type": "Implementation Guide"}, "priorVersion": {"href": "/mdr/cdashig/2-0/domains/DS/fields/DTHDAT", "title": "Date of Death", "type": "Data Collection Field"}, "rootItem": {"href": "/mdr/root/cdashig/domains/DS/fields/DTHDAT", "title": "Version-agnostic anchor element for field DS.DTHDAT", "type": "Root Data Element"}, "sdtmigDatasetMappingTargets": [{"href": "/mdr/sdtmig/3-2/datasets/DM/variables/DTHDTC", "title": "Date/Time of Death", "type": "SDTM Dataset Variable"}], "self": {"href": "/mdr/cdashig/2-1/domains/DS/fields/DTHDAT", "title": "Death Date", "type": "Data Collection Field"}}, "completionInstructions": "Record the date of death", "core": "O", "definition": "Date of death for any subject who died.", "implementationNotes": "The CDASH model defines Death Date as a timing variable; this is not included as a timing variable in the SDTMIG. It may be collected on any CRF deemed appropriate by the sponsor, but should only be collected once. The SDTMIG variable DTHDTC is mapped to the DM domain during the SDTM submission dataset creation process. The SDTMIG variable DM.DTHFLG is not a CDASH variable, but it is typically populated during the SDTM submission dataset creation process. Death Date may be mapped to other SDTM domains (e.g., DS) as deemed appropriate by the sponsor.", "label": "Death Date", "mappingInstructions": "This field does not map directly to an SDTMIG variable. For the SDTM dataset, concatenate all collected CDASH DATE and TIME components and populate the SDTM variable DTHDTC in ISO 8601 format.", "name": "DTHDAT", "ordinal": "11", "prompt": "Death Date", "questionText": "What [is/was] the subject's date of death?", "simpleDatatype": "Char"}, {"_links": {"codelist": [{"href": "/mdr/root/ct/sdtmct/codelists/C66742", "title": "Version-agnostic anchor resource for codelist C66742", "type": "Root Value Domain"}], "implements": {"href": "/mdr/cdash/1-1/domains/DS/fields/DSUNBLND", "title": "Unblinded", "type": "Data Collection Field"}, "parentDomain": {"href": "/mdr/cdashig/2-1/domains/DS", "title": "Disposition", "type": "CDASH Domain"}, "parentProduct": {"href": "/mdr/cdashig/2-1", "title": "Clinical Data Acquisition Standards Harmonization Implementation Guide for Human Clinical Trials Version 2.1", "type": "Implementation Guide"}, "priorVersion": {"href": "/mdr/cdashig/2-0/domains/DS/fields/DSUNBLND", "title": "Unblinded", "type": "Data Collection Field"}, "rootItem": {"href": "/mdr/root/cdashig/domains/DS/fields/DSUNBLND", "title": "Version-agnostic anchor element for field DS.DSUNBLND", "type": "Root Data Element"}, "sdtmigDatasetMappingTargets": [{"href": "/mdr/sdtmig/3-2/datasets/DS/variables/DSTERM", "title": "Reported Term for the Disposition Event", "type": "SDTM Dataset Variable"}, {"href": "/mdr/sdtmig/3-2/datasets/DS/variables/DSDECOD", "title": "Standardized Disposition Term", "type": "SDTM Dataset Variable"}], "self": {"href": "/mdr/cdashig/2-1/domains/DS/fields/DSUNBLND", "title": "Unblinded", "type": "Data Collection Field"}}, "completionInstructions": "Record \"Yes\" if the subject's treatment assignment was unblinded/unmasked intentionally due to an AE, or unintentionally for other reasons (e.g., an administrative action) during the subject's blinded/masked treatment. Record the primary reason for discontinuation if the unblinding resulted in the subject discontinuing the trial prematurely.", "core": "O", "definition": "An indication the subject's treatment information was revealed to any unauthorized site personnel during the trial.", "implementationNotes": "There may be multiple rows in the SDTM DS dataset to represent this information, each with the appropriate DSCAT values. One row could indicate the treatment was unblinded using DSCAT=\"OTHER EVENT\" and another row could indicate the status of the subject at the end of participation in the trial using DSCAT= \"DISPOSITION\". If DSUNBLND is \"Yes\" and information was collected about the reason for the unblinding, populate DSCAT with \"OTHER EVENT\" and the SDTMIG variables DSTERM with the free text and DSDECOD with the sponsor-defined standardized text (e.g., TREATMENT UNBLINDED). If DSUNBLND is \"Yes\", and the unblinding also resulted in the subject discontinuing the trial prematurely, populate DSCAT with \"DISPOSTION\" and use the SDTM IG variables DSTERM and DSDECOD to capture the applicable discontinuation details. If the unblinding occurred due to an Adverse Event, DSTERM contains the text of the AE, and in the AE domain the SDTMIG variable AEACNOTH \"Were any other actions taken in response to this adverse event?\" may include text of \"Treatment Unblinded\". DSUNBLND may also be used to document intentional unblinding at a protocol defined point in the trial.", "label": "Unblinded", "mappingInstructions": "This does not map directly to an SDTM variable. If the CDASH field DSUNBLIND=\"Y\", then the SDTMIG variables DSDECOD and DSTERM=\"TREATMENT UNBLINDED\" and DSCAT =\"OTHER EVENT\". If DSUNBLIND=\"N\", then the CRF should be annotated to indicate that this value is NOT SUBMITTED.", "name": "DSUNBLND", "ordinal": "12", "prompt": "Unblinded", "questionText": "Was (study) treatment unblinded by the site?", "simpleDatatype": "Char"}, {"_links": {"codelist": [{"href": "/mdr/root/ct/sdtmct/codelists/C66742", "title": "Version-agnostic anchor resource for codelist C66742", "type": "Root Value Domain"}], "implements": {"href": "/mdr/cdash/1-1/domains/DS/fields/DSCONT", "title": "Subject Continue", "type": "Data Collection Field"}, "parentDomain": {"href": "/mdr/cdashig/2-1/domains/DS", "title": "Disposition", "type": "CDASH Domain"}, "parentProduct": {"href": "/mdr/cdashig/2-1", "title": "Clinical Data Acquisition Standards Harmonization Implementation Guide for Human Clinical Trials Version 2.1", "type": "Implementation Guide"}, "priorVersion": {"href": "/mdr/cdashig/2-0/domains/DS/fields/DSCONT", "title": "Subject Continue", "type": "Data Collection Field"}, "rootItem": {"href": "/mdr/root/cdashig/domains/DS/fields/DSCONT", "title": "Version-agnostic anchor element for field DS.DSCONT", "type": "Root Data Element"}, "sdtmigDatasetMappingTargets": [{"href": "/mdr/sdtmig/3-2/datasets/SUPPQUAL/variables/QVAL", "title": "Data Value", "type": "SDTM Dataset Variable"}], "self": {"href": "/mdr/cdashig/2-1/domains/DS/fields/DSCONT", "title": "Subject Continue", "type": "Data Collection Field"}}, "completionInstructions": "Record if the subject will be continuing to [the next phase of this study/related study] (sponsor to specify as appropriate).", "core": "O", "definition": "The plan for subject continuation to the next phase of the study or another study at the time of completion of the CRF.", "implementationNotes": "Sponsors should specify the next phase of the study or the related study on the CRF. Typically this is a prompt question to aid in monitoring and data cleaning, and usually not submitted in a SUPPDS dataset.", "label": "Subject Continue", "mappingInstructions": "This information could be submitted in a SUPPDS dataset as the value of SUPPDS.QVAL when SUPPDS.QNAM= \"DSCONT\" and SUPPDS.QLABEL=\"Subject Continue\". Refer to the current SDTM and SDTMIG for instructions on placement of non-standard variables in SDTM domains.", "name": "DSCONT", "ordinal": "13", "prompt": "Subject Continue", "questionText": "Will the subject continue?", "simpleDatatype": "Char"}, {"_links": {"implements": {"href": "/mdr/cdash/1-1/domains/DS/fields/DSNEXT", "title": "Next EPOCH", "type": "Data Collection Field"}, "parentDomain": {"href": "/mdr/cdashig/2-1/domains/DS", "title": "Disposition", "type": "CDASH Domain"}, "parentProduct": {"href": "/mdr/cdashig/2-1", "title": "Clinical Data Acquisition Standards Harmonization Implementation Guide for Human Clinical Trials Version 2.1", "type": "Implementation Guide"}, "priorVersion": {"href": "/mdr/cdashig/2-0/domains/DS/fields/DSNEXT", "title": "Next EPOCH", "type": "Data Collection Field"}, "rootItem": {"href": "/mdr/root/cdashig/domains/DS/fields/DSNEXT", "title": "Version-agnostic anchor element for field DS.DSNEXT", "type": "Root Data Element"}, "self": {"href": "/mdr/cdashig/2-1/domains/DS/fields/DSNEXT", "title": "Next EPOCH", "type": "Data Collection Field"}}, "completionInstructions": "Record the planned subsequent [study epoch/study] in which the subject intends to participate.", "core": "O", "definition": "Identifies the study epoch or new study in which the subject will participate.", "implementationNotes": "Sponsors should specify the next phase of the study or the related study on the CRF. The data are to be used to aid in monitoring and data cleaning. No specific SDTM-based dataset mapping rules are provided since the mapping depends on the situation (next epoch or next trial). Per sponsor decision, plans to enter the next epoch within a study may be included in the SDTM submission datasets (e.g., SE). Actual subject entry into the next study is submitted as part of Trial Design datasets of that study.", "label": "Next EPOCH", "mappingInstructions": "Sponsor-defined SDTMIG mapping.", "name": "DSNEXT", "ordinal": "14", "prompt": "Next [Epoch/Period/Study/Trial]", "questionText": "What is the next [epoch/period/study/trial] the subject will [continue to/enter/enroll]?", "simpleDatatype": "Char"}], "label": "Disposition", "name": "DS", "ordinal": "8"}
