{"_links": {"parentClass": {"href": "/mdr/cdashig/2-1/classes/Findings", "title": "Findings", "type": "Class"}, "parentProduct": {"href": "/mdr/cdashig/2-1", "title": "Clinical Data Acquisition Standards Harmonization Implementation Guide for Human Clinical Trials Version 2.1", "type": "Implementation Guide"}, "priorVersion": {"href": "/mdr/cdashig/2-0/domains/IE", "title": "Inclusion/Exclusion Criteria Not Met", "type": "CDASH Domain"}, "self": {"href": "/mdr/cdashig/2-1/domains/IE", "title": "Inclusion/Exclusion Criteria Not Met", "type": "CDASH Domain"}}, "fields": [{"_links": {"implements": {"href": "/mdr/cdash/1-1/classes/Identifiers/fields/STUDYID", "title": "Study Identifier", "type": "Class Variable"}, "parentDomain": {"href": "/mdr/cdashig/2-1/domains/IE", "title": "Inclusion/Exclusion Criteria Not Met", "type": "CDASH Domain"}, "parentProduct": {"href": "/mdr/cdashig/2-1", "title": "Clinical Data Acquisition Standards Harmonization Implementation Guide for Human Clinical Trials Version 2.1", "type": "Implementation Guide"}, "priorVersion": {"href": "/mdr/cdashig/2-0/domains/IE/fields/STUDYID", "title": "Study Identifier", "type": "Data Collection Field"}, "rootItem": {"href": "/mdr/root/cdashig/domains/IE/fields/STUDYID", "title": "Version-agnostic anchor element for field IE.STUDYID", "type": "Root Data Element"}, "sdtmigDatasetMappingTargets": [{"href": "/mdr/sdtmig/3-2/datasets/IE/variables/STUDYID", "title": "Study Identifier", "type": "SDTM Dataset Variable"}], "self": {"href": "/mdr/cdashig/2-1/domains/IE/fields/STUDYID", "title": "Study Identifier", "type": "Data Collection Field"}}, "core": "HR", "definition": "A unique identifier for a study.", "implementationNotes": "While this field is not typically captured on a CRF, it should be displayed clearly on the CRF and/or the EDC system. This field can be included into the database or populated during SDTM-based dataset creation before submission.", "label": "Study Identifier", "mappingInstructions": "Maps directly to the SDTMIG variable listed in the column with the heading SDTMIG Target.", "name": "STUDYID", "ordinal": "1", "prompt": "[Protocol/Study]", "questionText": "What is the study identifier?", "simpleDatatype": "Char"}, {"_links": {"implements": {"href": "/mdr/cdash/1-1/classes/Identifiers/fields/SITEID", "title": "Study Site Identifier", "type": "Class Variable"}, "parentDomain": {"href": "/mdr/cdashig/2-1/domains/IE", "title": "Inclusion/Exclusion Criteria Not Met", "type": "CDASH Domain"}, "parentProduct": {"href": "/mdr/cdashig/2-1", "title": "Clinical Data Acquisition Standards Harmonization Implementation Guide for Human Clinical Trials Version 2.1", "type": "Implementation Guide"}, "priorVersion": {"href": "/mdr/cdashig/2-0/domains/IE/fields/SITEID", "title": "Study Site Identifier", "type": "Data Collection Field"}, "rootItem": {"href": "/mdr/root/cdashig/domains/IE/fields/SITEID", "title": "Version-agnostic anchor element for field IE.SITEID", "type": "Root Data Element"}, "sdtmigDatasetMappingTargets": [{"href": "/mdr/sdtmig/3-2/datasets/DM/variables/SITEID", "title": "Study Site Identifier", "type": "SDTM Dataset Variable"}], "self": {"href": "/mdr/cdashig/2-1/domains/IE/fields/SITEID", "title": "Study Site Identifier", "type": "Data Collection Field"}}, "core": "HR", "definition": "A unique identifier for a site within a study.", "implementationNotes": "Paper: This is typically preprinted in the header of each CRF page for single site studies. For studies with multiple sites, this field may be left blank so that the number can be recorded by the site, or it may be preprinted on the CRFs that are shipped to each site. EDC: This should be prepopulated.", "label": "Study Site Identifier", "mappingInstructions": "Maps directly to the SDTMIG variable listed in the column with the heading SDTMIG Target.", "name": "SITEID", "ordinal": "2", "prompt": "Site (Identifier)", "questionText": "What is the site identifier?", "simpleDatatype": "Char"}, {"_links": {"implements": {"href": "/mdr/cdash/1-1/classes/Identifiers/fields/SUBJID", "title": "Subject Identifier for the Study", "type": "Class Variable"}, "parentDomain": {"href": "/mdr/cdashig/2-1/domains/IE", "title": "Inclusion/Exclusion Criteria Not Met", "type": "CDASH Domain"}, "parentProduct": {"href": "/mdr/cdashig/2-1", "title": "Clinical Data Acquisition Standards Harmonization Implementation Guide for Human Clinical Trials Version 2.1", "type": "Implementation Guide"}, "priorVersion": {"href": "/mdr/cdashig/2-0/domains/IE/fields/SUBJID", "title": "Subject Identifier for the Study", "type": "Data Collection Field"}, "rootItem": {"href": "/mdr/root/cdashig/domains/IE/fields/SUBJID", "title": "Version-agnostic anchor element for field IE.SUBJID", "type": "Root Data Element"}, "sdtmigDatasetMappingTargets": [{"href": "/mdr/sdtmig/3-2/datasets/DM/variables/SUBJID", "title": "Subject Identifier for the Study", "type": "SDTM Dataset Variable"}], "self": {"href": "/mdr/cdashig/2-1/domains/IE/fields/SUBJID", "title": "Subject Identifier for the Study", "type": "Data Collection Field"}}, "completionInstructions": "Record the identifier for the subject.", "core": "HR", "definition": "A unique subject identifier within a site and a study.", "implementationNotes": "Paper: This is typically recorded in the header of each CRF page. EDC: The subject identifiers may be system generated. This CDASH variable is typically collected in all CDASH domains. However, this CDASH variable is populated only in the SDTMIG DM domain. For more information, refer to the SDTM Implementation Guide.", "label": "Subject Identifier for the Study", "mappingInstructions": "Maps directly to the SDTMIG variable listed in the column with the heading SDTMIG Target.", "name": "SUBJID", "ordinal": "3", "prompt": "[Subject/Participant] (Identifier)", "questionText": "What [is/was] the (study) [subject/participant] identifier?", "simpleDatatype": "Char"}, {"_links": {"implements": {"href": "/mdr/cdash/1-1/classes/Timing/fields/VISIT", "title": "Visit Name", "type": "Class Variable"}, "parentDomain": {"href": "/mdr/cdashig/2-1/domains/IE", "title": "Inclusion/Exclusion Criteria Not Met", "type": "CDASH Domain"}, "parentProduct": {"href": "/mdr/cdashig/2-1", "title": "Clinical Data Acquisition Standards Harmonization Implementation Guide for Human Clinical Trials Version 2.1", "type": "Implementation Guide"}, "priorVersion": {"href": "/mdr/cdashig/2-0/domains/IE/fields/VISIT", "title": "Visit Name", "type": "Data Collection Field"}, "rootItem": {"href": "/mdr/root/cdashig/domains/IE/fields/VISIT", "title": "Version-agnostic anchor element for field IE.VISIT", "type": "Root Data Element"}, "sdtmigDatasetMappingTargets": [{"href": "/mdr/sdtmig/3-2/datasets/IE/variables/VISIT", "title": "Visit Name", "type": "SDTM Dataset Variable"}], "self": {"href": "/mdr/cdashig/2-1/domains/IE/fields/VISIT", "title": "Visit Name", "type": "Data Collection Field"}}, "core": "R/C", "definition": "The name of a clinical encounter that encompasses planned and unplanned trial interventions, procedures, and assessments that may be performed on a subject.", "implementationNotes": "This CDASH variable is typically collected in all CDASH domains. However, this CDASH variable is represented only in the SDTMIG DM domain. For more information, refer to SDTM Table 2.2.4.", "label": "Visit Name", "mappingInstructions": "Maps directly to the SDTMIG variable listed in the column with the heading SDTMIG Target.", "name": "VISIT", "ordinal": "4", "prompt": "[Visit]", "questionText": "What is the visit name?", "simpleDatatype": "Char"}, {"_links": {"implements": {"href": "/mdr/cdash/1-1/classes/Timing/fields/VISDAT", "title": "Visit Date", "type": "Class Variable"}, "parentDomain": {"href": "/mdr/cdashig/2-1/domains/IE", "title": "Inclusion/Exclusion Criteria Not Met", "type": "CDASH Domain"}, "parentProduct": {"href": "/mdr/cdashig/2-1", "title": "Clinical Data Acquisition Standards Harmonization Implementation Guide for Human Clinical Trials Version 2.1", "type": "Implementation Guide"}, "priorVersion": {"href": "/mdr/cdashig/2-0/domains/IE/fields/VISDAT", "title": "Visit Date", "type": "Data Collection Field"}, "rootItem": {"href": "/mdr/root/cdashig/domains/IE/fields/VISDAT", "title": "Version-agnostic anchor element for field IE.VISDAT", "type": "Root Data Element"}, "self": {"href": "/mdr/cdashig/2-1/domains/IE/fields/VISDAT", "title": "Visit Date", "type": "Data Collection Field"}}, "completionInstructions": "Record the [date/start date] of the visit using DD-MON-YYYY format.", "core": "R/C", "definition": "Date the clinical encounter occurred (or started).", "implementationNotes": "The date the inclusion and exclusion assessments were collected can be determined from the Visit Date variable (VISDAT) and applying that date to all of the observations at that visit or the collection date can be included on the Inclusion/Exclusion CRF using the date (IEDAT) field.", "label": "Visit Date", "mappingInstructions": "This field is not an SDTM variable. The date of a measurement, test, observation can be determined from the date/time of visit (VISDAT/VISTIM) and then concatenating the CDASH VISDAT/VISTIM components and populating the SDTMIG variable IEDTC in ISO 8601 format.", "name": "VISDAT", "ordinal": "5", "prompt": "(Visit) Date", "questionText": "What [is/was] the date of the visit?", "simpleDatatype": "Char"}, {"_links": {"codelist": [{"href": "/mdr/root/ct/sdtmct/codelists/C66742", "title": "Version-agnostic anchor resource for codelist C66742", "type": "Root Value Domain"}], "implements": {"href": "/mdr/cdash/1-1/classes/Findings/fields/--YN", "title": "Any [Finding]", "type": "Class Variable"}, "parentDomain": {"href": "/mdr/cdashig/2-1/domains/IE", "title": "Inclusion/Exclusion Criteria Not Met", "type": "CDASH Domain"}, "parentProduct": {"href": "/mdr/cdashig/2-1", "title": "Clinical Data Acquisition Standards Harmonization Implementation Guide for Human Clinical Trials Version 2.1", "type": "Implementation Guide"}, "priorVersion": {"href": "/mdr/cdashig/2-0/domains/IE/fields/IEYN", "title": "Any Inclusion/Exclusion Criteria Findings", "type": "Data Collection Field"}, "rootItem": {"href": "/mdr/root/cdashig/domains/IE/fields/IEYN", "title": "Version-agnostic anchor element for field IE.IEYN", "type": "Root Data Element"}, "self": {"href": "/mdr/cdashig/2-1/domains/IE/fields/IEYN", "title": "Any Incl/Excl Criteria Findings", "type": "Data Collection Field"}}, "completionInstructions": "Record Yes if all eligibility criteria were met at the time the subject was enrolled. Record No if subject did not meet all criteria at the time the subject was enrolled.", "core": "HR", "definition": "Indication whether the subject met all the eligibility requirements for this study at the time the subject was enrolled.", "implementationNotes": "The intent/purpose of collecting this field is to help with data cleaning and monitoring. It provides verification if all other fields on the CRF were deliberately left blank.", "label": "Any Incl/Excl Criteria Findings", "mappingInstructions": "Does not map to an SDTMIG variable. The SDTM aCRF is annotated to indicate that this field is NOT SUBMITTED.", "name": "IEYN", "ordinal": "6", "prompt": "Met Criteria", "questionText": "Were all eligibility criteria met?", "simpleDatatype": "Char"}, {"_links": {"implements": {"href": "/mdr/cdash/1-1/classes/Timing/fields/--DAT", "title": "Collection Date", "type": "Class Variable"}, "parentDomain": {"href": "/mdr/cdashig/2-1/domains/IE", "title": "Inclusion/Exclusion Criteria Not Met", "type": "CDASH Domain"}, "parentProduct": {"href": "/mdr/cdashig/2-1", "title": "Clinical Data Acquisition Standards Harmonization Implementation Guide for Human Clinical Trials Version 2.1", "type": "Implementation Guide"}, "priorVersion": {"href": "/mdr/cdashig/2-0/domains/IE/fields/IEDAT", "title": "Date of Inclusion/Exclusion Collection", "type": "Data Collection Field"}, "rootItem": {"href": "/mdr/root/cdashig/domains/IE/fields/IEDAT", "title": "Version-agnostic anchor element for field IE.IEDAT", "type": "Root Data Element"}, "sdtmigDatasetMappingTargets": [{"href": "/mdr/sdtmig/3-2/datasets/IE/variables/IEDTC", "title": "Date/Time of Collection", "type": "SDTM Dataset Variable"}], "self": {"href": "/mdr/cdashig/2-1/domains/IE/fields/IEDAT", "title": "Inclusion/Exclusion Collection Date", "type": "Data Collection Field"}}, "completionInstructions": "Record complete date when the eligibility assessment was performed using this format (DD-MON-YYYY).", "core": "O", "definition": "The date of collection of the inclusion/exclusion criteria represented in an unambiguous date format. (e.g., DD-MON-YYYY).", "implementationNotes": "A complete date is expected. The date of collection may be determined from the date of visit (VISDAT) and if so, a separate assessment date field is not required.", "label": "Inclusion/Exclusion Collection Date", "mappingInstructions": "This does not map directly to an SDTMIG variable. For the SDTM submission dataset, concatenate all collected CDASH DATE and TIME components and populate the SDTMIG variable IEDTC in ISO 8601 format.", "name": "IEDAT", "ordinal": "7", "prompt": "Date", "questionText": "What was the date the eligibility criteria assessment was performed?", "simpleDatatype": "Char"}, {"_links": {"codelist": [{"href": "/mdr/root/ct/sdtmct/codelists/C66797", "title": "Version-agnostic anchor resource for codelist C66797", "type": "Root Value Domain"}], "implements": {"href": "/mdr/cdash/1-1/classes/Findings/fields/--CAT", "title": "Category", "type": "Class Variable"}, "parentDomain": {"href": "/mdr/cdashig/2-1/domains/IE", "title": "Inclusion/Exclusion Criteria Not Met", "type": "CDASH Domain"}, "parentProduct": {"href": "/mdr/cdashig/2-1", "title": "Clinical Data Acquisition Standards Harmonization Implementation Guide for Human Clinical Trials Version 2.1", "type": "Implementation Guide"}, "priorVersion": {"href": "/mdr/cdashig/2-0/domains/IE/fields/IECAT", "title": "Category of Inclusion/Exclusion Criteria", "type": "Data Collection Field"}, "rootItem": {"href": "/mdr/root/cdashig/domains/IE/fields/IECAT", "title": "Version-agnostic anchor element for field IE.IECAT", "type": "Root Data Element"}, "sdtmigDatasetMappingTargets": [{"href": "/mdr/sdtmig/3-2/datasets/IE/variables/IECAT", "title": "Inclusion/Exclusion Category", "type": "SDTM Dataset Variable"}], "self": {"href": "/mdr/cdashig/2-1/domains/IE/fields/IECAT", "title": "Inclusion/Exclusion Category", "type": "Data Collection Field"}}, "completionInstructions": "Record whether the criterion exception was Inclusion or Exclusion. Checkbox: Check Inclusion or Exclusion.", "core": "R/C", "definition": "A grouping category to denote whether the protocol entry criterion being assessed is Inclusion Criteria or Exclusion Criteria", "implementationNotes": "These categories have been defined in SDTM and have controlled terminology that must be used. Only records for criteria that are not met appear in the IE SDTMIG domain. IECAT must be populated. This criterion category may be collected on the CRF in a checkbox format or it may be included as part of the Criterion Identification and mapped when the SDTM submission datasets are created.", "label": "Inclusion/Exclusion Category", "mappingInstructions": "Maps directly to the SDTMIG variable listed in the column with the heading SDTMIG Target.", "name": "IECAT", "ordinal": "8", "prompt": "Criterion Type", "questionText": "What was the category of the criterion?", "simpleDatatype": "Char"}, {"_links": {"implements": {"href": "/mdr/cdash/1-1/classes/Findings/fields/--SCAT", "title": "Subcategory", "type": "Class Variable"}, "parentDomain": {"href": "/mdr/cdashig/2-1/domains/IE", "title": "Inclusion/Exclusion Criteria Not Met", "type": "CDASH Domain"}, "parentProduct": {"href": "/mdr/cdashig/2-1", "title": "Clinical Data Acquisition Standards Harmonization Implementation Guide for Human Clinical Trials Version 2.1", "type": "Implementation Guide"}, "priorVersion": {"href": "/mdr/cdashig/2-0/domains/IE/fields/IESCAT", "title": "Subcategory of Inclusion/Exclusion Criteria", "type": "Data Collection Field"}, "rootItem": {"href": "/mdr/root/cdashig/domains/IE/fields/IESCAT", "title": "Version-agnostic anchor element for field IE.IESCAT", "type": "Root Data Element"}, "sdtmigDatasetMappingTargets": [{"href": "/mdr/sdtmig/3-2/datasets/IE/variables/IESCAT", "title": "Inclusion/Exclusion Subcategory", "type": "SDTM Dataset Variable"}], "self": {"href": "/mdr/cdashig/2-1/domains/IE/fields/IESCAT", "title": "Inclusion/Exclusion Subcategory", "type": "Data Collection Field"}}, "completionInstructions": "If collected on the CRF, the sponsor provides instructions to ensure the data is entered as intended.", "core": "O", "definition": "A sub-division of the IECAT values based on user-defined characteristics.", "implementationNotes": "Sponsor-defined controlled terminology. This would most commonly be either a heading, or a preprinted category value on the CRF and not a question to which the site would provide an answer. If a question is asked, the response would typically be a sponsor-defined codelist. If the form is laid out as a grid, then words such as \"Subcategory\" can be included as the column header This can be used to distinguish criteria for a sub-study or to categorize the criteria as a major or minor exception.", "label": "Inclusion/Exclusion Subcategory", "mappingInstructions": "Maps directly to the SDTMIG variable listed in the column with the heading SDTMIG Target.", "name": "IESCAT", "ordinal": "9", "prompt": "[Criterion Subtype]; NULL", "questionText": "What was the subcategory of the criterion?", "simpleDatatype": "Char"}, {"_links": {"implements": {"href": "/mdr/cdash/1-1/classes/Findings/fields/--TESTCD", "title": "Short Name of Measurement, Test or Examination", "type": "Class Variable"}, "parentDomain": {"href": "/mdr/cdashig/2-1/domains/IE", "title": "Inclusion/Exclusion Criteria Not Met", "type": "CDASH Domain"}, "parentProduct": {"href": "/mdr/cdashig/2-1", "title": "Clinical Data Acquisition Standards Harmonization Implementation Guide for Human Clinical Trials Version 2.1", "type": "Implementation Guide"}, "priorVersion": {"href": "/mdr/cdashig/2-0/domains/IE/fields/IETESTCD", "title": "Inclusion/Exclusion Criterion", "type": "Data Collection Field"}, "rootItem": {"href": "/mdr/root/cdashig/domains/IE/fields/IETESTCD", "title": "Version-agnostic anchor element for field IE.IETESTCD", "type": "Root Data Element"}, "sdtmigDatasetMappingTargets": [{"href": "/mdr/sdtmig/3-2/datasets/IE/variables/IETESTCD", "title": "Inclusion/Exclusion Criterion Short Name", "type": "SDTM Dataset Variable"}], "self": {"href": "/mdr/cdashig/2-1/domains/IE/fields/IETESTCD", "title": "Inclusion/Exclusion Criterion Short Name", "type": "Data Collection Field"}}, "completionInstructions": "If the subject was not eligible, Record the identifying code for each criterion that was an exception.", "core": "HR", "definition": "The unique identifier associated with the criterion that was the exception.", "implementationNotes": "This field is required to appear on the CRF, but may be null if there are no exceptions to the inclusion/exclusion criteria. The CRF should allow multiple exceptions to be recorded. See SDTMIG v3.2 Section 7.5.2 for assumptions regarding protocol versioning. Sponsors may provide a list of inclusion/ exclusion criteria and the unique identifying codes to the site. The list provided should be versioned/updated when the protocol changes and the criteria are changed. Sponsors should use sponsor-developed controlled terminology for IETESTCD.", "label": "Inclusion/Exclusion Criterion Short Name", "mappingInstructions": "Maps directly to the SDTMIG variable listed in the column with the heading SDTMIG Target.", "name": "IETESTCD", "ordinal": "10", "prompt": "Exception Criterion Identifier", "questionText": "What was the identifier of the inclusion criterion the subject did not meet or the exclusion criterion the subject met ?", "simpleDatatype": "Char"}, {"_links": {"implements": {"href": "/mdr/cdash/1-1/classes/Findings/fields/--TEST", "title": "Name of Measurement, Test or Examination", "type": "Class Variable"}, "parentDomain": {"href": "/mdr/cdashig/2-1/domains/IE", "title": "Inclusion/Exclusion Criteria Not Met", "type": "CDASH Domain"}, "parentProduct": {"href": "/mdr/cdashig/2-1", "title": "Clinical Data Acquisition Standards Harmonization Implementation Guide for Human Clinical Trials Version 2.1", "type": "Implementation Guide"}, "priorVersion": {"href": "/mdr/cdashig/2-0/domains/IE/fields/IETEST", "title": "Inclusion/Exclusion Criterion", "type": "Data Collection Field"}, "rootItem": {"href": "/mdr/root/cdashig/domains/IE/fields/IETEST", "title": "Version-agnostic anchor element for field IE.IETEST", "type": "Root Data Element"}, "sdtmigDatasetMappingTargets": [{"href": "/mdr/sdtmig/3-2/datasets/IE/variables/IETEST", "title": "Inclusion/Exclusion Criterion", "type": "SDTM Dataset Variable"}], "self": {"href": "/mdr/cdashig/2-1/domains/IE/fields/IETEST", "title": "Inclusion/Exclusion Criterion", "type": "Data Collection Field"}}, "completionInstructions": "Record the description of the criterion, if not preprinted on the CRF. If collected on the CRF, the sponsor may provide additional instructions to ensure the data is entered as intended.", "core": "O", "definition": "Descriptive name of the inclusion or exclusion criterion that was the exception.", "implementationNotes": "Sponsors could automatically populated the text in EDC systems when the Criterion Identifier is populated by the investigator. This can be verified by the PI to ensure the right Exception Identifier was selected.", "label": "Inclusion/Exclusion Criterion", "mappingInstructions": "Maps directly to the SDTMIG variable listed in the column with the heading SDTMIG Target. The SDTMIG variable IETESTCD may be determined from the value collected in IETEST. The SDTMIG variables IETESTCD and IETEST are required in the SDTM submission datasets.", "name": "IETEST", "ordinal": "11", "prompt": "Exception Criterion Description", "questionText": "What was the description of the inclusion criterion the subject did not meet or the exclusion criterion the subject met?", "simpleDatatype": "Char"}, {"_links": {"codelist": [{"href": "/mdr/root/ct/sdtmct/codelists/C66742", "title": "Version-agnostic anchor resource for codelist C66742", "type": "Root Value Domain"}], "implements": {"href": "/mdr/cdash/1-1/classes/Findings/fields/--ORRES", "title": "Result or Finding in Original Units", "type": "Class Variable"}, "parentDomain": {"href": "/mdr/cdashig/2-1/domains/IE", "title": "Inclusion/Exclusion Criteria Not Met", "type": "CDASH Domain"}, "parentProduct": {"href": "/mdr/cdashig/2-1", "title": "Clinical Data Acquisition Standards Harmonization Implementation Guide for Human Clinical Trials Version 2.1", "type": "Implementation Guide"}, "priorVersion": {"href": "/mdr/cdashig/2-0/domains/IE/fields/IEORRES", "title": "I/E Criterion Result", "type": "Data Collection Field"}, "rootItem": {"href": "/mdr/root/cdashig/domains/IE/fields/IEORRES", "title": "Version-agnostic anchor element for field IE.IEORRES", "type": "Root Data Element"}, "sdtmigDatasetMappingTargets": [{"href": "/mdr/sdtmig/3-2/datasets/IE/variables/IEORRES", "title": "I/E Criterion Original Result", "type": "SDTM Dataset Variable"}], "self": {"href": "/mdr/cdashig/2-1/domains/IE/fields/IEORRES", "title": "I/E Criterion Original Result", "type": "Data Collection Field"}}, "completionInstructions": "If collected on the CRF, the sponsor provides instructions to ensure the data is entered as intended.", "core": "HR", "definition": "An indication of which Inclusion criterion was not met or Exclusion criterion was met.", "implementationNotes": "This is only a data collection field when a complete list of inclusion and exclusion criteria are included on the CRF with Yes/No response options. If the sponsor collects only the criteria that are not fulfilled then, when an Inclusion Criteria is not met, IEORRES is mapped to \"N\" and when an Exclusion Criteria is met, IEORRES is mapped to \"Y\".", "label": "I/E Criterion Original Result", "mappingInstructions": "Maps directly to the SDTMIG variable listed in the column with the heading SDTMIG Target.", "name": "IEORRES", "ordinal": "12", "prompt": "(Result)", "questionText": "What is the result?", "simpleDatatype": "Char"}], "label": "Inclusion/Exclusion Criteria Not Met", "name": "IE", "ordinal": "15"}
