{"_links": {"parentClass": {"href": "/mdr/cdashig/2-1/classes/Findings", "title": "Findings", "type": "Class"}, "parentProduct": {"href": "/mdr/cdashig/2-1", "title": "Clinical Data Acquisition Standards Harmonization Implementation Guide for Human Clinical Trials Version 2.1", "type": "Implementation Guide"}, "self": {"href": "/mdr/cdashig/2-1/domains/RS", "title": "Disease Response", "type": "CDASH Domain"}}, "fields": [{"_links": {"implements": {"href": "/mdr/cdash/1-1/classes/Identifiers/fields/STUDYID", "title": "Study Identifier", "type": "Class Variable"}, "parentDomain": {"href": "/mdr/cdashig/2-1/domains/RS", "title": "Disease Response", "type": "CDASH Domain"}, "parentProduct": {"href": "/mdr/cdashig/2-1", "title": "Clinical Data Acquisition Standards Harmonization Implementation Guide for Human Clinical Trials Version 2.1", "type": "Implementation Guide"}, "rootItem": {"href": "/mdr/root/cdashig/domains/RS/fields/STUDYID", "title": "Version-agnostic anchor element for field RS.STUDYID", "type": "Root Data Element"}, "sdtmigDatasetMappingTargets": [{"href": "/mdr/sdtmig/3-2/datasets/RS/variables/STUDYID", "title": "Study Identifier", "type": "SDTM Dataset Variable"}], "self": {"href": "/mdr/cdashig/2-1/domains/RS/fields/STUDYID", "title": "Study Identifier", "type": "Data Collection Field"}}, "core": "HR", "definition": "A unique identifier for a study.", "implementationNotes": "While this field is not typically captured on a CRF, it should be displayed clearly on the CRF and/or the EDC system. This field can be included into the database or populated during SDTM-based dataset creation before submission.", "label": "Study Identifier", "mappingInstructions": "Maps directly to the SDTMIG variable listed in the column with the heading SDTMIG Target.", "name": "STUDYID", "ordinal": "1", "prompt": "[Protocol/Study]", "questionText": "What is the study identifier?", "simpleDatatype": "Char"}, {"_links": {"implements": {"href": "/mdr/cdash/1-1/classes/Identifiers/fields/SITEID", "title": "Study Site Identifier", "type": "Class Variable"}, "parentDomain": {"href": "/mdr/cdashig/2-1/domains/RS", "title": "Disease Response", "type": "CDASH Domain"}, "parentProduct": {"href": "/mdr/cdashig/2-1", "title": "Clinical Data Acquisition Standards Harmonization Implementation Guide for Human Clinical Trials Version 2.1", "type": "Implementation Guide"}, "rootItem": {"href": "/mdr/root/cdashig/domains/RS/fields/SITEID", "title": "Version-agnostic anchor element for field RS.SITEID", "type": "Root Data Element"}, "sdtmigDatasetMappingTargets": [{"href": "/mdr/sdtmig/3-2/datasets/DM/variables/SITEID", "title": "Study Site Identifier", "type": "SDTM Dataset Variable"}], "self": {"href": "/mdr/cdashig/2-1/domains/RS/fields/SITEID", "title": "Study Site Identifier", "type": "Data Collection Field"}}, "core": "HR", "definition": "A unique identifier for a site within a study.", "implementationNotes": "Paper: This is typically preprinted in the header of each CRF page for single site studies. For studies with multiple sites, this field may be left blank so that the number can be recorded by the site, or it may be preprinted on the CRFs that are shipped to each site. EDC: This should be prepopulated.", "label": "Study Site Identifier", "mappingInstructions": "Maps directly to the SDTMIG variable listed in the column with the heading SDTMIG Target.", "name": "SITEID", "ordinal": "2", "prompt": "Site (Identifier)", "questionText": "What is the site identifier?", "simpleDatatype": "Char"}, {"_links": {"implements": {"href": "/mdr/cdash/1-1/classes/Identifiers/fields/SUBJID", "title": "Subject Identifier for the Study", "type": "Class Variable"}, "parentDomain": {"href": "/mdr/cdashig/2-1/domains/RS", "title": "Disease Response", "type": "CDASH Domain"}, "parentProduct": {"href": "/mdr/cdashig/2-1", "title": "Clinical Data Acquisition Standards Harmonization Implementation Guide for Human Clinical Trials Version 2.1", "type": "Implementation Guide"}, "rootItem": {"href": "/mdr/root/cdashig/domains/RS/fields/SUBJID", "title": "Version-agnostic anchor element for field RS.SUBJID", "type": "Root Data Element"}, "sdtmigDatasetMappingTargets": [{"href": "/mdr/sdtmig/3-2/datasets/DM/variables/SUBJID", "title": "Subject Identifier for the Study", "type": "SDTM Dataset Variable"}], "self": {"href": "/mdr/cdashig/2-1/domains/RS/fields/SUBJID", "title": "Subject Identifier for the Study", "type": "Data Collection Field"}}, "completionInstructions": "Record the identifier for the subject.", "core": "HR", "definition": "A unique subject identifier within a site and a study.", "implementationNotes": "Paper: This is typically recorded in the header of each CRF page. EDC: The subject identifiers may be system generated. This CDASH variable is typically collected in all CDASH domains. However, this CDASH variable is populated only in the SDTMIG DM domain. For more information, refer to the SDTM Implementation Guide.", "label": "Subject Identifier for the Study", "mappingInstructions": "Maps directly to the SDTMIG variable listed in the column with the heading SDTMIG Target.", "name": "SUBJID", "ordinal": "3", "prompt": "[Subject/Participant] (Identifier)", "questionText": "What [is/was] the (study) [subject/participant] identifier?", "simpleDatatype": "Char"}, {"_links": {"implements": {"href": "/mdr/cdash/1-1/classes/Timing/fields/VISIT", "title": "Visit Name", "type": "Class Variable"}, "parentDomain": {"href": "/mdr/cdashig/2-1/domains/RS", "title": "Disease Response", "type": "CDASH Domain"}, "parentProduct": {"href": "/mdr/cdashig/2-1", "title": "Clinical Data Acquisition Standards Harmonization Implementation Guide for Human Clinical Trials Version 2.1", "type": "Implementation Guide"}, "rootItem": {"href": "/mdr/root/cdashig/domains/RS/fields/VISIT", "title": "Version-agnostic anchor element for field RS.VISIT", "type": "Root Data Element"}, "sdtmigDatasetMappingTargets": [{"href": "/mdr/sdtmig/3-2/datasets/RS/variables/VISIT", "title": "Visit Name", "type": "SDTM Dataset Variable"}], "self": {"href": "/mdr/cdashig/2-1/domains/RS/fields/VISIT", "title": "Visit Name", "type": "Data Collection Field"}}, "core": "R/C", "definition": "The name of a clinical encounter that encompasses planned and unplanned trial interventions, procedures, and assessments that may be performed on a subject.", "implementationNotes": "This CDASH variable is typically collected in all CDASH domains. However, this CDASH variable is represented only in the SDTMIG DM domain. For more information, refer to SDTM Table 2.2.4.", "label": "Visit Name", "mappingInstructions": "Maps directly to the SDTMIG variable listed in the column with the heading SDTMIG Target.", "name": "VISIT", "ordinal": "4", "prompt": "[Visit]", "questionText": "What is the visit name?", "simpleDatatype": "Char"}, {"_links": {"implements": {"href": "/mdr/cdash/1-1/classes/Timing/fields/VISDAT", "title": "Visit Date", "type": "Class Variable"}, "parentDomain": {"href": "/mdr/cdashig/2-1/domains/RS", "title": "Disease Response", "type": "CDASH Domain"}, "parentProduct": {"href": "/mdr/cdashig/2-1", "title": "Clinical Data Acquisition Standards Harmonization Implementation Guide for Human Clinical Trials Version 2.1", "type": "Implementation Guide"}, "rootItem": {"href": "/mdr/root/cdashig/domains/RS/fields/VISDAT", "title": "Version-agnostic anchor element for field RS.VISDAT", "type": "Root Data Element"}, "self": {"href": "/mdr/cdashig/2-1/domains/RS/fields/VISDAT", "title": "Visit Date", "type": "Data Collection Field"}}, "completionInstructions": "Record the [date/start date] of the visit using DD-MON-YYYY format.", "core": "R/C", "definition": "Date the clinical encounter occurred (or started).", "implementationNotes": "If the date the tests were collected can be determined from the Visit Date variable (VISDAT), apply that date to all of the tests at that visit, or the collection date can be collected on the CRF using the date (RSDAT). In this domain, it may not be appropriate to use the visit date as RSDTC.", "label": "Visit Date", "mappingInstructions": "This field is not an SDTM variable. If the date of a measurement, test, observation can be determined from the date/time of visit (VISDAT/VISTIM), concatenate the CDASH VISDAT/VISTIM components and populate the SDTMIG variable RSDTC in ISO 8601 format.", "name": "VISDAT", "ordinal": "5", "prompt": "(Visit) Date", "questionText": "What [is/was] the date of the visit?", "simpleDatatype": "Char"}, {"_links": {"codelist": [{"href": "/mdr/root/ct/sdtmct/codelists/C118971", "title": "Version-agnostic anchor resource for codelist C118971", "type": "Root Value Domain"}, {"href": "/mdr/root/ct/sdtmct/codelists/C124298", "title": "Version-agnostic anchor resource for codelist C124298", "type": "Root Value Domain"}], "implements": {"href": "/mdr/cdash/1-1/classes/Findings/fields/--CAT", "title": "Category", "type": "Class Variable"}, "parentDomain": {"href": "/mdr/cdashig/2-1/domains/RS", "title": "Disease Response", "type": "CDASH Domain"}, "parentProduct": {"href": "/mdr/cdashig/2-1", "title": "Clinical Data Acquisition Standards Harmonization Implementation Guide for Human Clinical Trials Version 2.1", "type": "Implementation Guide"}, "rootItem": {"href": "/mdr/root/cdashig/domains/RS/fields/RSCAT", "title": "Version-agnostic anchor element for field RS.RSCAT", "type": "Root Data Element"}, "sdtmigDatasetMappingTargets": [{"href": "/mdr/sdtmig/3-2/datasets/RS/variables/RSCAT", "title": "Category for Response Assessment", "type": "SDTM Dataset Variable"}], "self": {"href": "/mdr/cdashig/2-1/domains/RS/fields/RSCAT", "title": "Category for Response or Clin Class", "type": "Data Collection Field"}}, "core": "R/C", "definition": "A grouping of topic-variable values based on user-defined characteristics.", "implementationNotes": "This is most commonly either a heading or a preprinted category value on the CRF, and not a question to which the site would provide an answer. If a question is asked, the response is typically a sponsor-defined codelist. If the form is laid out as a grid, then words such as \"Category\" can be included as the column header. There are separate codelists used for categorizations of records about oncology response criteria (ONCRCAT) or other clinical classification (CRSCAT). Collect if multiple clinical classifications, or disease responses are active in a single study/database; otherwise, information should be distinguished somewhere on a form (e.g., table name, title, tab).", "label": "Category for Response or Clin Class", "mappingInstructions": "Maps directly to the SDTMIG variable listed in the column with the heading SDTMIG Target.", "name": "RSCAT", "ordinal": "6", "prompt": "[Disease Response/Clinical Classification Category]; NULL", "questionText": "What is the [category/ criteria] for the [disease response/clinical classification] or What is the [response/clinical classification] criteria?", "simpleDatatype": "Char"}, {"_links": {"implements": {"href": "/mdr/cdash/1-1/classes/Findings/fields/--SCAT", "title": "Subcategory", "type": "Class Variable"}, "parentDomain": {"href": "/mdr/cdashig/2-1/domains/RS", "title": "Disease Response", "type": "CDASH Domain"}, "parentProduct": {"href": "/mdr/cdashig/2-1", "title": "Clinical Data Acquisition Standards Harmonization Implementation Guide for Human Clinical Trials Version 2.1", "type": "Implementation Guide"}, "rootItem": {"href": "/mdr/root/cdashig/domains/RS/fields/RSSCAT", "title": "Version-agnostic anchor element for field RS.RSSCAT", "type": "Root Data Element"}, "self": {"href": "/mdr/cdashig/2-1/domains/RS/fields/RSSCAT", "title": "Subcategory for Response or Clin Class", "type": "Data Collection Field"}}, "core": "R/C", "definition": "A sub-division of the RSCAT values based on user-defined characteristics.", "implementationNotes": "Sponsor-defined controlled terminology. This would most commonly be preprinted on the CRF or screen and prepopulated in the data management system. This is not typically a question to which the site would provide an answer. RSSCAT can only be used if there is an RSCAT and it must be a subcategorization of RSCAT.", "label": "Subcategory for Response or Clin Class", "mappingInstructions": "Maps directly to the SDTMIG variable listed in the column with the heading SDTMIG Target.", "name": "RSSCAT", "ordinal": "7", "prompt": "[Disease Response/Clinical Classification Sub-Category]; NULL", "questionText": "What is the sub -category for the [disease response/clinical classification]?", "simpleDatatype": "Char"}, {"_links": {"codelist": [{"href": "/mdr/root/ct/sdtmct/codelists/C66742", "title": "Version-agnostic anchor resource for codelist C66742", "type": "Root Value Domain"}], "implements": {"href": "/mdr/cdash/1-1/classes/Findings/fields/--PERF", "title": "[Observation] Performed", "type": "Class Variable"}, "parentDomain": {"href": "/mdr/cdashig/2-1/domains/RS", "title": "Disease Response", "type": "CDASH Domain"}, "parentProduct": {"href": "/mdr/cdashig/2-1", "title": "Clinical Data Acquisition Standards Harmonization Implementation Guide for Human Clinical Trials Version 2.1", "type": "Implementation Guide"}, "rootItem": {"href": "/mdr/root/cdashig/domains/RS/fields/RSPERF", "title": "Version-agnostic anchor element for field RS.RSPERF", "type": "Root Data Element"}, "sdtmigDatasetMappingTargets": [{"href": "/mdr/sdtmig/3-2/datasets/RS/variables/RSSTAT", "title": "Completion Status", "type": "SDTM Dataset Variable"}], "self": {"href": "/mdr/cdashig/2-1/domains/RS/fields/RSPERF", "title": "Response or Clin Class Performed", "type": "Data Collection Field"}}, "completionInstructions": "Indicate whether or not the [disease response/clinical classification] assessment was performed.", "core": "O", "definition": "An indication whether or not a planned disease response or clinical classification assessment was performed.", "implementationNotes": "A Not Done check box, which indicates the test was \"NOT DONE\". Typically, there would be one check box for each measurement. This field can be useful to confirm that a blank result field is meant to be blank.", "label": "Response or Clin Class Performed", "mappingInstructions": "This does not map directly to an SDTMIG variable. May be used to derive a value into the SDTMIG variable RSSTAT. If RSPERF=\"N\", the value of RSSTAT will be \"NOT DONE\". If RSPERF=\"Y\", RSSTAT should be null. A combination of SDTMIG variables ( e.g., RSCAT and RSSCAT, RSTPT ) is used to indicate that multiple tests were not done. In this situation, the SDTMIG variable RSTESTCD would be populated as RSALL and an appropriate test name (RSTEST) provided. See SDTMIG v3.2 Section 4.1.5.1.2.", "name": "RSPERF", "ordinal": "8", "prompt": "[Disease Response/Clinical Classification] Assessment", "questionText": "Was the [(disease) response/clinical classification] assessment performed?", "simpleDatatype": "Char"}, {"_links": {"implements": {"href": "/mdr/cdash/1-1/classes/Findings/fields/--REASND", "title": "Reason Not Done", "type": "Class Variable"}, "parentDomain": {"href": "/mdr/cdashig/2-1/domains/RS", "title": "Disease Response", "type": "CDASH Domain"}, "parentProduct": {"href": "/mdr/cdashig/2-1", "title": "Clinical Data Acquisition Standards Harmonization Implementation Guide for Human Clinical Trials Version 2.1", "type": "Implementation Guide"}, "rootItem": {"href": "/mdr/root/cdashig/domains/RS/fields/RSREASND", "title": "Version-agnostic anchor element for field RS.RSREASND", "type": "Root Data Element"}, "sdtmigDatasetMappingTargets": [{"href": "/mdr/sdtmig/3-2/datasets/RS/variables/RSREASND", "title": "Reason Response Assessment Not Performed", "type": "SDTM Dataset Variable"}], "self": {"href": "/mdr/cdashig/2-1/domains/RS/fields/RSREASND", "title": "Response or Clin Class Reason Not Done", "type": "Data Collection Field"}}, "completionInstructions": "If the response was not collected, indicate why.", "core": "O", "definition": "An explanation of why the data are not available.", "implementationNotes": "The reason the data are not available may be chosen from a sponsor defined list (e.g., Not Imaged, Patient Refusal, Site Error) or entered as free text. When RSREASND is used, the SDTMIG variable RSSTAT should also be populated in the SDTM-based dataset.", "label": "Response or Clin Class Reason Not Done", "mappingInstructions": "Maps directly to the SDTMIG variable listed in the column with the heading SDTMIG Target.", "name": "RSREASND", "ordinal": "9", "prompt": "Reason Response Assessment Not Performed", "questionText": "Why was the [disease response/clinical classification] assessment not performed?", "simpleDatatype": "Char"}, {"_links": {"codelist": [{"href": "/mdr/root/ct/sdtmct/codelists/C78735", "title": "Version-agnostic anchor resource for codelist C78735", "type": "Root Value Domain"}], "implements": {"href": "/mdr/cdash/1-1/classes/Findings/fields/--EVAL", "title": "Evaluator", "type": "Class Variable"}, "parentDomain": {"href": "/mdr/cdashig/2-1/domains/RS", "title": "Disease Response", "type": "CDASH Domain"}, "parentProduct": {"href": "/mdr/cdashig/2-1", "title": "Clinical Data Acquisition Standards Harmonization Implementation Guide for Human Clinical Trials Version 2.1", "type": "Implementation Guide"}, "rootItem": {"href": "/mdr/root/cdashig/domains/RS/fields/RSEVAL", "title": "Version-agnostic anchor element for field RS.RSEVAL", "type": "Root Data Element"}, "sdtmigDatasetMappingTargets": [{"href": "/mdr/sdtmig/3-2/datasets/RS/variables/RSEVAL", "title": "Evaluator", "type": "SDTM Dataset Variable"}], "self": {"href": "/mdr/cdashig/2-1/domains/RS/fields/RSEVAL", "title": "Response or Clin Class Evaluator", "type": "Data Collection Field"}}, "completionInstructions": "Indicate who performed the assessment.", "core": "R/C", "definition": "The role of the person who provided the information.", "implementationNotes": "Used only for results that are subjective (assigned by a person or a group). RSEVAL is expected for oncology response criteria. It can be null when the investigator provides all the data in a study. It should contain no null values when data from 1 of more evaluator are used in a study.", "label": "Response or Clin Class Evaluator", "mappingInstructions": "Maps directly to the SDTMIG variable listed in the column with the heading SDTMIG Target.", "name": "RSEVAL", "ordinal": "10", "prompt": "Evaluator", "questionText": "What was the role of the person performing the [disease response/clinical classifiaction] assessment?", "simpleDatatype": "Char"}, {"_links": {"codelist": [{"href": "/mdr/root/ct/sdtmct/codelists/C96777", "title": "Version-agnostic anchor resource for codelist C96777", "type": "Root Value Domain"}], "implements": {"href": "/mdr/cdash/1-1/classes/Findings/fields/--EVALID", "title": "Evaluator Identifier", "type": "Class Variable"}, "parentDomain": {"href": "/mdr/cdashig/2-1/domains/RS", "title": "Disease Response", "type": "CDASH Domain"}, "parentProduct": {"href": "/mdr/cdashig/2-1", "title": "Clinical Data Acquisition Standards Harmonization Implementation Guide for Human Clinical Trials Version 2.1", "type": "Implementation Guide"}, "rootItem": {"href": "/mdr/root/cdashig/domains/RS/fields/RSEVALID", "title": "Version-agnostic anchor element for field RS.RSEVALID", "type": "Root Data Element"}, "sdtmigDatasetMappingTargets": [{"href": "/mdr/sdtmig/3-2/datasets/RS/variables/RSEVALID", "title": "Evaluator Identifier", "type": "SDTM Dataset Variable"}], "self": {"href": "/mdr/cdashig/2-1/domains/RS/fields/RSEVALID", "title": "Response or Clin Class Evaluator ID", "type": "Data Collection Field"}}, "completionInstructions": "Identify the evaluator providing this evaluation.", "core": "O", "definition": "Used to distinguish multiple evaluators with the same role.", "implementationNotes": "When multiple assessors play the role identified in RSEVAL, values of RSEVALID will attribute a row of data to a particular assessor.", "label": "Response or Clin Class Evaluator ID", "mappingInstructions": "Maps directly to the SDTMIG variable listed in the column with the heading SDTMIG Target.", "name": "RSEVALID", "ordinal": "11", "prompt": "Evaluator Identifier", "questionText": "What is the evaluator identifier?", "simpleDatatype": "Char"}, {"_links": {"implements": {"href": "/mdr/cdash/1-1/classes/Identifiers/fields/--LNKID", "title": "Link ID", "type": "Class Variable"}, "parentDomain": {"href": "/mdr/cdashig/2-1/domains/RS", "title": "Disease Response", "type": "CDASH Domain"}, "parentProduct": {"href": "/mdr/cdashig/2-1", "title": "Clinical Data Acquisition Standards Harmonization Implementation Guide for Human Clinical Trials Version 2.1", "type": "Implementation Guide"}, "rootItem": {"href": "/mdr/root/cdashig/domains/RS/fields/RSLNKID", "title": "Version-agnostic anchor element for field RS.RSLNKID", "type": "Root Data Element"}, "sdtmigDatasetMappingTargets": [{"href": "/mdr/sdtmig/3-2/datasets/RS/variables/RSLNKID", "title": "Link ID", "type": "SDTM Dataset Variable"}], "self": {"href": "/mdr/cdashig/2-1/domains/RS/fields/RSLNKID", "title": "Response or Clin Class Link ID", "type": "Data Collection Field"}}, "completionInstructions": "If collected, record the unique [Disease Response or Clinical Classification ] Link ID Identifier.", "core": "O", "definition": "An identifier used to link the disease response assessment to the related record in another domain which was used to determine the response result.", "implementationNotes": "This variable is used to provide a unique code in order to link records across related CRFs (e.g., RS and TR) when appropriate. Sponsors develop their own conventions for populating RSLNKID.", "label": "Response or Clin Class Link ID", "mappingInstructions": "Maps directly to the SDTMIG variable listed in the column with the heading SDTMIG Target.", "name": "RSLNKID", "ordinal": "12", "prompt": "[Disease Response or Clinical Classification ]Link ID", "questionText": "What was the [Disease Response or Clinical Classification ]Link ID Identifier?", "simpleDatatype": "Char"}, {"_links": {"implements": {"href": "/mdr/cdash/1-1/classes/Identifiers/fields/--LNKGRP", "title": "Link Group ID", "type": "Class Variable"}, "parentDomain": {"href": "/mdr/cdashig/2-1/domains/RS", "title": "Disease Response", "type": "CDASH Domain"}, "parentProduct": {"href": "/mdr/cdashig/2-1", "title": "Clinical Data Acquisition Standards Harmonization Implementation Guide for Human Clinical Trials Version 2.1", "type": "Implementation Guide"}, "rootItem": {"href": "/mdr/root/cdashig/domains/RS/fields/RSLNKGRP", "title": "Version-agnostic anchor element for field RS.RSLNKGRP", "type": "Root Data Element"}, "sdtmigDatasetMappingTargets": [{"href": "/mdr/sdtmig/3-2/datasets/RS/variables/RSLNKGRP", "title": "Link Group", "type": "SDTM Dataset Variable"}], "self": {"href": "/mdr/cdashig/2-1/domains/RS/fields/RSLNKGRP", "title": "Response or Clin Class Link Group", "type": "Data Collection Field"}}, "completionInstructions": "If collected, record the unique [Disease Response or Clinical Classification ] Link Group Identifier.", "core": "O", "definition": "A grouping identifier used to link the disease response assessment to a group of related record in another domain which was used to determine the response result.", "implementationNotes": "This variable is used to provide a unique code in order to link a group of records across related CRFs (e.g., RS and TR) when appropriate. Sponsors develop their own conventions for populating RSLNKGRP.", "label": "Response or Clin Class Link Group", "mappingInstructions": "Maps directly to the SDTMIG variable listed in the column with the heading SDTMIG Target.", "name": "RSLNKGRP", "ordinal": "13", "prompt": "[Disease Response or Clinical Classification ]Link Group", "questionText": "What was the [Disease Response or Clinical Classification] Link Group Identifier?", "simpleDatatype": "Char"}, {"_links": {"codelist": [{"href": "/mdr/root/ct/sdtmct/codelists/C96781", "title": "Version-agnostic anchor resource for codelist C96781", "type": "Root Value Domain"}], "implements": {"href": "/mdr/cdash/1-1/classes/Findings/fields/--TEST", "title": "Name of Measurement, Test or Examination", "type": "Class Variable"}, "parentDomain": {"href": "/mdr/cdashig/2-1/domains/RS", "title": "Disease Response", "type": "CDASH Domain"}, "parentProduct": {"href": "/mdr/cdashig/2-1", "title": "Clinical Data Acquisition Standards Harmonization Implementation Guide for Human Clinical Trials Version 2.1", "type": "Implementation Guide"}, "rootItem": {"href": "/mdr/root/cdashig/domains/RS/fields/RSTEST", "title": "Version-agnostic anchor element for field RS.RSTEST", "type": "Root Data Element"}, "sdtmigDatasetMappingTargets": [{"href": "/mdr/sdtmig/3-2/datasets/RS/variables/RSTESTCD", "title": "Response Assessment Short Name", "type": "SDTM Dataset Variable"}, {"href": "/mdr/sdtmig/3-2/datasets/RS/variables/RSTEST", "title": "Response Assessment Name", "type": "SDTM Dataset Variable"}], "self": {"href": "/mdr/cdashig/2-1/domains/RS/fields/RSTEST", "title": "Response or Clin Class Assessment Name", "type": "Data Collection Field"}}, "completionInstructions": "Record the name of the RS test, if not preprinted on the CRF. If collected on the CRF, the sponsor may provide additional instructions to ensure the data is entered as intended.", "core": "HR", "definition": "Descriptive name of the disease response or clinical classification used to obtain the measurement or finding.", "implementationNotes": "Required to identify which test the result is for. It is recommended that the test names be preprinted on the CRF rather than collected in a field that requires the site to enter text. If the form is laid out as a grid, then words such as \"Test\" can be included as the column header.", "label": "Response or Clin Class Assessment Name", "mappingInstructions": "Maps directly to the SDTMIG variable listed in the column with the heading SDTMIG Target. The SDTMIG variable RSTESTCD may be determined from the value collected in RSTEST. The SDTMIG variables RSTESTCD and RSTEST are required in the SDTM submission datasets. Use appropriate CDISC Controlled Terminology for the test and test code.", "name": "RSTEST", "ordinal": "14", "prompt": "[Disease Response / Clinical Classification Test Name]", "questionText": "What was the [disease response/clinical classification] test name?", "simpleDatatype": "Char"}, {"_links": {"implements": {"href": "/mdr/cdash/1-1/classes/Findings/fields/--ORRES", "title": "Result or Finding in Original Units", "type": "Class Variable"}, "parentDomain": {"href": "/mdr/cdashig/2-1/domains/RS", "title": "Disease Response", "type": "CDASH Domain"}, "parentProduct": {"href": "/mdr/cdashig/2-1", "title": "Clinical Data Acquisition Standards Harmonization Implementation Guide for Human Clinical Trials Version 2.1", "type": "Implementation Guide"}, "rootItem": {"href": "/mdr/root/cdashig/domains/RS/fields/RSORRES", "title": "Version-agnostic anchor element for field RS.RSORRES", "type": "Root Data Element"}, "sdtmigDatasetMappingTargets": [{"href": "/mdr/sdtmig/3-2/datasets/RS/variables/RSORRES", "title": "Response Assessment Original Result", "type": "SDTM Dataset Variable"}], "self": {"href": "/mdr/cdashig/2-1/domains/RS/fields/RSORRES", "title": "Response or Clin Class Original Result", "type": "Data Collection Field"}}, "completionInstructions": "Indicate the response classification", "core": "HR", "definition": "Result of the disease response or clinical classification as originally received, collected,or calculated.", "implementationNotes": "Both quantitative results and interpretive findings or summaries may be recorded here.", "label": "Response or Clin Class Original Result", "mappingInstructions": "Maps directly to the SDTMIG variable listed in the column with the heading SDTMIG Target.", "name": "RSORRES", "ordinal": "15", "prompt": "(Result)", "questionText": "What was the [disease response/clinical classification]?", "simpleDatatype": "Char"}, {"_links": {"codelist": [{"href": "/mdr/root/ct/sdtmct/codelists/C71620", "title": "Version-agnostic anchor resource for codelist C71620", "type": "Root Value Domain"}], "implements": {"href": "/mdr/cdash/1-1/classes/Findings/fields/--ORRESU", "title": "Original Units", "type": "Class Variable"}, "parentDomain": {"href": "/mdr/cdashig/2-1/domains/RS", "title": "Disease Response", "type": "CDASH Domain"}, "parentProduct": {"href": "/mdr/cdashig/2-1", "title": "Clinical Data Acquisition Standards Harmonization Implementation Guide for Human Clinical Trials Version 2.1", "type": "Implementation Guide"}, "rootItem": {"href": "/mdr/root/cdashig/domains/RS/fields/RSORRESU", "title": "Version-agnostic anchor element for field RS.RSORRESU", "type": "Root Data Element"}, "self": {"href": "/mdr/cdashig/2-1/domains/RS/fields/RSORRESU", "title": "Response or Clin Class Original Units", "type": "Data Collection Field"}}, "completionInstructions": "Record or select the original units in which these data were collected, if not preprinted on CRF", "core": "HR", "definition": "The unit of the result as originally received or collected.", "implementationNotes": "Should be preprinted on the CRF with the associated test when possible, rather than collected in a field that requires the site to enter text. Should be included if applicable and not available elsewhere.", "label": "Response or Clin Class Original Units", "mappingInstructions": "Maps directly to the SDTMIG variable listed in the column with the heading SDTMIG Target.", "name": "RSORRESU", "ordinal": "16", "prompt": "Unit", "questionText": "What was the [disease response/clinical classification] unit?", "simpleDatatype": "Char"}], "label": "Disease Response", "name": "RS", "ordinal": "25"}
