{"_links": {"parentClass": {"href": "/mdr/cdashig/2-1/classes/Interventions", "title": "Interventions", "type": "Class"}, "parentProduct": {"href": "/mdr/cdashig/2-1", "title": "Clinical Data Acquisition Standards Harmonization Implementation Guide for Human Clinical Trials Version 2.1", "type": "Implementation Guide"}, "priorVersion": {"href": "/mdr/cdashig/2-0/domains/SU", "title": "Substance Use", "type": "CDASH Domain"}, "self": {"href": "/mdr/cdashig/2-1/domains/SU", "title": "Substance Use", "type": "CDASH Domain"}}, "fields": [{"_links": {"implements": {"href": "/mdr/cdash/1-1/classes/Identifiers/fields/STUDYID", "title": "Study Identifier", "type": "Class Variable"}, "parentDomain": {"href": "/mdr/cdashig/2-1/domains/SU", "title": "Substance Use", "type": "CDASH Domain"}, "parentProduct": {"href": "/mdr/cdashig/2-1", "title": "Clinical Data Acquisition Standards Harmonization Implementation Guide for Human Clinical Trials Version 2.1", "type": "Implementation Guide"}, "priorVersion": {"href": "/mdr/cdashig/2-0/domains/SU/fields/STUDYID", "title": "Study Identifier", "type": "Data Collection Field"}, "rootItem": {"href": "/mdr/root/cdashig/domains/SU/fields/STUDYID", "title": "Version-agnostic anchor element for field SU.STUDYID", "type": "Root Data Element"}, "sdtmigDatasetMappingTargets": [{"href": "/mdr/sdtmig/3-2/datasets/SU/variables/STUDYID", "title": "Study Identifier", "type": "SDTM Dataset Variable"}], "self": {"href": "/mdr/cdashig/2-1/domains/SU/fields/STUDYID", "title": "Study Identifier", "type": "Data Collection Field"}}, "core": "HR", "definition": "A unique identifier for a study.", "implementationNotes": "While this field is not typically captured on a CRF, it should be displayed clearly on the CRF and/or the EDC system. This field can be included into the database or populated during SDTM-based dataset creation before submission.", "label": "Study Identifier", "mappingInstructions": "Maps directly to the SDTMIG variable listed in the column with the heading SDTMIG Target.", "name": "STUDYID", "ordinal": "1", "prompt": "[Protocol/Study]", "questionText": "What is the study identifier?", "simpleDatatype": "Char"}, {"_links": {"implements": {"href": "/mdr/cdash/1-1/classes/Identifiers/fields/SITEID", "title": "Study Site Identifier", "type": "Class Variable"}, "parentDomain": {"href": "/mdr/cdashig/2-1/domains/SU", "title": "Substance Use", "type": "CDASH Domain"}, "parentProduct": {"href": "/mdr/cdashig/2-1", "title": "Clinical Data Acquisition Standards Harmonization Implementation Guide for Human Clinical Trials Version 2.1", "type": "Implementation Guide"}, "priorVersion": {"href": "/mdr/cdashig/2-0/domains/SU/fields/SITEID", "title": "Study Site Identifier", "type": "Data Collection Field"}, "rootItem": {"href": "/mdr/root/cdashig/domains/SU/fields/SITEID", "title": "Version-agnostic anchor element for field SU.SITEID", "type": "Root Data Element"}, "sdtmigDatasetMappingTargets": [{"href": "/mdr/sdtmig/3-2/datasets/DM/variables/SITEID", "title": "Study Site Identifier", "type": "SDTM Dataset Variable"}], "self": {"href": "/mdr/cdashig/2-1/domains/SU/fields/SITEID", "title": "Study Site Identifier", "type": "Data Collection Field"}}, "core": "HR", "definition": "A unique identifier for a site within a study.", "implementationNotes": "Paper: This is typically preprinted in the header of each CRF page for single site studies. For studies with multiple sites, this field may be left blank so that the number can be recorded by the site, or it may be preprinted on the CRFs that are shipped to each site. EDC: This should be prepopulated.", "label": "Study Site Identifier", "mappingInstructions": "Maps directly to the SDTMIG variable listed in the column with the heading SDTMIG Target.", "name": "SITEID", "ordinal": "2", "prompt": "Site (Identifier)", "questionText": "What is the site identifier?", "simpleDatatype": "Char"}, {"_links": {"implements": {"href": "/mdr/cdash/1-1/classes/Identifiers/fields/SUBJID", "title": "Subject Identifier for the Study", "type": "Class Variable"}, "parentDomain": {"href": "/mdr/cdashig/2-1/domains/SU", "title": "Substance Use", "type": "CDASH Domain"}, "parentProduct": {"href": "/mdr/cdashig/2-1", "title": "Clinical Data Acquisition Standards Harmonization Implementation Guide for Human Clinical Trials Version 2.1", "type": "Implementation Guide"}, "priorVersion": {"href": "/mdr/cdashig/2-0/domains/SU/fields/SUBJID", "title": "Subject Identifier for the Study", "type": "Data Collection Field"}, "rootItem": {"href": "/mdr/root/cdashig/domains/SU/fields/SUBJID", "title": "Version-agnostic anchor element for field SU.SUBJID", "type": "Root Data Element"}, "sdtmigDatasetMappingTargets": [{"href": "/mdr/sdtmig/3-2/datasets/DM/variables/SUBJID", "title": "Subject Identifier for the Study", "type": "SDTM Dataset Variable"}], "self": {"href": "/mdr/cdashig/2-1/domains/SU/fields/SUBJID", "title": "Subject Identifier for the Study", "type": "Data Collection Field"}}, "completionInstructions": "Record the identifier for the subject.", "core": "HR", "definition": "A unique subject identifier within a site and a study.", "implementationNotes": "Paper: This is typically recorded in the header of each CRF page. EDC: The subject identifiers may be system generated. This CDASH variable is typically collected in all CDASH domains. However, this CDASH variable is populated only in the SDTMIG DM domain. For more information, refer to the SDTM Implementation Guide.", "label": "Subject Identifier for the Study", "mappingInstructions": "Maps directly to the SDTMIG variable listed in the column with the heading SDTMIG Target.", "name": "SUBJID", "ordinal": "3", "prompt": "[Subject/Participant] (Identifier)", "questionText": "What [is/was] the (study) [subject/participant] identifier?", "simpleDatatype": "Char"}, {"_links": {"implements": {"href": "/mdr/cdash/1-1/classes/Interventions/fields/--TRT", "title": "Name of Treatment", "type": "Class Variable"}, "parentDomain": {"href": "/mdr/cdashig/2-1/domains/SU", "title": "Substance Use", "type": "CDASH Domain"}, "parentProduct": {"href": "/mdr/cdashig/2-1", "title": "Clinical Data Acquisition Standards Harmonization Implementation Guide for Human Clinical Trials Version 2.1", "type": "Implementation Guide"}, "priorVersion": {"href": "/mdr/cdashig/2-0/domains/SU/fields/SUTRT", "title": "Substance Use Name", "type": "Data Collection Field"}, "rootItem": {"href": "/mdr/root/cdashig/domains/SU/fields/SUTRT", "title": "Version-agnostic anchor element for field SU.SUTRT", "type": "Root Data Element"}, "sdtmigDatasetMappingTargets": [{"href": "/mdr/sdtmig/3-2/datasets/SU/variables/SUTRT", "title": "Reported Name of Substance", "type": "SDTM Dataset Variable"}], "self": {"href": "/mdr/cdashig/2-1/domains/SU/fields/SUTRT", "title": "Reported Name of Substance", "type": "Data Collection Field"}}, "core": "HR", "definition": "The type of substance (e.g., TOBACCO, ALCOHOL, CAFFEINE or CIGARETTES, CIGARS, COFFEE).", "implementationNotes": "Sponsors may require different types of substance use data (e.g., illicit drug use, cigarettes); the value for category may be preprinted on the CRF as a label for the prompt for Substance Use. If a more detailed type of substance appears on the CRF (e.g., CIGARETTES, CIGARS rather than TOBACCO), SUCAT should be TOBACCO and SUTRT should be CIGARETTES.", "label": "Reported Name of Substance", "mappingInstructions": "Maps directly to the SDTMIG variable listed in the column with the heading SDTMIG Target.", "name": "SUTRT", "ordinal": "4", "prompt": "[Type of Substance]", "questionText": "What [is/was] the [name/type] of (the) substance used?", "simpleDatatype": "Char"}, {"_links": {"implements": {"href": "/mdr/cdash/1-1/classes/Interventions/fields/--CAT", "title": "Category", "type": "Class Variable"}, "parentDomain": {"href": "/mdr/cdashig/2-1/domains/SU", "title": "Substance Use", "type": "CDASH Domain"}, "parentProduct": {"href": "/mdr/cdashig/2-1", "title": "Clinical Data Acquisition Standards Harmonization Implementation Guide for Human Clinical Trials Version 2.1", "type": "Implementation Guide"}, "priorVersion": {"href": "/mdr/cdashig/2-0/domains/SU/fields/SUCAT", "title": "Category for Substance Use", "type": "Data Collection Field"}, "rootItem": {"href": "/mdr/root/cdashig/domains/SU/fields/SUCAT", "title": "Version-agnostic anchor element for field SU.SUCAT", "type": "Root Data Element"}, "sdtmigDatasetMappingTargets": [{"href": "/mdr/sdtmig/3-2/datasets/SU/variables/SUCAT", "title": "Category for Substance Use", "type": "SDTM Dataset Variable"}], "self": {"href": "/mdr/cdashig/2-1/domains/SU/fields/SUCAT", "title": "Category for Substance Use", "type": "Data Collection Field"}}, "completionInstructions": "Record the Substance Used category, if not preprinted on the CRF.", "core": "R/C", "definition": "A grouping of topic-variable values based on user-defined characteristics.", "implementationNotes": "Sponsor-defined controlled terminology (e.g., TOBACCO, ALCOHOL, CAFFEINE). Sponsors may require different types of substance use data (e.g., illicit drug use, cigarettes); the value for category may be preprinted on the CRF. If a more detailed type of substance appears on the CRF (e.g., CIGARETTES, CIGARS, rather than TOBACCO), SUCAT is TOBACCO and SUTRT is CIGARETTES. If the sponsor does not specify a type of tobacco on the CRF, SUTRT is TOBACCO. If SUCAT is not collected (e.g. it is self-evident from the protocol design), it could be populated during the SDTM-based dataset creation process.", "label": "Category for Substance Use", "mappingInstructions": "Maps directly to the SDTMIG variable listed in the column with the heading SDTMIG Target.", "name": "SUCAT", "ordinal": "5", "prompt": "[Substance (Used) Category]; NULL", "questionText": "What is/was the category of the substance (used)?", "simpleDatatype": "Char"}, {"_links": {"implements": {"href": "/mdr/cdash/1-1/classes/Interventions/fields/--SCAT", "title": "Subcategory", "type": "Class Variable"}, "parentDomain": {"href": "/mdr/cdashig/2-1/domains/SU", "title": "Substance Use", "type": "CDASH Domain"}, "parentProduct": {"href": "/mdr/cdashig/2-1", "title": "Clinical Data Acquisition Standards Harmonization Implementation Guide for Human Clinical Trials Version 2.1", "type": "Implementation Guide"}, "priorVersion": {"href": "/mdr/cdashig/2-0/domains/SU/fields/SUSCAT", "title": "Subcategory for Substance Use", "type": "Data Collection Field"}, "rootItem": {"href": "/mdr/root/cdashig/domains/SU/fields/SUSCAT", "title": "Version-agnostic anchor element for field SU.SUSCAT", "type": "Root Data Element"}, "sdtmigDatasetMappingTargets": [{"href": "/mdr/sdtmig/3-2/datasets/SU/variables/SUSCAT", "title": "Subcategory for Substance Use", "type": "SDTM Dataset Variable"}], "self": {"href": "/mdr/cdashig/2-1/domains/SU/fields/SUSCAT", "title": "Subcategory for Substance Use", "type": "Data Collection Field"}}, "completionInstructions": "Record the Substance Use subcategory, if not preprinted on the CRF.", "core": "O", "definition": "A sub-division of the SUCAT values based on user-defined characteristics.", "implementationNotes": "Sponsor-defined controlled terminology. The value for subcategory may be preprinted on the CRF or hidden. SUSCAT can only be used if there is a SUCAT and it must be a subcategorization of SUCAT.", "label": "Subcategory for Substance Use", "mappingInstructions": "Maps directly to the SDTMIG variable listed in the column with the heading SDTMIG Target.", "name": "SUSCAT", "ordinal": "6", "prompt": "[Substance (Used) Subcategory]; NULL", "questionText": "What was the subcategory of the substance (used)?", "simpleDatatype": "Char"}, {"_links": {"codelist": [{"href": "/mdr/root/ct/sdtmct/codelists/C66742", "title": "Version-agnostic anchor resource for codelist C66742", "type": "Root Value Domain"}], "implements": {"href": "/mdr/cdash/1-1/classes/Interventions/fields/--PRESP", "title": "Pre-Specified Intervention", "type": "Class Variable"}, "parentDomain": {"href": "/mdr/cdashig/2-1/domains/SU", "title": "Substance Use", "type": "CDASH Domain"}, "parentProduct": {"href": "/mdr/cdashig/2-1", "title": "Clinical Data Acquisition Standards Harmonization Implementation Guide for Human Clinical Trials Version 2.1", "type": "Implementation Guide"}, "rootItem": {"href": "/mdr/root/cdashig/domains/SU/fields/SUPRESP", "title": "Version-agnostic anchor element for field SU.SUPRESP", "type": "Root Data Element"}, "sdtmigDatasetMappingTargets": [{"href": "/mdr/sdtmig/3-2/datasets/SU/variables/SUPRESP", "title": "SU Pre-Specified", "type": "SDTM Dataset Variable"}], "self": {"href": "/mdr/cdashig/2-1/domains/SU/fields/SUPRESP", "title": "SU prespecified", "type": "Data Collection Field"}}, "core": "O", "definition": "An indication that a specific intervention or a group of interventions is prespecified on a CRF.", "implementationNotes": "For prespecified interventions, a hidden field on a CRF defaulted to Y, or added during the SDTM dataset creation. If a study collects both prespecified interventions as well as free-text interventions, the value of SUPRESP should be Y for all prespecified interventions and null for interventions reported as free-text.", "label": "SU prespecified", "mappingInstructions": "Maps directly to the SDTMIG variable listed in the column with the heading SDTMIG Target.", "name": "SUPRESP", "ordinal": "7", "simpleDatatype": "Char"}, {"_links": {"codelist": [{"href": "/mdr/root/ct/sdtmct/codelists/C66742", "title": "Version-agnostic anchor resource for codelist C66742", "type": "Root Value Domain"}], "implements": {"href": "/mdr/cdash/1-1/classes/Interventions/fields/--YN", "title": "Any [Intervention]", "type": "Class Variable"}, "parentDomain": {"href": "/mdr/cdashig/2-1/domains/SU", "title": "Substance Use", "type": "CDASH Domain"}, "parentProduct": {"href": "/mdr/cdashig/2-1", "title": "Clinical Data Acquisition Standards Harmonization Implementation Guide for Human Clinical Trials Version 2.1", "type": "Implementation Guide"}, "priorVersion": {"href": "/mdr/cdashig/2-0/domains/SU/fields/SUYN", "title": "Any Substance Used", "type": "Data Collection Field"}, "rootItem": {"href": "/mdr/root/cdashig/domains/SU/fields/SUYN", "title": "Version-agnostic anchor element for field SU.SUYN", "type": "Root Data Element"}, "self": {"href": "/mdr/cdashig/2-1/domains/SU/fields/SUYN", "title": "Any Substance Used", "type": "Data Collection Field"}}, "completionInstructions": "Indicate if the subject had used any (sponsor-defined phrase/recreational drugs/alcohol/substance name).", "core": "O", "definition": "An indication whether or not any data was collected for the intervention topic.", "implementationNotes": "General prompt question to aid in monitoring and data cleaning. This provides verification that all other fields on the CRF were deliberately left blank. This is a field that can be used on any interventions CRF to indicate whether or not there is data to record.", "label": "Any Substance Used", "mappingInstructions": "Does not map to an SDTMIG variable. The SDTM Annotated CRF is annotated to indicate that this field is NOT SUBMITTED.", "name": "SUYN", "ordinal": "8", "prompt": "Any [Substance Name (Used)]", "questionText": "Were any [sponsor-phrase/substance name/recreational drugs] used?", "simpleDatatype": "Char"}, {"_links": {"codelist": [{"href": "/mdr/root/ct/sdtmct/codelists/C78738", "title": "Version-agnostic anchor resource for codelist C78738", "type": "Root Value Domain"}, {"href": "/mdr/root/ct/cdashct/codelists/C83004", "title": "Version-agnostic anchor resource for codelist C83004", "type": "Root Value Domain"}], "implements": {"href": "/mdr/cdash/1-1/classes/Interventions/fields/--NCF", "title": "Never Current Former Usage", "type": "Class Variable"}, "parentDomain": {"href": "/mdr/cdashig/2-1/domains/SU", "title": "Substance Use", "type": "CDASH Domain"}, "parentProduct": {"href": "/mdr/cdashig/2-1", "title": "Clinical Data Acquisition Standards Harmonization Implementation Guide for Human Clinical Trials Version 2.1", "type": "Implementation Guide"}, "priorVersion": {"href": "/mdr/cdashig/2-0/domains/SU/fields/SUNCF", "title": "Never Current Former Usage", "type": "Data Collection Field"}, "rootItem": {"href": "/mdr/root/cdashig/domains/SU/fields/SUNCF", "title": "Version-agnostic anchor element for field SU.SUNCF", "type": "Root Data Element"}, "sdtmigDatasetMappingTargets": [{"href": "/mdr/sdtmig/3-2/datasets/SUPPQUAL/variables/QVAL", "title": "Data Value", "type": "SDTM Dataset Variable"}, {"href": "/mdr/sdtmig/3-2/datasets/SU/variables/SUOCCUR", "title": "SU Occurrence", "type": "SDTM Dataset Variable"}, {"href": "/mdr/sdtmig/3-2/datasets/SU/variables/SUENRTPT", "title": "End Relative to Reference Time Point", "type": "SDTM Dataset Variable"}, {"href": "/mdr/sdtmig/3-2/datasets/SU/variables/SUSTRTPT", "title": "Start Relative to Reference Time Point", "type": "SDTM Dataset Variable"}, {"href": "/mdr/sdtmig/3-2/datasets/SU/variables/SUENRF", "title": "End Relative to Reference Period", "type": "SDTM Dataset Variable"}, {"href": "/mdr/sdtmig/3-2/datasets/SU/variables/SUSTRF", "title": "Start Relative to Reference Period", "type": "SDTM Dataset Variable"}], "self": {"href": "/mdr/cdashig/2-1/domains/SU/fields/SUNCF", "title": "Never Current Former Usage", "type": "Data Collection Field"}}, "completionInstructions": "Check the appropriate box to indicate if the subject has ever used/consumed tobacco/alcohol/caffeine, currently consumes tobacco/alcohol/caffeine, or formerly used/consumed tobacco/alcohol/caffeine.", "core": "R/C", "definition": "Indication the prespecified substance was used.", "implementationNotes": "The 3 options (NEVER, CURRENT, FORMER) are sponsor-defined in relation to the protocol. If the sponsor has specific definitions, these definitions are detailed in the instructions to the site. As this type of response does not correspond exactly to an SDTM variable, CDASH recommends using the CDASHIG variable SUNCF. Sponsors must decide how to populate the appropriate relative timing variables when the SDTM-based datasets are created. For example, If SUNCF =\"Never\", the value of SUOCCUR will be \"N\" and all relative timing variables will be null. If the sponsor chooses to populate the relative start references (SUSTRTPT, SUSTRF) the value will be \"BEFORE\" when SUNCF= \"CURRENT\" and \"FORMER\". If the sponsor also chooses to use relative end references (SUENRF, SUENRTPT) , the SUENRTPT value will be \"ONGOING\" when SUNCF=\"CURREN\" while the value of SUENRF will be \"DURING/AFTER\". \n Note: When using SUSTRTPT and/or SUENRTPT, these must refer to a \"time point anchor\" such as SCREENING in SUSTTPT/SUENTPT.", "label": "Never Current Former Usage", "mappingInstructions": "This does not map directly to an SDTMIG variable. May be used to populate SUOCCUR and relative timing variables.", "name": "SUNCF", "ordinal": "9", "prompt": "([Substance]) Usage", "questionText": "Has the subject ever [used/consumed] [SUTRT/SUCAT]?", "simpleDatatype": "Char"}, {"_links": {"implements": {"href": "/mdr/cdash/1-1/classes/Identifiers/fields/--SPID", "title": "Sponsor-Defined Identifier", "type": "Class Variable"}, "parentDomain": {"href": "/mdr/cdashig/2-1/domains/SU", "title": "Substance Use", "type": "CDASH Domain"}, "parentProduct": {"href": "/mdr/cdashig/2-1", "title": "Clinical Data Acquisition Standards Harmonization Implementation Guide for Human Clinical Trials Version 2.1", "type": "Implementation Guide"}, "priorVersion": {"href": "/mdr/cdashig/2-0/domains/SU/fields/SUSPID", "title": "Substance Use Sponsor-Defined Identifier", "type": "Data Collection Field"}, "rootItem": {"href": "/mdr/root/cdashig/domains/SU/fields/SUSPID", "title": "Version-agnostic anchor element for field SU.SUSPID", "type": "Root Data Element"}, "sdtmigDatasetMappingTargets": [{"href": "/mdr/sdtmig/3-2/datasets/SU/variables/SUSPID", "title": "Sponsor-Defined Identifier", "type": "SDTM Dataset Variable"}], "self": {"href": "/mdr/cdashig/2-1/domains/SU/fields/SUSPID", "title": "Substance Use Sponsor-Defined Identifier", "type": "Data Collection Field"}}, "completionInstructions": "If collected on the CRF, sponsor may insert instructions to ensure each record has a unique identifier.", "core": "O", "definition": "A sponsor-defined identifier. In CDASH, This is typically used for preprinted or auto-generated numbers on the CRF, or any other type of identifier that does not already have a defined CDASH identifier field.", "implementationNotes": "Since SPID is a sponsor-defined identifier, conformance to Question Text or Item Prompt is not applicable. Typically used as an identifier in a data query to communicate clearly to the site the specific record in question or to reconcile data. May be used to record preprinted number (e.g., line number, record number) on the CRF. This field may be populated by the sponsor's data collection system.", "label": "Substance Use Sponsor-Defined Identifier", "mappingInstructions": "Maps directly to the SDTMIG variable listed in the column with the heading SDTMIG Target. May be used to create RELREC to link this record with a record in another domain.", "name": "SUSPID", "ordinal": "10", "prompt": "[Sponsor defined]", "questionText": "[Sponsor-defined question]", "simpleDatatype": "Char"}, {"_links": {"implements": {"href": "/mdr/cdash/1-1/classes/Interventions/fields/--REASND", "title": "Reason Not Done", "type": "Class Variable"}, "parentDomain": {"href": "/mdr/cdashig/2-1/domains/SU", "title": "Substance Use", "type": "CDASH Domain"}, "parentProduct": {"href": "/mdr/cdashig/2-1", "title": "Clinical Data Acquisition Standards Harmonization Implementation Guide for Human Clinical Trials Version 2.1", "type": "Implementation Guide"}, "priorVersion": {"href": "/mdr/cdashig/2-0/domains/SU/fields/SUREASND", "title": "Substance Use Reason Not Done", "type": "Data Collection Field"}, "rootItem": {"href": "/mdr/root/cdashig/domains/SU/fields/SUREASND", "title": "Version-agnostic anchor element for field SU.SUREASND", "type": "Root Data Element"}, "sdtmigDatasetMappingTargets": [{"href": "/mdr/sdtmig/3-2/datasets/SU/variables/SUREASND", "title": "Reason Substance Use Not Collected", "type": "SDTM Dataset Variable"}], "self": {"href": "/mdr/cdashig/2-1/domains/SU/fields/SUREASND", "title": "Reason Substance Use Not Collected", "type": "Data Collection Field"}}, "completionInstructions": "Provide the reason why the substance used data were not collected.", "core": "O", "definition": "An explanation of why the data are not available.", "implementationNotes": "The reason the data are not available may be chosen from a sponsor defined list (e.g., subject refused) or entered as free text. When PRREASND is used, the SDTMIG variable PRSTAT should also be populated in the SDTM-based dataset.", "label": "Reason Substance Use Not Collected", "mappingInstructions": "Maps directly to the SDTMIG variable listed in the column with the heading SDTMIG Target.", "name": "SUREASND", "ordinal": "11", "prompt": "Reason Not Collected", "questionText": "What was the reason the data was not collected?", "simpleDatatype": "Char"}, {"_links": {"implements": {"href": "/mdr/cdash/1-1/classes/Interventions/fields/--DSTXT", "title": "Dose Description", "type": "Class Variable"}, "parentDomain": {"href": "/mdr/cdashig/2-1/domains/SU", "title": "Substance Use", "type": "CDASH Domain"}, "parentProduct": {"href": "/mdr/cdashig/2-1", "title": "Clinical Data Acquisition Standards Harmonization Implementation Guide for Human Clinical Trials Version 2.1", "type": "Implementation Guide"}, "priorVersion": {"href": "/mdr/cdashig/2-0/domains/SU/fields/SUDSTXT", "title": "Substance Dose Description", "type": "Data Collection Field"}, "rootItem": {"href": "/mdr/root/cdashig/domains/SU/fields/SUDSTXT", "title": "Version-agnostic anchor element for field SU.SUDSTXT", "type": "Root Data Element"}, "sdtmigDatasetMappingTargets": [{"href": "/mdr/sdtmig/3-2/datasets/SU/variables/SUDOSU", "title": "Consumption Units", "type": "SDTM Dataset Variable"}, {"href": "/mdr/sdtmig/3-2/datasets/SU/variables/SUDOSTXT", "title": "Substance Use Consumption Text", "type": "SDTM Dataset Variable"}, {"href": "/mdr/sdtmig/3-2/datasets/SU/variables/SUDOSE", "title": "Substance Use Consumption", "type": "SDTM Dataset Variable"}], "self": {"href": "/mdr/cdashig/2-1/domains/SU/fields/SUDSTXT", "title": "Substance Dose Description", "type": "Data Collection Field"}}, "completionInstructions": "Check the appropriate box to indicate the amount of tobacco/alcohol/caffeine the subject consumes on a regular basis.", "core": "O", "definition": "The amount of substance used (e.g., 1-2 packs, 8 ounces).", "implementationNotes": "Where possible, the options for dose/amount are preprinted on the CRF. In the example given in the Definition, (packs) and (ounces) are included as a point of reference. They would, of course, be submitted as SUDOSU. Care should be taken to map each record to the appropriate SDTM variable SUDOSTXT (text results that cannot be represented in a numeric field) and SUDOSE (numeric results).", "label": "Substance Dose Description", "mappingInstructions": "This does not map directly to an SDTMIG variable. Numeric values map to SUDOSE in SDTM. Non-numeric values (e.g., 200-400) map to SUDOSTXT in SDTM.", "name": "SUDSTXT", "ordinal": "12", "prompt": "Amount", "questionText": "What is/was the amount of [SUTRT] used/consumed?", "simpleDatatype": "Char"}, {"_links": {"codelist": [{"href": "/mdr/root/ct/sdtmct/codelists/C71113", "title": "Version-agnostic anchor resource for codelist C71113", "type": "Root Value Domain"}], "implements": {"href": "/mdr/cdash/1-1/classes/Interventions/fields/--DOSFRQ", "title": "Dosing Frequency per Interval", "type": "Class Variable"}, "parentDomain": {"href": "/mdr/cdashig/2-1/domains/SU", "title": "Substance Use", "type": "CDASH Domain"}, "parentProduct": {"href": "/mdr/cdashig/2-1", "title": "Clinical Data Acquisition Standards Harmonization Implementation Guide for Human Clinical Trials Version 2.1", "type": "Implementation Guide"}, "priorVersion": {"href": "/mdr/cdashig/2-0/domains/SU/fields/SUDOSFRQ", "title": "Substance Use Frequency per Interval", "type": "Data Collection Field"}, "rootItem": {"href": "/mdr/root/cdashig/domains/SU/fields/SUDOSFRQ", "title": "Version-agnostic anchor element for field SU.SUDOSFRQ", "type": "Root Data Element"}, "sdtmigDatasetMappingTargets": [{"href": "/mdr/sdtmig/3-2/datasets/SU/variables/SUDOSFRQ", "title": "Use Frequency Per Interval", "type": "SDTM Dataset Variable"}], "self": {"href": "/mdr/cdashig/2-1/domains/SU/fields/SUDOSFRQ", "title": "Substance Use Frequency per Interval", "type": "Data Collection Field"}}, "completionInstructions": "Record how often the subject regularly [uses / consumes] (the) [substance].", "core": "O", "definition": "The number/amount of the of substance consumed per a specific interval.", "implementationNotes": "When possible, the options for dose/amount frequency are preprinted on the CRF. (e.g., PER DAY, PER WEEK, OCCASIONAL).", "label": "Substance Use Frequency per Interval", "mappingInstructions": "Maps directly to the SDTMIG variable listed in the column with the heading SDTMIG Target.", "name": "SUDOSFRQ", "ordinal": "13", "prompt": "Frequency", "questionText": "What [is/was] the frequency of [SUTRT] [use/consumption]?", "simpleDatatype": "Char"}, {"_links": {"implements": {"href": "/mdr/cdash/1-1/classes/Timing/fields/--STDAT", "title": "Observation Start Date", "type": "Class Variable"}, "parentDomain": {"href": "/mdr/cdashig/2-1/domains/SU", "title": "Substance Use", "type": "CDASH Domain"}, "parentProduct": {"href": "/mdr/cdashig/2-1", "title": "Clinical Data Acquisition Standards Harmonization Implementation Guide for Human Clinical Trials Version 2.1", "type": "Implementation Guide"}, "priorVersion": {"href": "/mdr/cdashig/2-0/domains/SU/fields/SUSTDAT", "title": "Substance Use Start Date", "type": "Data Collection Field"}, "rootItem": {"href": "/mdr/root/cdashig/domains/SU/fields/SUSTDAT", "title": "Version-agnostic anchor element for field SU.SUSTDAT", "type": "Root Data Element"}, "sdtmigDatasetMappingTargets": [{"href": "/mdr/sdtmig/3-2/datasets/SU/variables/SUSTDTC", "title": "Start Date/Time of Substance Use", "type": "SDTM Dataset Variable"}], "self": {"href": "/mdr/cdashig/2-1/domains/SU/fields/SUSTDAT", "title": "Substance Use Start Date", "type": "Data Collection Field"}}, "completionInstructions": "Record the start date of the substance use using this format (DD-MON-YYYY).", "core": "O", "definition": "The date substance use started, represented in an unambiguous date format (e.g., DD-MON-YYYY).", "implementationNotes": "The sponsor may choose to capture a complete date or any variation thereof (e.g., month and year, year).", "label": "Substance Use Start Date", "mappingInstructions": "This does not map directly to an SDTMIG variable. For the SDTM submission dataset, concatenate all collected CDASH START DATE and TIME components and populate the SDTMIG variable SUSTDTC in ISO 8601 format.", "name": "SUSTDAT", "ordinal": "14", "prompt": "Start Date", "questionText": "What was the start date of [SUTRT/SUCAT] use/consumption?", "simpleDatatype": "Char"}, {"_links": {"implements": {"href": "/mdr/cdash/1-1/classes/Timing/fields/--ENDAT", "title": "Observation End Date", "type": "Class Variable"}, "parentDomain": {"href": "/mdr/cdashig/2-1/domains/SU", "title": "Substance Use", "type": "CDASH Domain"}, "parentProduct": {"href": "/mdr/cdashig/2-1", "title": "Clinical Data Acquisition Standards Harmonization Implementation Guide for Human Clinical Trials Version 2.1", "type": "Implementation Guide"}, "priorVersion": {"href": "/mdr/cdashig/2-0/domains/SU/fields/SUENDAT", "title": "Substance Use End Date", "type": "Data Collection Field"}, "rootItem": {"href": "/mdr/root/cdashig/domains/SU/fields/SUENDAT", "title": "Version-agnostic anchor element for field SU.SUENDAT", "type": "Root Data Element"}, "sdtmigDatasetMappingTargets": [{"href": "/mdr/sdtmig/3-2/datasets/SU/variables/SUENDTC", "title": "End Date/Time of Substance Use", "type": "SDTM Dataset Variable"}], "self": {"href": "/mdr/cdashig/2-1/domains/SU/fields/SUENDAT", "title": "Substance Use End Date", "type": "Data Collection Field"}}, "completionInstructions": "Record the end date of the substance use using this format (DD-MON-YYYY).", "core": "O", "definition": "The date substance use ended, represented in an unambiguous date format (e.g., DD-MON-YYYY).", "implementationNotes": "The sponsor may choose to capture a complete date or any variation thereof (e.g., month and year, year).", "label": "Substance Use End Date", "mappingInstructions": "This does not map directly to an SDTMIG variable. For the SDTM submission dataset, concatenate all collected CDASH END DATE and TIME components and populate the SDTMIG variable SUENDTC in ISO 8601 format.", "name": "SUENDAT", "ordinal": "15", "prompt": "End Date", "questionText": "What was the end date of [SUTRT/SUCAT] use/consumption?", "simpleDatatype": "Char"}, {"_links": {"implements": {"href": "/mdr/cdash/1-1/classes/Timing/fields/--CDUR", "title": "Collected Duration", "type": "Class Variable"}, "parentDomain": {"href": "/mdr/cdashig/2-1/domains/SU", "title": "Substance Use", "type": "CDASH Domain"}, "parentProduct": {"href": "/mdr/cdashig/2-1", "title": "Clinical Data Acquisition Standards Harmonization Implementation Guide for Human Clinical Trials Version 2.1", "type": "Implementation Guide"}, "priorVersion": {"href": "/mdr/cdashig/2-0/domains/SU/fields/SUCDUR", "title": "Substance Use Collected Duration", "type": "Data Collection Field"}, "rootItem": {"href": "/mdr/root/cdashig/domains/SU/fields/SUCDUR", "title": "Version-agnostic anchor element for field SU.SUCDUR", "type": "Root Data Element"}, "sdtmigDatasetMappingTargets": [{"href": "/mdr/sdtmig/3-2/datasets/SU/variables/SUDUR", "title": "Duration of Substance Use", "type": "SDTM Dataset Variable"}], "self": {"href": "/mdr/cdashig/2-1/domains/SU/fields/SUCDUR", "title": "Substance Use Collected Duration", "type": "Data Collection Field"}}, "completionInstructions": "Provide the duration of the substance use (e.g., Record how long the subject has smoked).", "core": "O", "definition": "Collected duration of the substance use.", "implementationNotes": "This is only collected on the CRF if this level of detail is needed and if SUSTDAT and SUENDAT are not collected on the CRF.", "label": "Substance Use Collected Duration", "mappingInstructions": "This does not map directly to an SDTMIG variable. For the SDTM-based dataset, concatenating the CDASH collected duration and collected duration unit and populate the SDTMIG variable SUDUR in ISO 8601 format. Example: P1DT2H (for 1 day, 2 hours).", "name": "SUCDUR", "ordinal": "16", "prompt": "Duration", "questionText": "What was the duration of [SUTRT/SUCAT] use/consumption?", "simpleDatatype": "Char"}, {"_links": {"codelist": [{"href": "/mdr/root/ct/sdtmct/codelists/C71620", "title": "Version-agnostic anchor resource for codelist C71620", "type": "Root Value Domain"}], "implements": {"href": "/mdr/cdash/1-1/classes/Timing/fields/--CDURU", "title": "Collected Duration Unit", "type": "Class Variable"}, "parentDomain": {"href": "/mdr/cdashig/2-1/domains/SU", "title": "Substance Use", "type": "CDASH Domain"}, "parentProduct": {"href": "/mdr/cdashig/2-1", "title": "Clinical Data Acquisition Standards Harmonization Implementation Guide for Human Clinical Trials Version 2.1", "type": "Implementation Guide"}, "priorVersion": {"href": "/mdr/cdashig/2-0/domains/SU/fields/SUCDURU", "title": "Substance Use Collected Duration Unit", "type": "Data Collection Field"}, "rootItem": {"href": "/mdr/root/cdashig/domains/SU/fields/SUCDURU", "title": "Version-agnostic anchor element for field SU.SUCDURU", "type": "Root Data Element"}, "sdtmigDatasetMappingTargets": [{"href": "/mdr/sdtmig/3-2/datasets/SU/variables/SUDUR", "title": "Duration of Substance Use", "type": "SDTM Dataset Variable"}], "self": {"href": "/mdr/cdashig/2-1/domains/SU/fields/SUCDURU", "title": "Substance Use Collected Duration Unit", "type": "Data Collection Field"}}, "completionInstructions": "Select the appropriate duration unit of the substance use.", "core": "O", "definition": "Unit of the collected duration of the substance use. Used only if duration was collected on the CRF.", "implementationNotes": "The sponsor-defined options should be preprinted on the CRF to avoid making this a free text field. This will allow the response to be translated into ISO 8601 format.", "label": "Substance Use Collected Duration Unit", "mappingInstructions": "This does not map directly to an SDTMIG variable. For the SDTM-based dataset, concatenating the CDASH collected duration and collected duration unit and populate the SDTMIG variable SUDUR in ISO 8601 format. Example: P1DT2H (for 1 day, 2 hours).", "name": "SUCDURU", "ordinal": "17", "prompt": "(Duration) Unit", "questionText": "What was the unit of duration of [SUTRT/SUCAT] use/consumption?", "simpleDatatype": "Char"}, {"_links": {"implements": {"href": "/mdr/cdash/1-1/classes/Interventions/fields/--MODIFY", "title": "Modified Treatment Name", "type": "Class Variable"}, "parentDomain": {"href": "/mdr/cdashig/2-1/domains/SU", "title": "Substance Use", "type": "CDASH Domain"}, "parentProduct": {"href": "/mdr/cdashig/2-1", "title": "Clinical Data Acquisition Standards Harmonization Implementation Guide for Human Clinical Trials Version 2.1", "type": "Implementation Guide"}, "priorVersion": {"href": "/mdr/cdashig/2-0/domains/SU/fields/SUMODIFY", "title": "Modified Substance Use Name", "type": "Data Collection Field"}, "rootItem": {"href": "/mdr/root/cdashig/domains/SU/fields/SUMODIFY", "title": "Version-agnostic anchor element for field SU.SUMODIFY", "type": "Root Data Element"}, "sdtmigDatasetMappingTargets": [{"href": "/mdr/sdtmig/3-2/datasets/SU/variables/SUMODIFY", "title": "Modified Substance Name", "type": "SDTM Dataset Variable"}], "self": {"href": "/mdr/cdashig/2-1/domains/SU/fields/SUMODIFY", "title": "Modified Substance Name", "type": "Data Collection Field"}}, "core": "O", "definition": "If the value for SUTERM is modified for coding purposes, then the modified text is placed here.", "implementationNotes": "This is not a data collection field that would appear on the CRF. If the sponsor chooses to code the substance use, the sponsor will populate this through the coding process.", "label": "Modified Substance Name", "mappingInstructions": "Maps directly to the SDTMIG variable listed in the column with the heading SDTMIG Target.", "name": "SUMODIFY", "ordinal": "18", "simpleDatatype": "Char"}, {"_links": {"implements": {"href": "/mdr/cdash/1-1/classes/Interventions/fields/--DECOD", "title": "Standardized Treatment Name", "type": "Class Variable"}, "parentDomain": {"href": "/mdr/cdashig/2-1/domains/SU", "title": "Substance Use", "type": "CDASH Domain"}, "parentProduct": {"href": "/mdr/cdashig/2-1", "title": "Clinical Data Acquisition Standards Harmonization Implementation Guide for Human Clinical Trials Version 2.1", "type": "Implementation Guide"}, "priorVersion": {"href": "/mdr/cdashig/2-0/domains/SU/fields/SUDECOD", "title": "Substance Use Dictionary or Standardized Term", "type": "Data Collection Field"}, "rootItem": {"href": "/mdr/root/cdashig/domains/SU/fields/SUDECOD", "title": "Version-agnostic anchor element for field SU.SUDECOD", "type": "Root Data Element"}, "sdtmigDatasetMappingTargets": [{"href": "/mdr/sdtmig/3-2/datasets/SU/variables/SUDECOD", "title": "Standardized Substance Name", "type": "SDTM Dataset Variable"}], "self": {"href": "/mdr/cdashig/2-1/domains/SU/fields/SUDECOD", "title": "Standardized Substance Name", "type": "Data Collection Field"}}, "core": "O", "definition": "The dictionary or sponsor-defined standardized text description of SUTRT, or the modified topic variable (SUMODIFY), if applicable.", "implementationNotes": "This is typically not a data collection field that will appear on the CRF. If the sponsor chooses to code the substance use, the sponsor will populate this through the coding process. Equivalent to the generic drug name in WHODrug, or a term in SNOMED, ICD9, or other published or sponsor-defined dictionaries. If SUPRESP is used, and the information about a specific standardized substance name is being solicited, the data from SUTRT may map directly to the SDTMIG SUDECOD variable.", "label": "Standardized Substance Name", "mappingInstructions": "Maps directly to the SDTMIG variable listed in the column with the heading SDTMIG Target. The sponsor is expected to provide the dictionary name and version used to map the terms utilizing the Define-XML external codelist attributes. Sponsors should include an Origin in the define metadata to indicate that the data was \"ASSIGNED\".", "name": "SUDECOD", "ordinal": "19", "simpleDatatype": "Char"}], "label": "Substance Use", "name": "SU", "ordinal": "28"}
