{"_links": {"parentClass": {"href": "/mdr/cdashig/2-1/classes/Findings", "title": "Findings", "type": "Class"}, "parentProduct": {"href": "/mdr/cdashig/2-1", "title": "Clinical Data Acquisition Standards Harmonization Implementation Guide for Human Clinical Trials Version 2.1", "type": "Implementation Guide"}, "self": {"href": "/mdr/cdashig/2-1/domains/TR", "title": "Tumor Results", "type": "CDASH Domain"}}, "fields": [{"_links": {"implements": {"href": "/mdr/cdash/1-1/classes/Identifiers/fields/STUDYID", "title": "Study Identifier", "type": "Class Variable"}, "parentDomain": {"href": "/mdr/cdashig/2-1/domains/TR", "title": "Tumor Results", "type": "CDASH Domain"}, "parentProduct": {"href": "/mdr/cdashig/2-1", "title": "Clinical Data Acquisition Standards Harmonization Implementation Guide for Human Clinical Trials Version 2.1", "type": "Implementation Guide"}, "rootItem": {"href": "/mdr/root/cdashig/domains/TR/fields/STUDYID", "title": "Version-agnostic anchor element for field TR.STUDYID", "type": "Root Data Element"}, "sdtmigDatasetMappingTargets": [{"href": "/mdr/sdtmig/3-2/datasets/TR/variables/STUDYID", "title": "Study Identifier", "type": "SDTM Dataset Variable"}], "self": {"href": "/mdr/cdashig/2-1/domains/TR/fields/STUDYID", "title": "Study Identifier", "type": "Data Collection Field"}}, "core": "HR", "definition": "A unique identifier for a study.", "implementationNotes": "While this field is not typically captured on a CRF, it should be displayed clearly on the CRF and/or the EDC system. This field can be included into the database or populated during SDTM-based dataset creation before submission.", "label": "Study Identifier", "mappingInstructions": "Maps directly to the SDTMIG variable listed in the column with the heading SDTMIG Target.", "name": "STUDYID", "ordinal": "1", "prompt": "[Protocol/Study]", "questionText": "What is the study identifier?", "simpleDatatype": "Char"}, {"_links": {"implements": {"href": "/mdr/cdash/1-1/classes/Identifiers/fields/SITEID", "title": "Study Site Identifier", "type": "Class Variable"}, "parentDomain": {"href": "/mdr/cdashig/2-1/domains/TR", "title": "Tumor Results", "type": "CDASH Domain"}, "parentProduct": {"href": "/mdr/cdashig/2-1", "title": "Clinical Data Acquisition Standards Harmonization Implementation Guide for Human Clinical Trials Version 2.1", "type": "Implementation Guide"}, "rootItem": {"href": "/mdr/root/cdashig/domains/TR/fields/SITEID", "title": "Version-agnostic anchor element for field TR.SITEID", "type": "Root Data Element"}, "sdtmigDatasetMappingTargets": [{"href": "/mdr/sdtmig/3-2/datasets/DM/variables/SITEID", "title": "Study Site Identifier", "type": "SDTM Dataset Variable"}], "self": {"href": "/mdr/cdashig/2-1/domains/TR/fields/SITEID", "title": "Study Site Identifier", "type": "Data Collection Field"}}, "core": "HR", "definition": "A unique identifier for a site within a study.", "implementationNotes": "Paper: This is typically preprinted in the header of each CRF page for single site studies. For studies with multiple sites, this field may be left blank so that the number can be recorded by the site, or it may be preprinted on the CRFs that are shipped to each site. EDC: This should be prepopulated.", "label": "Study Site Identifier", "mappingInstructions": "Maps directly to the SDTMIG variable listed in the column with the heading SDTMIG Target.", "name": "SITEID", "ordinal": "2", "prompt": "Site (Identifier)", "questionText": "What is the site identifier?", "simpleDatatype": "Char"}, {"_links": {"implements": {"href": "/mdr/cdash/1-1/classes/Identifiers/fields/SUBJID", "title": "Subject Identifier for the Study", "type": "Class Variable"}, "parentDomain": {"href": "/mdr/cdashig/2-1/domains/TR", "title": "Tumor Results", "type": "CDASH Domain"}, "parentProduct": {"href": "/mdr/cdashig/2-1", "title": "Clinical Data Acquisition Standards Harmonization Implementation Guide for Human Clinical Trials Version 2.1", "type": "Implementation Guide"}, "rootItem": {"href": "/mdr/root/cdashig/domains/TR/fields/SUBJID", "title": "Version-agnostic anchor element for field TR.SUBJID", "type": "Root Data Element"}, "sdtmigDatasetMappingTargets": [{"href": "/mdr/sdtmig/3-2/datasets/DM/variables/SUBJID", "title": "Subject Identifier for the Study", "type": "SDTM Dataset Variable"}], "self": {"href": "/mdr/cdashig/2-1/domains/TR/fields/SUBJID", "title": "Subject Identifier for the Study", "type": "Data Collection Field"}}, "completionInstructions": "Record the identifier for the subject.", "core": "HR", "definition": "A unique subject identifier within a site and a study.", "implementationNotes": "Paper: This is typically recorded in the header of each CRF page. EDC: The subject identifiers may be system generated. This CDASH variable is typically collected in all CDASH domains. However, this CDASH variable is populated only in the SDTMIG DM domain. For more information, refer to the SDTM Implementation Guide.", "label": "Subject Identifier for the Study", "mappingInstructions": "Maps directly to the SDTMIG variable listed in the column with the heading SDTMIG Target.", "name": "SUBJID", "ordinal": "3", "prompt": "[Subject/Participant] (Identifier)", "questionText": "What [is/was] the (study) [subject/participant] identifier?", "simpleDatatype": "Char"}, {"_links": {"implements": {"href": "/mdr/cdash/1-1/classes/Timing/fields/VISIT", "title": "Visit Name", "type": "Class Variable"}, "parentDomain": {"href": "/mdr/cdashig/2-1/domains/TR", "title": "Tumor Results", "type": "CDASH Domain"}, "parentProduct": {"href": "/mdr/cdashig/2-1", "title": "Clinical Data Acquisition Standards Harmonization Implementation Guide for Human Clinical Trials Version 2.1", "type": "Implementation Guide"}, "rootItem": {"href": "/mdr/root/cdashig/domains/TR/fields/VISIT", "title": "Version-agnostic anchor element for field TR.VISIT", "type": "Root Data Element"}, "sdtmigDatasetMappingTargets": [{"href": "/mdr/sdtmig/3-2/datasets/TR/variables/VISIT", "title": "Visit Name", "type": "SDTM Dataset Variable"}], "self": {"href": "/mdr/cdashig/2-1/domains/TR/fields/VISIT", "title": "Visit Name", "type": "Data Collection Field"}}, "core": "R/C", "definition": "The name of a clinical encounter that encompasses planned and unplanned trial interventions, procedures, and assessments that may be performed on a subject.", "implementationNotes": "This CDASH variable is typically collected in all CDASH domains. However, this CDASH variable is represented only in the SDTMIG DM domain. For more information, refer to SDTM Table 2.2.4.", "label": "Visit Name", "mappingInstructions": "Maps directly to the SDTMIG variable listed in the column with the heading SDTMIG Target.", "name": "VISIT", "ordinal": "4", "prompt": "[Visit]", "questionText": "What is the visit name?", "simpleDatatype": "Char"}, {"_links": {"implements": {"href": "/mdr/cdash/1-1/classes/Timing/fields/VISDAT", "title": "Visit Date", "type": "Class Variable"}, "parentDomain": {"href": "/mdr/cdashig/2-1/domains/TR", "title": "Tumor Results", "type": "CDASH Domain"}, "parentProduct": {"href": "/mdr/cdashig/2-1", "title": "Clinical Data Acquisition Standards Harmonization Implementation Guide for Human Clinical Trials Version 2.1", "type": "Implementation Guide"}, "rootItem": {"href": "/mdr/root/cdashig/domains/TR/fields/VISDAT", "title": "Version-agnostic anchor element for field TR.VISDAT", "type": "Root Data Element"}, "self": {"href": "/mdr/cdashig/2-1/domains/TR/fields/VISDAT", "title": "Visit Date", "type": "Data Collection Field"}}, "completionInstructions": "Record the [date/start date] of the visit using DD-MON-YYYY format.", "core": "R/C", "definition": "Date the clinical encounter occurred (or started).", "implementationNotes": "If the date the test was collected can be determined from the Visit Date variable (VISDAT), apply that date to all of the tests at that visit, or the collection date can be collected on the CRF using the date (TRDAT). In this domain, it may not be appropriate to use the vist date as TRDTC.", "label": "Visit Date", "mappingInstructions": "This field is not an SDTM variable. If the date of a measurement, test, observation can be determined from the date/time of visit (VISDAT/VISTIM) and then concatenating the CDASH VISDAT/VISTIM components and populating the SDTMIG variable TRDTC in ISO 8601 format.", "name": "VISDAT", "ordinal": "5", "prompt": "(Visit) Date", "questionText": "What [is/was] the date of the visit?", "simpleDatatype": "Char"}, {"_links": {"implements": {"href": "/mdr/cdash/1-1/classes/Identifiers/fields/--LNKGRP", "title": "Link Group ID", "type": "Class Variable"}, "parentDomain": {"href": "/mdr/cdashig/2-1/domains/TR", "title": "Tumor Results", "type": "CDASH Domain"}, "parentProduct": {"href": "/mdr/cdashig/2-1", "title": "Clinical Data Acquisition Standards Harmonization Implementation Guide for Human Clinical Trials Version 2.1", "type": "Implementation Guide"}, "rootItem": {"href": "/mdr/root/cdashig/domains/TR/fields/TRLNKGRP", "title": "Version-agnostic anchor element for field TR.TRLNKGRP", "type": "Root Data Element"}, "sdtmigDatasetMappingTargets": [{"href": "/mdr/sdtmig/3-2/datasets/TR/variables/TRLNKGRP", "title": "Link Group", "type": "SDTM Dataset Variable"}], "self": {"href": "/mdr/cdashig/2-1/domains/TR/fields/TRLNKGRP", "title": "Tumor/Lesion Result Link Group", "type": "Data Collection Field"}}, "completionInstructions": "If collected on the CRF, sponsor may insert instructions to ensure each record has the appropriate identifier.", "core": "O", "definition": "An identifier used to link related records across domains.", "implementationNotes": "Because TRLNKGRP is a sponsor-defined identifier, conformance to Question Text or Item Prompt is not applicable. This is typically used in oncology clincial trials. It is intended to group all the assessments at a evaluation time point represented in the TR domain with the associated response assessments represented in the RS domain.", "label": "Tumor/Lesion Result Link Group", "mappingInstructions": "Maps directly to the SDTMIG variable listed in the column with the heading SDTMIG Target.", "name": "TRLNKGRP", "ordinal": "6", "prompt": "[Tumor/Lesion] [Link Group] ID", "questionText": "What was the [tumor/lesion] [link group] identifier?", "simpleDatatype": "Char"}, {"_links": {"implements": {"href": "/mdr/cdash/1-1/classes/Findings/fields/--CAT", "title": "Category", "type": "Class Variable"}, "parentDomain": {"href": "/mdr/cdashig/2-1/domains/TR", "title": "Tumor Results", "type": "CDASH Domain"}, "parentProduct": {"href": "/mdr/cdashig/2-1", "title": "Clinical Data Acquisition Standards Harmonization Implementation Guide for Human Clinical Trials Version 2.1", "type": "Implementation Guide"}, "rootItem": {"href": "/mdr/root/cdashig/domains/TR/fields/TRCAT", "title": "Version-agnostic anchor element for field TR.TRCAT", "type": "Root Data Element"}, "self": {"href": "/mdr/cdashig/2-1/domains/TR/fields/TRCAT", "title": "Category of Tumor/Lesion Result", "type": "Data Collection Field"}}, "completionInstructions": "Record the Tumor/Lesion Result category, if not preprinted on the CRF.", "core": "O", "definition": "A grouping of topic-variable values based on user-defined characteristics.", "implementationNotes": "Sponsor-defined controlled terminology. This would most commonly be either a heading or a preprinted category value on the CRF, and not a question to which the site would provide an answer. If a question is asked, the response would typically be a sponsor-defined codelist. If the form is laid out as a grid, then words such as \"Category\" can be included as the column header.", "label": "Category of Tumor/Lesion Result", "mappingInstructions": "Maps directly to the SDTMIG variable listed in the column with the heading SDTMIG Target.", "name": "TRCAT", "ordinal": "7", "prompt": "[Tumor/Lesion Result Category]; or NULL", "questionText": "What is the category of the [tumor/lesion] results?", "simpleDatatype": "Char"}, {"_links": {"implements": {"href": "/mdr/cdash/1-1/classes/Findings/fields/--SCAT", "title": "Subcategory", "type": "Class Variable"}, "parentDomain": {"href": "/mdr/cdashig/2-1/domains/TR", "title": "Tumor Results", "type": "CDASH Domain"}, "parentProduct": {"href": "/mdr/cdashig/2-1", "title": "Clinical Data Acquisition Standards Harmonization Implementation Guide for Human Clinical Trials Version 2.1", "type": "Implementation Guide"}, "rootItem": {"href": "/mdr/root/cdashig/domains/TR/fields/TRSCAT", "title": "Version-agnostic anchor element for field TR.TRSCAT", "type": "Root Data Element"}, "self": {"href": "/mdr/cdashig/2-1/domains/TR/fields/TRSCAT", "title": "Subcategory of Tumor/Lesion Result", "type": "Data Collection Field"}}, "completionInstructions": "Record the Tumor/Lesion Result subcategory, if not preprinted on the CRF.", "core": "O", "definition": "A subgrouping of topic-variable values based on user-defined characteristics.", "implementationNotes": "Sponsor-defined controlled terminology. This would most commonly be preprinted on the CRF or screen and prepopulated in the data management system. This is not typically a question to which the site would provide an answer. TRSCAT can only be used if there is an TRCAT and it must be a subcategorization of TRCAT.", "label": "Subcategory of Tumor/Lesion Result", "mappingInstructions": "Maps directly to the SDTMIG variable listed in the column with the heading SDTMIG Target.", "name": "TRSCAT", "ordinal": "8", "prompt": "[Tumor/Lesion Result Subcategory]; or NULL", "questionText": "What is the subcategory of the [tumor/lesion] results?", "simpleDatatype": "Char"}, {"_links": {"codelist": [{"href": "/mdr/root/ct/sdtmct/codelists/C66789", "title": "Version-agnostic anchor resource for codelist C66789", "type": "Root Value Domain"}], "implements": {"href": "/mdr/cdash/1-1/classes/Findings/fields/--STAT", "title": "Completion Status", "type": "Class Variable"}, "parentDomain": {"href": "/mdr/cdashig/2-1/domains/TR", "title": "Tumor Results", "type": "CDASH Domain"}, "parentProduct": {"href": "/mdr/cdashig/2-1", "title": "Clinical Data Acquisition Standards Harmonization Implementation Guide for Human Clinical Trials Version 2.1", "type": "Implementation Guide"}, "rootItem": {"href": "/mdr/root/cdashig/domains/TR/fields/TRSTAT", "title": "Version-agnostic anchor element for field TR.TRSTAT", "type": "Root Data Element"}, "sdtmigDatasetMappingTargets": [{"href": "/mdr/sdtmig/3-2/datasets/TR/variables/TRSTAT", "title": "Completion Status", "type": "SDTM Dataset Variable"}], "self": {"href": "/mdr/cdashig/2-1/domains/TR/fields/TRSTAT", "title": "Tumor/Lesion Result Completion Status", "type": "Data Collection Field"}}, "completionInstructions": "Indicate if the [Tumor/Lesion] evaluation was not done.", "core": "O", "definition": "The variable used to indicate that data are not available by having the site record the value as \"Not Done\".", "implementationNotes": "A Not Done check box, which indicates the test was NOT DONE. Typically, there would be one check box for each result. This field can be useful to confirm that a blank result field is meant to be blank.", "label": "Tumor/Lesion Result Completion Status", "mappingInstructions": "Maps directly to the SDTMIG variable listed in the column with the heading SDTMIG Target.", "name": "TRSTAT", "ordinal": "9", "prompt": "Not Done", "questionText": "Indicate if the [tumor/lesion] evaluation was not done.", "simpleDatatype": "Char"}, {"_links": {"implements": {"href": "/mdr/cdash/1-1/classes/Findings/fields/--REASND", "title": "Reason Not Done", "type": "Class Variable"}, "parentDomain": {"href": "/mdr/cdashig/2-1/domains/TR", "title": "Tumor Results", "type": "CDASH Domain"}, "parentProduct": {"href": "/mdr/cdashig/2-1", "title": "Clinical Data Acquisition Standards Harmonization Implementation Guide for Human Clinical Trials Version 2.1", "type": "Implementation Guide"}, "rootItem": {"href": "/mdr/root/cdashig/domains/TR/fields/TRREASND", "title": "Version-agnostic anchor element for field TR.TRREASND", "type": "Root Data Element"}, "sdtmigDatasetMappingTargets": [{"href": "/mdr/sdtmig/3-2/datasets/TR/variables/TRREASND", "title": "Reason Tumor Measurement Not Performed", "type": "SDTM Dataset Variable"}], "self": {"href": "/mdr/cdashig/2-1/domains/TR/fields/TRREASND", "title": "Reason Tumor Measurement Not Performed", "type": "Data Collection Field"}}, "completionInstructions": "Provide the reason the result was not provided.", "core": "O", "definition": "An explanation of why the data are not available.", "implementationNotes": "Sponsor-defined controlled terminology may be used. The reason the data are not available may be chosen from a sponsor-defined codelist (e.g., broken equipment, subject refused) or entered as free text. When TRREASND is used, TRSTAT should also be populated in the SDTM-based dataset.", "label": "Reason Tumor Measurement Not Performed", "mappingInstructions": "Maps directly to the SDTMIG variable listed in the column with the heading SDTMIG Target.", "name": "TRREASND", "ordinal": "10", "prompt": "Reason Not Done", "questionText": "What was the reason that the [tumor/lesion] was not [evaluated/assessed]?", "simpleDatatype": "Char"}, {"_links": {"codelist": [{"href": "/mdr/root/ct/sdtmct/codelists/C78735", "title": "Version-agnostic anchor resource for codelist C78735", "type": "Root Value Domain"}], "implements": {"href": "/mdr/cdash/1-1/classes/Findings/fields/--EVAL", "title": "Evaluator", "type": "Class Variable"}, "parentDomain": {"href": "/mdr/cdashig/2-1/domains/TR", "title": "Tumor Results", "type": "CDASH Domain"}, "parentProduct": {"href": "/mdr/cdashig/2-1", "title": "Clinical Data Acquisition Standards Harmonization Implementation Guide for Human Clinical Trials Version 2.1", "type": "Implementation Guide"}, "rootItem": {"href": "/mdr/root/cdashig/domains/TR/fields/TREVAL", "title": "Version-agnostic anchor element for field TR.TREVAL", "type": "Root Data Element"}, "sdtmigDatasetMappingTargets": [{"href": "/mdr/sdtmig/3-2/datasets/TR/variables/TREVAL", "title": "Evaluator", "type": "SDTM Dataset Variable"}], "self": {"href": "/mdr/cdashig/2-1/domains/TR/fields/TREVAL", "title": "Tumor/Lesion Result Evaluator", "type": "Data Collection Field"}}, "completionInstructions": "Select the role of the person who provided the evaluation (e.g., INVESTIGATOR, ADJUDICATION COMMITTEE, VENDOR).", "core": "O", "definition": "The role of the person who provided the information.", "implementationNotes": "Used only for results that are subjective (e.g., assigned by a person or a group). May be a preprinted or collected. Sponsors may collect the data using a subset list of controlled terminology on the CRF.", "label": "Tumor/Lesion Result Evaluator", "mappingInstructions": "Maps directly to the SDTMIG variable listed in the column with the heading SDTMIG Target.", "name": "TREVAL", "ordinal": "11", "prompt": "[Evaluator/Reporter]", "questionText": "Who provided the information? OR Who was the evaluator?", "simpleDatatype": "Char"}, {"_links": {"codelist": [{"href": "/mdr/root/ct/sdtmct/codelists/C96777", "title": "Version-agnostic anchor resource for codelist C96777", "type": "Root Value Domain"}], "implements": {"href": "/mdr/cdash/1-1/classes/Findings/fields/--EVALID", "title": "Evaluator Identifier", "type": "Class Variable"}, "parentDomain": {"href": "/mdr/cdashig/2-1/domains/TR", "title": "Tumor Results", "type": "CDASH Domain"}, "parentProduct": {"href": "/mdr/cdashig/2-1", "title": "Clinical Data Acquisition Standards Harmonization Implementation Guide for Human Clinical Trials Version 2.1", "type": "Implementation Guide"}, "rootItem": {"href": "/mdr/root/cdashig/domains/TR/fields/TREVALID", "title": "Version-agnostic anchor element for field TR.TREVALID", "type": "Root Data Element"}, "sdtmigDatasetMappingTargets": [{"href": "/mdr/sdtmig/3-2/datasets/TR/variables/TREVALID", "title": "Evaluator Identifier", "type": "SDTM Dataset Variable"}], "self": {"href": "/mdr/cdashig/2-1/domains/TR/fields/TREVALID", "title": "Tumor/Lesion Result Evaluator Identifier", "type": "Data Collection Field"}}, "completionInstructions": "Record the unique identifier assigned to the person making the evaluation.", "core": "O", "definition": "Used to distinguish multiple evaluators with the same role.", "implementationNotes": "Collect if multiple evaluators are used in the study (may be omitted if multiple evaluators are not used); values should follow controlled terminology.", "label": "Tumor/Lesion Result Evaluator Identifier", "mappingInstructions": "Maps directly to the SDTMIG variable listed in the column with the heading SDTMIG Target.", "name": "TREVALID", "ordinal": "12", "prompt": "Evaluator Identifier", "questionText": "What was the identifier of the evaluator?", "simpleDatatype": "Char"}, {"_links": {"implements": {"href": "/mdr/cdash/1-1/classes/Timing/fields/--DAT", "title": "Collection Date", "type": "Class Variable"}, "parentDomain": {"href": "/mdr/cdashig/2-1/domains/TR", "title": "Tumor Results", "type": "CDASH Domain"}, "parentProduct": {"href": "/mdr/cdashig/2-1", "title": "Clinical Data Acquisition Standards Harmonization Implementation Guide for Human Clinical Trials Version 2.1", "type": "Implementation Guide"}, "rootItem": {"href": "/mdr/root/cdashig/domains/TR/fields/TRDAT", "title": "Version-agnostic anchor element for field TR.TRDAT", "type": "Root Data Element"}, "sdtmigDatasetMappingTargets": [{"href": "/mdr/sdtmig/3-2/datasets/TR/variables/TRDTC", "title": "Date/Time of Tumor Measurement", "type": "SDTM Dataset Variable"}], "self": {"href": "/mdr/cdashig/2-1/domains/TR/fields/TRDAT", "title": "Tumor/Lesion Result Date", "type": "Data Collection Field"}}, "completionInstructions": "Record the date when the method used to assess the tumor/lesion occurred using this format (DD-MON-YYYY).", "core": "R/C", "definition": "The date of the procedure used for tumor/lesion assessment, represented in an unambiguous date format (e.g., DD-MON-YYYY).", "implementationNotes": "This is the date of the scan/image/physical exam used to evaluate the tumor/lesion. It is not the date the MRI or scan was read. This is typically not the visit date.", "label": "Tumor/Lesion Result Date", "mappingInstructions": "This does not map directly to an SDTMIG variable. For the SDTM submission dataset, concatenate all collected CDASH DATE and TIME components and populate the SDTMIG variable TRDTC in ISO 8601 format.", "name": "TRDAT", "ordinal": "13", "prompt": "Date", "questionText": "What was the date of the procedure used for [tumor/lesion] assessment?", "simpleDatatype": "Char"}, {"_links": {"implements": {"href": "/mdr/cdash/1-1/classes/Identifiers/fields/--LNKID", "title": "Link ID", "type": "Class Variable"}, "parentDomain": {"href": "/mdr/cdashig/2-1/domains/TR", "title": "Tumor Results", "type": "CDASH Domain"}, "parentProduct": {"href": "/mdr/cdashig/2-1", "title": "Clinical Data Acquisition Standards Harmonization Implementation Guide for Human Clinical Trials Version 2.1", "type": "Implementation Guide"}, "rootItem": {"href": "/mdr/root/cdashig/domains/TR/fields/TRLNKID", "title": "Version-agnostic anchor element for field TR.TRLNKID", "type": "Root Data Element"}, "sdtmigDatasetMappingTargets": [{"href": "/mdr/sdtmig/3-2/datasets/TR/variables/TRLNKID", "title": "Link ID", "type": "SDTM Dataset Variable"}], "self": {"href": "/mdr/cdashig/2-1/domains/TR/fields/TRLNKID", "title": "Tumor/Lesion Result Link ID", "type": "Data Collection Field"}}, "completionInstructions": "If collected, record the unique identifier for this tumor/lesion.", "core": "R/C", "definition": "An identifier used to link identified tumor/lesion to the assessment result.", "implementationNotes": "This variable is used to provide a unique code for each identified tumor in order to link records across related CRFs (TU and TR) when appropriate. Sponsors develop their own conventions for populating --LNKID. Typically, the lesion/tumor is assigned the --LNKID at baseline when the tumor/lesion is identified, and this --LNKID is used at other visits to collect assessments on this tumor /lesion. \n Note: This variable may be collected using one CDASH variable name (e.g., TULNKID) and populated into TRLNKID when the submisson datasets are created.", "label": "Tumor/Lesion Result Link ID", "mappingInstructions": "Maps directly to the SDTMIG variable listed in the column with the heading SDTMIG Target.", "name": "TRLNKID", "ordinal": "14", "prompt": "[Tumor/ Lesion] ID", "questionText": "What was the [tumor/lesion] Identifier?", "simpleDatatype": "Char"}, {"_links": {"codelist": [{"href": "/mdr/root/ct/sdtmct/codelists/C96778", "title": "Version-agnostic anchor resource for codelist C96778", "type": "Root Value Domain"}], "implements": {"href": "/mdr/cdash/1-1/classes/Findings/fields/--TEST", "title": "Name of Measurement, Test or Examination", "type": "Class Variable"}, "parentDomain": {"href": "/mdr/cdashig/2-1/domains/TR", "title": "Tumor Results", "type": "CDASH Domain"}, "parentProduct": {"href": "/mdr/cdashig/2-1", "title": "Clinical Data Acquisition Standards Harmonization Implementation Guide for Human Clinical Trials Version 2.1", "type": "Implementation Guide"}, "rootItem": {"href": "/mdr/root/cdashig/domains/TR/fields/TRTEST", "title": "Version-agnostic anchor element for field TR.TRTEST", "type": "Root Data Element"}, "sdtmigDatasetMappingTargets": [{"href": "/mdr/sdtmig/3-2/datasets/TR/variables/TRTESTCD", "title": "Tumor Assessment Short Name", "type": "SDTM Dataset Variable"}, {"href": "/mdr/sdtmig/3-2/datasets/TR/variables/TRTEST", "title": "Tumor Assessment Test Name", "type": "SDTM Dataset Variable"}], "self": {"href": "/mdr/cdashig/2-1/domains/TR/fields/TRTEST", "title": "Tumor/Lesion Assessment Test Name", "type": "Data Collection Field"}}, "completionInstructions": "Record the name of the tumor lesion assessment, if not preprinted on the CRF. If collected on the CRF, the sponsor may provide additional instructions to ensure the data is entered as intended.", "core": "HR", "definition": "Descriptive name of the measurement or finding.", "implementationNotes": "Required to identify which test the result is for. It is recommended that the test names be preprinted on the CRF rather than collected in a field that requires the site to enter text. If the form is laid out as a grid, then words such as \"Test\" can be included as the column header.", "label": "Tumor/Lesion Assessment Test Name", "mappingInstructions": "Maps directly to the SDTMIG variable listed in the column with the heading SDTMIG Target. The SDTMIG variable TRTESTCD may be determined from the value collected in TRTEST. The SDTMIG variables TRTESTCD and TRTEST are required in the SDTM submission datasets. Use appropriate CDISC Controlled Terminology for the test and test code.", "name": "TRTEST", "ordinal": "15", "prompt": "[Tumor/Lesion] (Assessment) Test Name]", "questionText": "What was the [tumor/ lesion] (assessment) test name?", "simpleDatatype": "Char"}, {"_links": {"implements": {"href": "/mdr/cdash/1-1/classes/Findings/fields/--ORRES", "title": "Result or Finding in Original Units", "type": "Class Variable"}, "parentDomain": {"href": "/mdr/cdashig/2-1/domains/TR", "title": "Tumor Results", "type": "CDASH Domain"}, "parentProduct": {"href": "/mdr/cdashig/2-1", "title": "Clinical Data Acquisition Standards Harmonization Implementation Guide for Human Clinical Trials Version 2.1", "type": "Implementation Guide"}, "rootItem": {"href": "/mdr/root/cdashig/domains/TR/fields/TRORRES", "title": "Version-agnostic anchor element for field TR.TRORRES", "type": "Root Data Element"}, "sdtmigDatasetMappingTargets": [{"href": "/mdr/sdtmig/3-2/datasets/TR/variables/TRTEST", "title": "Tumor Assessment Test Name", "type": "SDTM Dataset Variable"}, {"href": "/mdr/sdtmig/3-2/datasets/TR/variables/TRORRES", "title": "Result or Finding in Original Units", "type": "SDTM Dataset Variable"}, {"href": "/mdr/sdtmig/3-2/datasets/TR/variables/TRTESTCD", "title": "Tumor Assessment Short Name", "type": "SDTM Dataset Variable"}], "self": {"href": "/mdr/cdashig/2-1/domains/TR/fields/TRORRES", "title": "TR Result or Finding in Original Units", "type": "Data Collection Field"}}, "completionInstructions": "Record the Tumor/Lesion Assessment result.", "core": "HR", "definition": "Result of the tumor/lesion assessment.", "implementationNotes": "Result of the tumor/lesion assessment. Both quantitative and qualitatve results may be recorded here.", "label": "TR Result or Finding in Original Units", "mappingInstructions": "Maps directly to the SDTMIG variable listed in the column with the heading SDTMIG Target. In addition to the SDTMIG variable TRORRES, create TRTESTCD from the CDASH variable name and determine the value of TRTEST from TRTESTCD. The CDASH prompt may also contain the TRTEST. Use appropriate CDISC Controlled Terminology for the test and test code.", "name": "TRORRES", "ordinal": "16", "prompt": "(Result)", "questionText": "What is the result for the [tumor/lesion assessment]?", "simpleDatatype": "Char"}, {"_links": {"codelist": [{"href": "/mdr/root/ct/sdtmct/codelists/C71620", "title": "Version-agnostic anchor resource for codelist C71620", "type": "Root Value Domain"}], "implements": {"href": "/mdr/cdash/1-1/classes/Findings/fields/--ORRESU", "title": "Original Units", "type": "Class Variable"}, "parentDomain": {"href": "/mdr/cdashig/2-1/domains/TR", "title": "Tumor Results", "type": "CDASH Domain"}, "parentProduct": {"href": "/mdr/cdashig/2-1", "title": "Clinical Data Acquisition Standards Harmonization Implementation Guide for Human Clinical Trials Version 2.1", "type": "Implementation Guide"}, "rootItem": {"href": "/mdr/root/cdashig/domains/TR/fields/TRORRESU", "title": "Version-agnostic anchor element for field TR.TRORRESU", "type": "Root Data Element"}, "sdtmigDatasetMappingTargets": [{"href": "/mdr/sdtmig/3-2/datasets/TR/variables/TRORRESU", "title": "Original Units", "type": "SDTM Dataset Variable"}], "self": {"href": "/mdr/cdashig/2-1/domains/TR/fields/TRORRESU", "title": "TR Original Units", "type": "Data Collection Field"}}, "completionInstructions": "Record or select the original units in which these data were collected, if not preprinted on CRF.", "core": "R/C", "definition": "The unit of the result as originally received or collected.", "implementationNotes": "Usually the unit of the test is preprinted on the CRF.", "label": "TR Original Units", "mappingInstructions": "Maps directly to the SDTMIG variable listed in the column with the heading SDTMIG Target.", "name": "TRORRESU", "ordinal": "17", "prompt": "Unit", "questionText": "What was the unit of the [result/measurement]?", "simpleDatatype": "Char"}, {"_links": {"implements": {"href": "/mdr/cdash/1-1/classes/Findings/fields/--NAM", "title": "Laboratory/Vendor Name", "type": "Class Variable"}, "parentDomain": {"href": "/mdr/cdashig/2-1/domains/TR", "title": "Tumor Results", "type": "CDASH Domain"}, "parentProduct": {"href": "/mdr/cdashig/2-1", "title": "Clinical Data Acquisition Standards Harmonization Implementation Guide for Human Clinical Trials Version 2.1", "type": "Implementation Guide"}, "rootItem": {"href": "/mdr/root/cdashig/domains/TR/fields/TRNAM", "title": "Version-agnostic anchor element for field TR.TRNAM", "type": "Root Data Element"}, "sdtmigDatasetMappingTargets": [{"href": "/mdr/sdtmig/3-2/datasets/TR/variables/TRNAM", "title": "Vendor Name", "type": "SDTM Dataset Variable"}], "self": {"href": "/mdr/cdashig/2-1/domains/TR/fields/TRNAM", "title": "Tumor/Lesion Result Vendor Name", "type": "Data Collection Field"}}, "completionInstructions": "Record the name of the vendor providing the evaluation.", "core": "O", "definition": "The name or identifier of the vendor (e.g., laboratory) that provided the test results.", "implementationNotes": "Recommended to collect on the CRF if vendor names was not collected at the site/study level or if multiple vendors are used by a site.", "label": "Tumor/Lesion Result Vendor Name", "mappingInstructions": "Maps directly to the SDTMIG variable listed in the column with the heading SDTMIG Target.", "name": "TRNAM", "ordinal": "18", "prompt": "Vendor Name", "questionText": "What was the name of the vendor used?", "simpleDatatype": "Char"}], "label": "Tumor Results", "name": "TR", "ordinal": "29"}
