{"_links": {"parentClass": {"href": "/mdr/cdashig/2-1/classes/Findings", "title": "Findings", "type": "Class"}, "parentProduct": {"href": "/mdr/cdashig/2-1", "title": "Clinical Data Acquisition Standards Harmonization Implementation Guide for Human Clinical Trials Version 2.1", "type": "Implementation Guide"}, "priorVersion": {"href": "/mdr/cdashig/2-0/domains/VS", "title": "Vital Signs", "type": "CDASH Domain"}, "scenarios": [{"href": "/mdr/cdashig/2-1/scenarios/VS.HorizontalGeneric", "title": "VS - Implementation Options: HorizontalGeneric", "type": "CDASH Scenario"}], "self": {"href": "/mdr/cdashig/2-1/domains/VS", "title": "Vital Signs", "type": "CDASH Domain"}}, "fields": [{"_links": {"implements": {"href": "/mdr/cdash/1-1/classes/Identifiers/fields/STUDYID", "title": "Study Identifier", "type": "Class Variable"}, "parentDomain": {"href": "/mdr/cdashig/2-1/domains/VS", "title": "Vital Signs", "type": "CDASH Domain"}, "parentProduct": {"href": "/mdr/cdashig/2-1", "title": "Clinical Data Acquisition Standards Harmonization Implementation Guide for Human Clinical Trials Version 2.1", "type": "Implementation Guide"}, "priorVersion": {"href": "/mdr/cdashig/2-0/domains/VS/fields/STUDYID", "title": "Study Identifier", "type": "Data Collection Field"}, "rootItem": {"href": "/mdr/root/cdashig/domains/VS/fields/STUDYID", "title": "Version-agnostic anchor element for field VS.STUDYID", "type": "Root Data Element"}, "sdtmigDatasetMappingTargets": [{"href": "/mdr/sdtmig/3-2/datasets/VS/variables/STUDYID", "title": "Study Identifier", "type": "SDTM Dataset Variable"}], "self": {"href": "/mdr/cdashig/2-1/domains/VS/fields/STUDYID", "title": "Study Identifier", "type": "Data Collection Field"}}, "core": "HR", "definition": "A unique identifier for a study.", "implementationNotes": "While this field is not typically captured on a CRF, it should be displayed clearly on the CRF and/or the EDC system. This field can be included into the database or populated during SDTM-based dataset creation before submission.", "label": "Study Identifier", "mappingInstructions": "Maps directly to the SDTMIG variable listed in the column with the heading SDTMIG Target.", "name": "STUDYID", "ordinal": "1", "prompt": "[Protocol/Study]", "questionText": "What is the study identifier?", "simpleDatatype": "Char"}, {"_links": {"implements": {"href": "/mdr/cdash/1-1/classes/Identifiers/fields/SITEID", "title": "Study Site Identifier", "type": "Class Variable"}, "parentDomain": {"href": "/mdr/cdashig/2-1/domains/VS", "title": "Vital Signs", "type": "CDASH Domain"}, "parentProduct": {"href": "/mdr/cdashig/2-1", "title": "Clinical Data Acquisition Standards Harmonization Implementation Guide for Human Clinical Trials Version 2.1", "type": "Implementation Guide"}, "priorVersion": {"href": "/mdr/cdashig/2-0/domains/VS/fields/SITEID", "title": "Study Site Identifier", "type": "Data Collection Field"}, "rootItem": {"href": "/mdr/root/cdashig/domains/VS/fields/SITEID", "title": "Version-agnostic anchor element for field VS.SITEID", "type": "Root Data Element"}, "sdtmigDatasetMappingTargets": [{"href": "/mdr/sdtmig/3-2/datasets/DM/variables/SITEID", "title": "Study Site Identifier", "type": "SDTM Dataset Variable"}], "self": {"href": "/mdr/cdashig/2-1/domains/VS/fields/SITEID", "title": "Study Site Identifier", "type": "Data Collection Field"}}, "core": "HR", "definition": "A unique identifier for a site within a study.", "implementationNotes": "Paper: This is typically preprinted in the header of each CRF page for single site studies. For studies with multiple sites, this field may be left blank so that the number can be recorded by the site, or it may be preprinted on the CRFs that are shipped to each site. EDC: This should be prepopulated.", "label": "Study Site Identifier", "mappingInstructions": "Maps directly to the SDTMIG variable listed in the column with the heading SDTMIG Target.", "name": "SITEID", "ordinal": "2", "prompt": "Site (Identifier)", "questionText": "What is the site identifier?", "simpleDatatype": "Char"}, {"_links": {"implements": {"href": "/mdr/cdash/1-1/classes/Identifiers/fields/SUBJID", "title": "Subject Identifier for the Study", "type": "Class Variable"}, "parentDomain": {"href": "/mdr/cdashig/2-1/domains/VS", "title": "Vital Signs", "type": "CDASH Domain"}, "parentProduct": {"href": "/mdr/cdashig/2-1", "title": "Clinical Data Acquisition Standards Harmonization Implementation Guide for Human Clinical Trials Version 2.1", "type": "Implementation Guide"}, "priorVersion": {"href": "/mdr/cdashig/2-0/domains/VS/fields/SUBJID", "title": "Subject Identifier for the Study", "type": "Data Collection Field"}, "rootItem": {"href": "/mdr/root/cdashig/domains/VS/fields/SUBJID", "title": "Version-agnostic anchor element for field VS.SUBJID", "type": "Root Data Element"}, "sdtmigDatasetMappingTargets": [{"href": "/mdr/sdtmig/3-2/datasets/DM/variables/SUBJID", "title": "Subject Identifier for the Study", "type": "SDTM Dataset Variable"}], "self": {"href": "/mdr/cdashig/2-1/domains/VS/fields/SUBJID", "title": "Subject Identifier for the Study", "type": "Data Collection Field"}}, "completionInstructions": "Record the identifier for the subject.", "core": "HR", "definition": "A unique subject identifier within a site and a study.", "implementationNotes": "Paper: This is typically recorded in the header of each CRF page. EDC: The subject identifiers may be provided to the site using a prepopulated list in the system. This CDASH variable is typically collected in all CDASH domains. However, this CDASH variable is populated only in the SDTMIG DM domain. For more information, refer to the SDTM.", "label": "Subject Identifier for the Study", "mappingInstructions": "Maps directly to the SDTMIG variable listed in the column with the heading SDTMIG Target.", "name": "SUBJID", "ordinal": "3", "prompt": "Subject", "questionText": "What is the subject identifier?", "simpleDatatype": "Char"}, {"_links": {"implements": {"href": "/mdr/cdash/1-1/classes/Timing/fields/VISIT", "title": "Visit Name", "type": "Class Variable"}, "parentDomain": {"href": "/mdr/cdashig/2-1/domains/VS", "title": "Vital Signs", "type": "CDASH Domain"}, "parentProduct": {"href": "/mdr/cdashig/2-1", "title": "Clinical Data Acquisition Standards Harmonization Implementation Guide for Human Clinical Trials Version 2.1", "type": "Implementation Guide"}, "priorVersion": {"href": "/mdr/cdashig/2-0/domains/VS/fields/VISIT", "title": "Visit Name", "type": "Data Collection Field"}, "rootItem": {"href": "/mdr/root/cdashig/domains/VS/fields/VISIT", "title": "Version-agnostic anchor element for field VS.VISIT", "type": "Root Data Element"}, "sdtmigDatasetMappingTargets": [{"href": "/mdr/sdtmig/3-2/datasets/VS/variables/VISIT", "title": "Visit Name", "type": "SDTM Dataset Variable"}], "self": {"href": "/mdr/cdashig/2-1/domains/VS/fields/VISIT", "title": "Visit Name", "type": "Data Collection Field"}}, "core": "R/C", "definition": "The name of a clinical encounter that encompasses planned and unplanned trial interventions, procedures, and assessments that may be performed on a subject.", "implementationNotes": "This CDASH variable is typically collected in all CDASH domains. However, this CDASH variable is represented only in the SDTMIG DM domain. For more information, refer to SDTM Table 2.2.4.", "label": "Visit Name", "mappingInstructions": "Maps directly to the SDTMIG variable listed in the column with the heading SDTMIG Target.", "name": "VISIT", "ordinal": "4", "prompt": "[Visit]", "questionText": "What is the visit name?", "simpleDatatype": "Char"}, {"_links": {"implements": {"href": "/mdr/cdash/1-1/classes/Timing/fields/VISDAT", "title": "Visit Date", "type": "Class Variable"}, "parentDomain": {"href": "/mdr/cdashig/2-1/domains/VS", "title": "Vital Signs", "type": "CDASH Domain"}, "parentProduct": {"href": "/mdr/cdashig/2-1", "title": "Clinical Data Acquisition Standards Harmonization Implementation Guide for Human Clinical Trials Version 2.1", "type": "Implementation Guide"}, "priorVersion": {"href": "/mdr/cdashig/2-0/domains/VS/fields/VISDAT", "title": "Visit Date", "type": "Data Collection Field"}, "rootItem": {"href": "/mdr/root/cdashig/domains/VS/fields/VISDAT", "title": "Version-agnostic anchor element for field VS.VISDAT", "type": "Root Data Element"}, "self": {"href": "/mdr/cdashig/2-1/domains/VS/fields/VISDAT", "title": "Visit Date", "type": "Data Collection Field"}}, "completionInstructions": "Record the [date/start date] of the visit using DD-MON-YYYY format.", "core": "R/C", "definition": "Date the clinical encounter occurred (or started).", "implementationNotes": "The date the VS measurements were collected can be determined from the Visit Date variable (VISDAT) and applying that date to all of the observations at that visit, or the collection date can be included on the VS CRF using the Vital Signs Date (VSDAT) field.", "label": "Visit Date", "mappingInstructions": "This field is not an SDTM variable. The date of a measurement, test, observation can be determined from the date/time of visit (VISDAT/VISTIM) and then concatenating the CDASH VISDAT/VISTIM components and populating the SDTMIG variable VSDTC in ISO 8601 format.", "name": "VISDAT", "ordinal": "5", "prompt": "(Visit) Date", "questionText": "What [is/was] the date of the visit?", "simpleDatatype": "Char"}, {"_links": {"codelist": [{"href": "/mdr/root/ct/sdtmct/codelists/C66742", "title": "Version-agnostic anchor resource for codelist C66742", "type": "Root Value Domain"}], "implements": {"href": "/mdr/cdash/1-1/classes/Findings/fields/--PERF", "title": "[Observation] Performed", "type": "Class Variable"}, "parentDomain": {"href": "/mdr/cdashig/2-1/domains/VS", "title": "Vital Signs", "type": "CDASH Domain"}, "parentProduct": {"href": "/mdr/cdashig/2-1", "title": "Clinical Data Acquisition Standards Harmonization Implementation Guide for Human Clinical Trials Version 2.1", "type": "Implementation Guide"}, "priorVersion": {"href": "/mdr/cdashig/2-0/domains/VS/fields/VSPERF", "title": "Vital Signs Performed", "type": "Data Collection Field"}, "rootItem": {"href": "/mdr/root/cdashig/domains/VS/fields/VSPERF", "title": "Version-agnostic anchor element for field VS.VSPERF", "type": "Root Data Element"}, "sdtmigDatasetMappingTargets": [{"href": "/mdr/sdtmig/3-2/datasets/VS/variables/VSSTAT", "title": "Completion Status", "type": "SDTM Dataset Variable"}], "self": {"href": "/mdr/cdashig/2-1/domains/VS/fields/VSPERF", "title": "Vital Signs Performed", "type": "Data Collection Field"}}, "completionInstructions": "Indicate if the vital signs were collected. If yes, include the appropriate details where indicated on the CRF.", "core": "O", "definition": "An indication whether or not a planned vital signs measurement, series of vital signs measurements, tests, or observations was performed.", "implementationNotes": "This general prompt question is used as a data management tool to verify that missing results are confirmed missing.", "label": "Vital Signs Performed", "mappingInstructions": "This does not map directly to an SDTMIG variable. May be used to derive a value into the SDTM variable VSSTAT. If VSPERF=\"N\", the value of VSSTAT will be \"NOT DONE\". If VSPERF=\"Y\", VSSTAT should be null. A combination of SDTMIG variables (e.g., VSCAT and VSSCAT, VSTPT) is used to indicate that multiple tests were not done. In this situation, the SDTMIG variable VSTESTCD would be populated as VSALL and an appropriate test name VSTEST provided. See SDTMIG v3.2 Section 4.1.5.1.2.", "name": "VSPERF", "ordinal": "6", "prompt": "Vital Signs Performed", "questionText": "Were vital signs performed?", "simpleDatatype": "Char"}, {"_links": {"implements": {"href": "/mdr/cdash/1-1/classes/Timing/fields/--DAT", "title": "Collection Date", "type": "Class Variable"}, "parentDomain": {"href": "/mdr/cdashig/2-1/domains/VS", "title": "Vital Signs", "type": "CDASH Domain"}, "parentProduct": {"href": "/mdr/cdashig/2-1", "title": "Clinical Data Acquisition Standards Harmonization Implementation Guide for Human Clinical Trials Version 2.1", "type": "Implementation Guide"}, "priorVersion": {"href": "/mdr/cdashig/2-0/domains/VS/fields/VSDAT", "title": "Vital Signs Date", "type": "Data Collection Field"}, "rootItem": {"href": "/mdr/root/cdashig/domains/VS/fields/VSDAT", "title": "Version-agnostic anchor element for field VS.VSDAT", "type": "Root Data Element"}, "sdtmigDatasetMappingTargets": [{"href": "/mdr/sdtmig/3-2/datasets/VS/variables/VSDTC", "title": "Date/Time of Measurements", "type": "SDTM Dataset Variable"}], "self": {"href": "/mdr/cdashig/2-1/domains/VS/fields/VSDAT", "title": "Vital Signs Date", "type": "Data Collection Field"}}, "completionInstructions": "Record date of measurements using this format (DD-MON-YYYY).", "core": "R/C", "definition": "The date of the vital signs measurement, represented in an unambiguous date format (e.g., DD-MON-YYYY).", "implementationNotes": "The date of measurement can be determined from a collected date of visit (VISDAT) and in such cases a separate measurement date field is not required.", "label": "Vital Signs Date", "mappingInstructions": "This does not map directly to an SDTMIG variable. For the SDTM submission dataset, concatenate all collected CDASH DATE and TIME components and populate the SDTMIG variable VSDTC in ISO 8601 format.", "name": "VSDAT", "ordinal": "7", "prompt": "Date", "questionText": "What was the date of the vital signs measurement?", "simpleDatatype": "Char"}, {"_links": {"implements": {"href": "/mdr/cdash/1-1/classes/Timing/fields/--TIM", "title": "Collection Time", "type": "Class Variable"}, "parentDomain": {"href": "/mdr/cdashig/2-1/domains/VS", "title": "Vital Signs", "type": "CDASH Domain"}, "parentProduct": {"href": "/mdr/cdashig/2-1", "title": "Clinical Data Acquisition Standards Harmonization Implementation Guide for Human Clinical Trials Version 2.1", "type": "Implementation Guide"}, "priorVersion": {"href": "/mdr/cdashig/2-0/domains/VS/fields/VSTIM", "title": "Vital Signs Time", "type": "Data Collection Field"}, "rootItem": {"href": "/mdr/root/cdashig/domains/VS/fields/VSTIM", "title": "Version-agnostic anchor element for field VS.VSTIM", "type": "Root Data Element"}, "sdtmigDatasetMappingTargets": [{"href": "/mdr/sdtmig/3-2/datasets/VS/variables/VSDTC", "title": "Date/Time of Measurements", "type": "SDTM Dataset Variable"}], "self": {"href": "/mdr/cdashig/2-1/domains/VS/fields/VSTIM", "title": "Vital Signs Time", "type": "Data Collection Field"}}, "completionInstructions": "Record time of measurement (as complete as possible).", "core": "R/C", "definition": "The time of measurement, represented in an unambiguous time format (e.g., hh:mm:ss).", "implementationNotes": "Collect time if it is relevant for the analysis.", "label": "Vital Signs Time", "mappingInstructions": "This does not map directly to an SDTMIG variable. For the SDTM submission dataset, concatenate all collected CDASH DATE and TIME components and populate the SDTMIG variable VSDTC in ISO 8601 format.", "name": "VSTIM", "ordinal": "8", "prompt": "Time", "questionText": "What was the time of the vital signs measurement?", "simpleDatatype": "Char"}, {"_links": {"implements": {"href": "/mdr/cdash/1-1/classes/Identifiers/fields/--SPID", "title": "Sponsor-Defined Identifier", "type": "Class Variable"}, "parentDomain": {"href": "/mdr/cdashig/2-1/domains/VS", "title": "Vital Signs", "type": "CDASH Domain"}, "parentProduct": {"href": "/mdr/cdashig/2-1", "title": "Clinical Data Acquisition Standards Harmonization Implementation Guide for Human Clinical Trials Version 2.1", "type": "Implementation Guide"}, "priorVersion": {"href": "/mdr/cdashig/2-0/domains/VS/fields/VSSPID", "title": "Vital Signs Sponsor-Defined Identifier", "type": "Data Collection Field"}, "rootItem": {"href": "/mdr/root/cdashig/domains/VS/fields/VSSPID", "title": "Version-agnostic anchor element for field VS.VSSPID", "type": "Root Data Element"}, "sdtmigDatasetMappingTargets": [{"href": "/mdr/sdtmig/3-2/datasets/VS/variables/VSSPID", "title": "Sponsor-Defined Identifier", "type": "SDTM Dataset Variable"}], "self": {"href": "/mdr/cdashig/2-1/domains/VS/fields/VSSPID", "title": "Vital Signs Sponsor-Defined Identifier", "type": "Data Collection Field"}}, "completionInstructions": "If collected on the CRF, sponsor may insert instructions to ensure each record has a unique identifier.", "core": "O", "definition": "A sponsor-defined identifier. In CDASH, This is typically used for preprinted or auto-generated numbers on the CRF, or any other type of identifier that does not already have a defined CDASH identifier field.", "implementationNotes": "Because SPID is a sponsor-defined identifier, conformance to Question Text or Item Prompt is not applicable. Typically used as an identifier in a data query to communicate clearly to the site the specific record in question or to reconcile data. May be used to record preprinted number (e.g. line number, record number) on the CRF. This field may be populated by the sponsor's data collection system.", "label": "Vital Signs Sponsor-Defined Identifier", "mappingInstructions": "Maps directly to the SDTMIG variable listed in the column with the heading SDTMIG Target. May be used to create RELREC to link this record with a record in another domain.", "name": "VSSPID", "ordinal": "9", "prompt": "[Sponsor defined]", "questionText": "[Sponsor-defined question]", "simpleDatatype": "Char"}, {"_links": {"implements": {"href": "/mdr/cdash/1-1/classes/Timing/fields/--TPT", "title": "Planned Time Point Name", "type": "Class Variable"}, "parentDomain": {"href": "/mdr/cdashig/2-1/domains/VS", "title": "Vital Signs", "type": "CDASH Domain"}, "parentProduct": {"href": "/mdr/cdashig/2-1", "title": "Clinical Data Acquisition Standards Harmonization Implementation Guide for Human Clinical Trials Version 2.1", "type": "Implementation Guide"}, "priorVersion": {"href": "/mdr/cdashig/2-0/domains/VS/fields/VSTPT", "title": "Vital Signs Planned Time Point Name", "type": "Data Collection Field"}, "rootItem": {"href": "/mdr/root/cdashig/domains/VS/fields/VSTPT", "title": "Version-agnostic anchor element for field VS.VSTPT", "type": "Root Data Element"}, "sdtmigDatasetMappingTargets": [{"href": "/mdr/sdtmig/3-2/datasets/VS/variables/VSTPT", "title": "Planned Time Point Name", "type": "SDTM Dataset Variable"}], "self": {"href": "/mdr/cdashig/2-1/domains/VS/fields/VSTPT", "title": "Vital Signs Planned Time Point Name", "type": "Data Collection Field"}}, "completionInstructions": "Record the planned time point labels for vital signs, if not preprinted on the CRF.", "core": "R/C", "definition": "A text description of planned time point when measurements should be taken as defined in the protocol.", "implementationNotes": "Planned time points are needed to differentiate multiple sequential assessments. It is recommended that time points should be preprinted on the CRF rather than collected in a field that requires the site to enter text. If the form is laid out as a grid, then words such as \"Planned Time Point\" can be included as the column header.", "label": "Vital Signs Planned Time Point Name", "mappingInstructions": "Maps directly to the SDTMIG variable listed in the column with the heading SDTMIG Target. See SDTMIG for additional information on representing time points. The SDTMIG time point anchors VSTPTREF (text description) and VSRFTDTC (date/time) may be needed, as well as SDTMIG variables VSTPTNUM, VSELTM.", "name": "VSTPT", "ordinal": "10", "prompt": "[Planned Time Point Name]", "questionText": "What is the planned time point for this vital signs measurement?", "simpleDatatype": "Char"}, {"_links": {"implements": {"href": "/mdr/cdash/1-1/classes/Findings/fields/--CAT", "title": "Category", "type": "Class Variable"}, "parentDomain": {"href": "/mdr/cdashig/2-1/domains/VS", "title": "Vital Signs", "type": "CDASH Domain"}, "parentProduct": {"href": "/mdr/cdashig/2-1", "title": "Clinical Data Acquisition Standards Harmonization Implementation Guide for Human Clinical Trials Version 2.1", "type": "Implementation Guide"}, "priorVersion": {"href": "/mdr/cdashig/2-0/domains/VS/fields/VSCAT", "title": "Category for Vital Signs", "type": "Data Collection Field"}, "rootItem": {"href": "/mdr/root/cdashig/domains/VS/fields/VSCAT", "title": "Version-agnostic anchor element for field VS.VSCAT", "type": "Root Data Element"}, "sdtmigDatasetMappingTargets": [{"href": "/mdr/sdtmig/3-2/datasets/VS/variables/VSCAT", "title": "Category for Vital Signs", "type": "SDTM Dataset Variable"}], "self": {"href": "/mdr/cdashig/2-1/domains/VS/fields/VSCAT", "title": "Category for Vital Signs", "type": "Data Collection Field"}}, "completionInstructions": "Record the vital signs category, if not preprinted on the CRF.", "core": "O", "definition": "A grouping of topic-variable values based on user-defined characteristics.", "implementationNotes": "Sponsor-defined controlled terminology. This would most commonly be either a heading, or a preprinted category value on the CRF and not a question to which the site would provide an answer. If a question is asked, the response would typically be a sponsor-defined codelist. If the form is laid out as a grid, then words such as \"Category\" can be included as the column header.", "label": "Category for Vital Signs", "mappingInstructions": "Maps directly to the SDTMIG variable listed in the column with the heading SDTMIG Target.", "name": "VSCAT", "ordinal": "11", "prompt": "[Vital Signs Category]; NULL", "questionText": "What was the category of the vital signs?", "simpleDatatype": "Char"}, {"_links": {"implements": {"href": "/mdr/cdash/1-1/classes/Findings/fields/--SCAT", "title": "Subcategory", "type": "Class Variable"}, "parentDomain": {"href": "/mdr/cdashig/2-1/domains/VS", "title": "Vital Signs", "type": "CDASH Domain"}, "parentProduct": {"href": "/mdr/cdashig/2-1", "title": "Clinical Data Acquisition Standards Harmonization Implementation Guide for Human Clinical Trials Version 2.1", "type": "Implementation Guide"}, "priorVersion": {"href": "/mdr/cdashig/2-0/domains/VS/fields/VSSCAT", "title": "Subcategory for Vital Signs", "type": "Data Collection Field"}, "rootItem": {"href": "/mdr/root/cdashig/domains/VS/fields/VSSCAT", "title": "Version-agnostic anchor element for field VS.VSSCAT", "type": "Root Data Element"}, "sdtmigDatasetMappingTargets": [{"href": "/mdr/sdtmig/3-2/datasets/VS/variables/VSSCAT", "title": "Subcategory for Vital Signs", "type": "SDTM Dataset Variable"}], "self": {"href": "/mdr/cdashig/2-1/domains/VS/fields/VSSCAT", "title": "Subcategory for Vital Signs", "type": "Data Collection Field"}}, "completionInstructions": "Record the vital signs subcategory, if not preprinted on the CRF.", "core": "O", "definition": "A sub-division of the VSCAT values based on user-defined characteristics.", "implementationNotes": "Sponsor-defined controlled terminology. This would most commonly be either a heading, or a preprinted category value on the CRF and not a question to which the site would provide an answer. If a question is asked, the response would typically be a sponsor-defined codelist. If the form is laid out as a grid, then words such as \"Subcategory\" can be included as the column header. VSSCAT can only be used if there is a VSCAT and it must be a subcategorization of VSCAT.", "label": "Subcategory for Vital Signs", "mappingInstructions": "Maps directly to the SDTMIG variable listed in the column with the heading SDTMIG Target.", "name": "VSSCAT", "ordinal": "12", "prompt": "[Vital Signs Subcategory]; NULL", "questionText": "What was the subcategory of the vital signs?", "simpleDatatype": "Char"}, {"_links": {"implements": {"href": "/mdr/cdash/1-1/classes/Findings/fields/--REPNUM", "title": "Repetition Number", "type": "Class Variable"}, "parentDomain": {"href": "/mdr/cdashig/2-1/domains/VS", "title": "Vital Signs", "type": "CDASH Domain"}, "parentProduct": {"href": "/mdr/cdashig/2-1", "title": "Clinical Data Acquisition Standards Harmonization Implementation Guide for Human Clinical Trials Version 2.1", "type": "Implementation Guide"}, "priorVersion": {"href": "/mdr/cdashig/2-0/domains/VS/fields/VSREPNUM", "title": "Vital Signs Repetition Number", "type": "Data Collection Field"}, "rootItem": {"href": "/mdr/root/cdashig/domains/VS/fields/VSREPNUM", "title": "Version-agnostic anchor element for field VS.VSREPNUM", "type": "Root Data Element"}, "sdtmigDatasetMappingTargets": [{"href": "/mdr/sdtmig/3-2/datasets/SUPPQUAL/variables/QVAL", "title": "Data Value", "type": "SDTM Dataset Variable"}], "self": {"href": "/mdr/cdashig/2-1/domains/VS/fields/VSREPNUM", "title": "Vital Signs Repetition Number", "type": "Data Collection Field"}}, "completionInstructions": "Record the repetition number of the measurement within the time point.", "core": "O", "definition": "The instance number of a test that is repeated within a given timeframe for the same test. The level of granularity can vary (e.g., within a time point, within a visit).", "implementationNotes": "The repetition number of the test/measurement within the time point may be preprinted on the CRF (e.g., multiple measurements of blood pressure, multiple analyses of a sample).", "label": "Vital Signs Repetition Number", "mappingInstructions": "This does not map directly to an SDTMIG variable. This information could be submitted in a SUPPVS dataset as the value of SUPPVS.QVAL where SUPPVS.QNAM= \"VSREPNUM\" and SUPPVS.QLABEL= \"Repetition Number within time point\". Refer to the current SDTM and SDTMIG for instructions on placement of non-standard variables in SDTM domains.", "name": "VSREPNUM", "ordinal": "13", "prompt": "Repetition Number", "questionText": "What was the repetition number within the time point for this measurement?", "simpleDatatype": "Char"}, {"_links": {"codelist": [{"href": "/mdr/root/ct/sdtmct/codelists/C67153", "title": "Version-agnostic anchor resource for codelist C67153", "type": "Root Value Domain"}], "implements": {"href": "/mdr/cdash/1-1/classes/Findings/fields/--TEST", "title": "Name of Measurement, Test or Examination", "type": "Class Variable"}, "parentDomain": {"href": "/mdr/cdashig/2-1/domains/VS", "title": "Vital Signs", "type": "CDASH Domain"}, "parentProduct": {"href": "/mdr/cdashig/2-1", "title": "Clinical Data Acquisition Standards Harmonization Implementation Guide for Human Clinical Trials Version 2.1", "type": "Implementation Guide"}, "priorVersion": {"href": "/mdr/cdashig/2-0/domains/VS/fields/VSTEST", "title": "Vital Signs Test Name", "type": "Data Collection Field"}, "rootItem": {"href": "/mdr/root/cdashig/domains/VS/fields/VSTEST", "title": "Version-agnostic anchor element for field VS.VSTEST", "type": "Root Data Element"}, "sdtmigDatasetMappingTargets": [{"href": "/mdr/sdtmig/3-2/datasets/VS/variables/VSTEST", "title": "Vital Signs Test Name", "type": "SDTM Dataset Variable"}, {"href": "/mdr/sdtmig/3-2/datasets/VS/variables/VSTESTCD", "title": "Vital Signs Test Short Name", "type": "SDTM Dataset Variable"}], "self": {"href": "/mdr/cdashig/2-1/domains/VS/fields/VSTEST", "title": "Vital Signs Test Name", "type": "Data Collection Field"}}, "completionInstructions": "Record the name of the vital sign test if not preprinted on the CRF. If collected on the CRF, the sponsor may provide additional instructions to ensure the data is entered as intended.", "core": "HR", "definition": "Descriptive name of the test or examination used to obtain the measurement or finding.", "implementationNotes": "Required to identify which test the result is for. It is recommended that the test names be preprinted on the CRF rather than collected in a field that requires the site to enter text. If the form is laid out as a grid, then words such as \"Test\" can be included as the column header.", "label": "Vital Signs Test Name", "mappingInstructions": "Maps directly to the SDTMIG variable listed in the column with the heading SDTMIG Target. The SDTMIG variable VSTESTCD may be determined from the value collected in VSTEST. Both VSTESTCD and VSTEST are required in the SDTM submission datasets. Use appropriate CDISC Controlled Terminology for the test and test code.", "name": "VSTEST", "ordinal": "14", "prompt": "[Vital Signs Test Name]", "questionText": "What is the vital sign test name?", "simpleDatatype": "Char"}, {"_links": {"codelist": [{"href": "/mdr/root/ct/sdtmct/codelists/C66789", "title": "Version-agnostic anchor resource for codelist C66789", "type": "Root Value Domain"}], "implements": {"href": "/mdr/cdash/1-1/classes/Findings/fields/--STAT", "title": "Completion Status", "type": "Class Variable"}, "parentDomain": {"href": "/mdr/cdashig/2-1/domains/VS", "title": "Vital Signs", "type": "CDASH Domain"}, "parentProduct": {"href": "/mdr/cdashig/2-1", "title": "Clinical Data Acquisition Standards Harmonization Implementation Guide for Human Clinical Trials Version 2.1", "type": "Implementation Guide"}, "priorVersion": {"href": "/mdr/cdashig/2-0/domains/VS/fields/VSSTAT", "title": "Vital Signs Completion Status", "type": "Data Collection Field"}, "rootItem": {"href": "/mdr/root/cdashig/domains/VS/fields/VSSTAT", "title": "Version-agnostic anchor element for field VS.VSSTAT", "type": "Root Data Element"}, "sdtmigDatasetMappingTargets": [{"href": "/mdr/sdtmig/3-2/datasets/VS/variables/VSSTAT", "title": "Completion Status", "type": "SDTM Dataset Variable"}], "self": {"href": "/mdr/cdashig/2-1/domains/VS/fields/VSSTAT", "title": "Vital Signs Completion Status", "type": "Data Collection Field"}}, "completionInstructions": "Indicate if the vital sign measurement was not done.", "core": "O", "definition": "The variable used to indicate that data are not available by having the site recording the value as \"Not Done\".", "implementationNotes": "A Not Done check box, which indicates the test was NOT DONE. Typically, there would be one check box for each measurement. This field can be useful on individual vital signs tests to confirm that a blank result field is meant to be blank.", "label": "Vital Signs Completion Status", "mappingInstructions": "Maps directly to the SDTMIG variable listed in the column with the heading SDTMIG Target.", "name": "VSSTAT", "ordinal": "15", "prompt": "Not Done", "questionText": "Indicate if the vital signs measurement was not done", "simpleDatatype": "Char"}, {"_links": {"implements": {"href": "/mdr/cdash/1-1/classes/Findings/fields/--ORRES", "title": "Result or Finding in Original Units", "type": "Class Variable"}, "parentDomain": {"href": "/mdr/cdashig/2-1/domains/VS", "title": "Vital Signs", "type": "CDASH Domain"}, "parentProduct": {"href": "/mdr/cdashig/2-1", "title": "Clinical Data Acquisition Standards Harmonization Implementation Guide for Human Clinical Trials Version 2.1", "type": "Implementation Guide"}, "priorVersion": {"href": "/mdr/cdashig/2-0/domains/VS/fields/VSORRES", "title": "Vital Signs Result", "type": "Data Collection Field"}, "rootItem": {"href": "/mdr/root/cdashig/domains/VS/fields/VSORRES", "title": "Version-agnostic anchor element for field VS.VSORRES", "type": "Root Data Element"}, "sdtmigDatasetMappingTargets": [{"href": "/mdr/sdtmig/3-2/datasets/VS/variables/VSORRES", "title": "Result or Finding in Original Units", "type": "SDTM Dataset Variable"}], "self": {"href": "/mdr/cdashig/2-1/domains/VS/fields/VSORRES", "title": "VS Result or Finding in Original Units", "type": "Data Collection Field"}}, "completionInstructions": "Record the vital sign result.", "core": "HR", "definition": "Result of the vital signs measurement as originally received or collected.", "label": "VS Result or Finding in Original Units", "mappingInstructions": "Maps directly to the SDTMIG variable listed in the column with the heading SDTMIG Target.", "name": "VSORRES", "ordinal": "16", "prompt": "(Result)", "questionText": "What was the result of the measurement?", "simpleDatatype": "Char"}, {"_links": {"codelist": [{"href": "/mdr/root/ct/sdtmct/codelists/C66770", "title": "Version-agnostic anchor resource for codelist C66770", "type": "Root Value Domain"}], "implements": {"href": "/mdr/cdash/1-1/classes/Findings/fields/--ORRESU", "title": "Original Units", "type": "Class Variable"}, "parentDomain": {"href": "/mdr/cdashig/2-1/domains/VS", "title": "Vital Signs", "type": "CDASH Domain"}, "parentProduct": {"href": "/mdr/cdashig/2-1", "title": "Clinical Data Acquisition Standards Harmonization Implementation Guide for Human Clinical Trials Version 2.1", "type": "Implementation Guide"}, "priorVersion": {"href": "/mdr/cdashig/2-0/domains/VS/fields/VSORRESU", "title": "Vital Signs Result Unit", "type": "Data Collection Field"}, "rootItem": {"href": "/mdr/root/cdashig/domains/VS/fields/VSORRESU", "title": "Version-agnostic anchor element for field VS.VSORRESU", "type": "Root Data Element"}, "sdtmigDatasetMappingTargets": [{"href": "/mdr/sdtmig/3-2/datasets/VS/variables/VSORRESU", "title": "Original Units", "type": "SDTM Dataset Variable"}], "self": {"href": "/mdr/cdashig/2-1/domains/VS/fields/VSORRESU", "title": "VS Original Units", "type": "Data Collection Field"}}, "completionInstructions": "Record or select the original unit in which these data were collected, if not preprinted on CRF.", "core": "R/C", "definition": "The unit of the result as originally received or collected.", "implementationNotes": "Should be preprinted on the CRF with the associated test when possible, rather than collected in a field that requires the site to enter text.", "label": "VS Original Units", "mappingInstructions": "Maps directly to the SDTMIG variable listed in the column with the heading SDTMIG Target.", "name": "VSORRESU", "ordinal": "17", "prompt": "Unit", "questionText": "What was the unit of the measurement?", "simpleDatatype": "Char"}, {"_links": {"codelist": [{"href": "/mdr/root/ct/sdtmct/codelists/C66742", "title": "Version-agnostic anchor resource for codelist C66742", "type": "Root Value Domain"}], "implements": {"href": "/mdr/cdash/1-1/classes/Findings/fields/--CLSIG", "title": "Clinical Significance", "type": "Class Variable"}, "parentDomain": {"href": "/mdr/cdashig/2-1/domains/VS", "title": "Vital Signs", "type": "CDASH Domain"}, "parentProduct": {"href": "/mdr/cdashig/2-1", "title": "Clinical Data Acquisition Standards Harmonization Implementation Guide for Human Clinical Trials Version 2.1", "type": "Implementation Guide"}, "priorVersion": {"href": "/mdr/cdashig/2-0/domains/VS/fields/VSCLSIG", "title": "Vital Signs Clinical Significance", "type": "Data Collection Field"}, "rootItem": {"href": "/mdr/root/cdashig/domains/VS/fields/VSCLSIG", "title": "Version-agnostic anchor element for field VS.VSCLSIG", "type": "Root Data Element"}, "sdtmigDatasetMappingTargets": [{"href": "/mdr/sdtmig/3-2/datasets/SUPPQUAL/variables/QVAL", "title": "Data Value", "type": "SDTM Dataset Variable"}], "self": {"href": "/mdr/cdashig/2-1/domains/VS/fields/VSCLSIG", "title": "Vital Signs Clinical Significance", "type": "Data Collection Field"}}, "completionInstructions": "Record whether vital sign result was clinically significant.", "core": "O", "definition": "An indication whether the vital sign result was clinically significant.", "label": "Vital Signs Clinical Significance", "mappingInstructions": "This does not map directly to an SDTMIG variable. This information could be submitted in a SUPPVS dataset as the value of SUPPVS.QVAL where SUPPVS.QNAM = \"VSCLSIG\" and SUPPVS.QLABEL=\"Clinically Significant\". Refer to the current SDTM and SDTMIG for instructions on placement of non-standard variables in SDTM domains.", "name": "VSCLSIG", "ordinal": "18", "prompt": "Clinically Significant", "questionText": "Was the result clinically significant?", "simpleDatatype": "Char"}, {"_links": {"codelist": [{"href": "/mdr/root/ct/sdtmct/codelists/C74456", "title": "Version-agnostic anchor resource for codelist C74456", "type": "Root Value Domain"}], "implements": {"href": "/mdr/cdash/1-1/classes/Findings/fields/--LOC", "title": "Location Used for the Measurement", "type": "Class Variable"}, "parentDomain": {"href": "/mdr/cdashig/2-1/domains/VS", "title": "Vital Signs", "type": "CDASH Domain"}, "parentProduct": {"href": "/mdr/cdashig/2-1", "title": "Clinical Data Acquisition Standards Harmonization Implementation Guide for Human Clinical Trials Version 2.1", "type": "Implementation Guide"}, "priorVersion": {"href": "/mdr/cdashig/2-0/domains/VS/fields/VSLOC", "title": "Vital Signs Location", "type": "Data Collection Field"}, "rootItem": {"href": "/mdr/root/cdashig/domains/VS/fields/VSLOC", "title": "Version-agnostic anchor element for field VS.VSLOC", "type": "Root Data Element"}, "sdtmigDatasetMappingTargets": [{"href": "/mdr/sdtmig/3-2/datasets/VS/variables/VSLOC", "title": "Location of Vital Signs Measurement", "type": "SDTM Dataset Variable"}], "self": {"href": "/mdr/cdashig/2-1/domains/VS/fields/VSLOC", "title": "Location of Vital Signs Measurement", "type": "Data Collection Field"}}, "completionInstructions": "Record or select location on body where measurement was performed, if not preprinted on CRF.", "core": "O", "definition": "A description of the anatomical location of the subject relevant to the collection of Vital Signs measurement.", "implementationNotes": "Collected or preprinted when the sponsor needs to identify the specific anatomical location (e.g., ARM for blood pressure). Sponsors may collect the data using a subset list of controlled terminology on the CRF. LAT, DIR, and PORTOT are used to further describe the anatomical location.", "label": "Location of Vital Signs Measurement", "mappingInstructions": "Maps directly to the SDTMIG variable listed in the column with the heading SDTMIG Target.", "name": "VSLOC", "ordinal": "19", "prompt": "Anatomical Location", "questionText": "What was the anatomical location where the measurement was taken?", "simpleDatatype": "Char"}, {"_links": {"codelist": [{"href": "/mdr/root/ct/sdtmct/codelists/C71148", "title": "Version-agnostic anchor resource for codelist C71148", "type": "Root Value Domain"}, {"href": "/mdr/root/ct/cdashct/codelists/C78431", "title": "Version-agnostic anchor resource for codelist C78431", "type": "Root Value Domain"}], "implements": {"href": "/mdr/cdash/1-1/classes/Findings/fields/--POS", "title": "Position of Subject During Observation", "type": "Class Variable"}, "parentDomain": {"href": "/mdr/cdashig/2-1/domains/VS", "title": "Vital Signs", "type": "CDASH Domain"}, "parentProduct": {"href": "/mdr/cdashig/2-1", "title": "Clinical Data Acquisition Standards Harmonization Implementation Guide for Human Clinical Trials Version 2.1", "type": "Implementation Guide"}, "priorVersion": {"href": "/mdr/cdashig/2-0/domains/VS/fields/VSPOS", "title": "Vital Signs Position of Subject", "type": "Data Collection Field"}, "rootItem": {"href": "/mdr/root/cdashig/domains/VS/fields/VSPOS", "title": "Version-agnostic anchor element for field VS.VSPOS", "type": "Root Data Element"}, "sdtmigDatasetMappingTargets": [{"href": "/mdr/sdtmig/3-2/datasets/VS/variables/VSPOS", "title": "Vital Signs Position of Subject", "type": "SDTM Dataset Variable"}], "self": {"href": "/mdr/cdashig/2-1/domains/VS/fields/VSPOS", "title": "Vital Signs Position of Subject", "type": "Data Collection Field"}}, "completionInstructions": "Record the position of subject at time of test (e.g. SITTING).", "core": "R/C", "definition": "The position of the subject during a measurement or examination.", "implementationNotes": "Results may be affected by whether conditions for vital signs as specified in the protocol were properly met. One common condition is the subject's position.", "label": "Vital Signs Position of Subject", "mappingInstructions": "Maps directly to the SDTMIG variable listed in the column with the heading SDTMIG Target.", "name": "VSPOS", "ordinal": "20", "prompt": "Position", "questionText": "What was the position of the subject during the measurement?", "simpleDatatype": "Char"}, {"_links": {"codelist": [{"href": "/mdr/root/ct/sdtmct/codelists/C99074", "title": "Version-agnostic anchor resource for codelist C99074", "type": "Root Value Domain"}], "implements": {"href": "/mdr/cdash/1-1/classes/Findings/fields/--DIR", "title": "Directionality", "type": "Class Variable"}, "parentDomain": {"href": "/mdr/cdashig/2-1/domains/VS", "title": "Vital Signs", "type": "CDASH Domain"}, "parentProduct": {"href": "/mdr/cdashig/2-1", "title": "Clinical Data Acquisition Standards Harmonization Implementation Guide for Human Clinical Trials Version 2.1", "type": "Implementation Guide"}, "priorVersion": {"href": "/mdr/cdashig/2-0/domains/VS/fields/VSDIR", "title": "Vital Signs Directionality", "type": "Data Collection Field"}, "rootItem": {"href": "/mdr/root/cdashig/domains/VS/fields/VSDIR", "title": "Version-agnostic anchor element for field VS.VSDIR", "type": "Root Data Element"}, "self": {"href": "/mdr/cdashig/2-1/domains/VS/fields/VSDIR", "title": "Vital Signs Directionality", "type": "Data Collection Field"}}, "completionInstructions": "Record the directionality.", "core": "O", "definition": "Qualifier further detailing the position of the anatomical location relative to the center of the body, organ, or specimen.", "implementationNotes": "May be preprinted or collected when the sponsor needs to identify the directionality of the anatomical location. Sponsors may collect the data using a subset list of controlled terminology on the CRF.", "label": "Vital Signs Directionality", "mappingInstructions": "Maps directly to the SDTMIG variable listed in the column with the heading SDTMIG Target.", "name": "VSDIR", "ordinal": "21", "prompt": "Directionality", "questionText": "What was the directionality of the anatomical location of the measurement?", "simpleDatatype": "Char"}, {"_links": {"codelist": [{"href": "/mdr/root/ct/sdtmct/codelists/C99073", "title": "Version-agnostic anchor resource for codelist C99073", "type": "Root Value Domain"}], "implements": {"href": "/mdr/cdash/1-1/classes/Findings/fields/--LAT", "title": "Laterality", "type": "Class Variable"}, "parentDomain": {"href": "/mdr/cdashig/2-1/domains/VS", "title": "Vital Signs", "type": "CDASH Domain"}, "parentProduct": {"href": "/mdr/cdashig/2-1", "title": "Clinical Data Acquisition Standards Harmonization Implementation Guide for Human Clinical Trials Version 2.1", "type": "Implementation Guide"}, "priorVersion": {"href": "/mdr/cdashig/2-0/domains/VS/fields/VSLAT", "title": "Vital Signs Laterality", "type": "Data Collection Field"}, "rootItem": {"href": "/mdr/root/cdashig/domains/VS/fields/VSLAT", "title": "Version-agnostic anchor element for field VS.VSLAT", "type": "Root Data Element"}, "sdtmigDatasetMappingTargets": [{"href": "/mdr/sdtmig/3-2/datasets/VS/variables/VSLAT", "title": "Laterality", "type": "SDTM Dataset Variable"}], "self": {"href": "/mdr/cdashig/2-1/domains/VS/fields/VSLAT", "title": "Vital Signs Laterality", "type": "Data Collection Field"}}, "completionInstructions": "Record the side of the anatomical location of the vital signs measurement.", "core": "O", "definition": "Qualifier for anatomical location further detailing the side of the body.", "implementationNotes": "May be preprinted or collected when the sponsor needs to identify the specific side of the anatomical location. Sponsors may collect the data using a subset list of controlled terminology on the CRF.", "label": "Vital Signs Laterality", "mappingInstructions": "Maps directly to the SDTMIG variable listed in the column with the heading SDTMIG Target.", "name": "VSLAT", "ordinal": "22", "prompt": "Side", "questionText": "What was the side of the anatomical location of the vital signs measurement?", "simpleDatatype": "Char"}], "label": "Vital Signs", "name": "VS", "ordinal": "31"}
