{"_links": {"parentClass": {"href": "/mdr/cdashig/2-2/classes/Interventions", "title": "Interventions", "type": "Class"}, "parentProduct": {"href": "/mdr/cdashig/2-2", "title": "Clinical Data Acquisition Standards Harmonization Implementation Guide for Human Clinical Trials Version 2.2", "type": "Implementation Guide"}, "self": {"href": "/mdr/cdashig/2-2/domains/AG", "title": "Procedure Agents", "type": "CDASH Domain"}}, "description": "An interventions domain that contains the agents administered to the subject as part of a procedure or assessment, as opposed to drugs, medications and therapies administered with therapeutic intent. (Source: CDISC Controlled Terminology, DOMAIN, C117755, 2021-06-25)", "fields": [{"_links": {"implements": {"href": "/mdr/cdash/1-2/classes/Identifiers/fields/STUDYID", "title": "Study Identifier", "type": "Class Variable"}, "parentDomain": {"href": "/mdr/cdashig/2-2/domains/AG", "title": "Procedure Agents", "type": "CDASH Domain"}, "parentProduct": {"href": "/mdr/cdashig/2-2", "title": "Clinical Data Acquisition Standards Harmonization Implementation Guide for Human Clinical Trials Version 2.2", "type": "Implementation Guide"}, "rootItem": {"href": "/mdr/root/cdashig/domains/AG/fields/STUDYID", "title": "Study Identifier", "type": "Root Data Element"}, "sdtmigDatasetMappingTargets": [{"href": "/mdr/sdtmig/3-3/datasets/AG/variables/STUDYID", "title": "Study Identifier", "type": "SDTM Dataset Variable"}], "self": {"href": "/mdr/cdashig/2-2/domains/AG/fields/STUDYID", "title": "Study Identifier", "type": "Data Collection Field"}}, "core": "HR", "definition": "A unique identifier for a study.", "implementationNotes": "Although this field is not typically captured on a CRF, it should be displayed clearly on the CRF and/or in the EDC system. This field can be included into the database or populated during SDTM-based dataset creation before submission.", "label": "Study Identifier", "mappingInstructions": "Maps directly to the SDTMIG variable listed in the SDTMIG Target column.", "name": "STUDYID", "ordinal": "1", "prompt": "[Protocol/Study]", "questionText": "What is the study identifier?", "simpleDatatype": "Char"}, {"_links": {"implements": {"href": "/mdr/cdash/1-2/classes/Identifiers/fields/SITEID", "title": "Study Site Identifier", "type": "Class Variable"}, "parentDomain": {"href": "/mdr/cdashig/2-2/domains/AG", "title": "Procedure Agents", "type": "CDASH Domain"}, "parentProduct": {"href": "/mdr/cdashig/2-2", "title": "Clinical Data Acquisition Standards Harmonization Implementation Guide for Human Clinical Trials Version 2.2", "type": "Implementation Guide"}, "rootItem": {"href": "/mdr/root/cdashig/domains/AG/fields/SITEID", "title": "Study Site Identifier", "type": "Root Data Element"}, "self": {"href": "/mdr/cdashig/2-2/domains/AG/fields/SITEID", "title": "Study Site Identifier", "type": "Data Collection Field"}}, "core": "HR", "definition": "A unique identifier for a site within a study.", "implementationNotes": "Paper: This is typically pre-printed in the header of each CRF page for single site studies. For studies with multiple sites, this field may be left blank so that the number can be recorded by the site, or it may be pre-printed on CRFs that are shipped to each site. EDC: This should be pre-populated.", "label": "Study Site Identifier", "mappingInstructions": "Maps directly to the SDTMIG variable listed in the SDTMIG Target column.", "name": "SITEID", "ordinal": "2", "prompt": "Site (Identifier)", "questionText": "What is the site identifier?", "simpleDatatype": "Char"}, {"_links": {"implements": {"href": "/mdr/cdash/1-2/classes/Identifiers/fields/SUBJID", "title": "Subject Identifier for the Study", "type": "Class Variable"}, "parentDomain": {"href": "/mdr/cdashig/2-2/domains/AG", "title": "Procedure Agents", "type": "CDASH Domain"}, "parentProduct": {"href": "/mdr/cdashig/2-2", "title": "Clinical Data Acquisition Standards Harmonization Implementation Guide for Human Clinical Trials Version 2.2", "type": "Implementation Guide"}, "rootItem": {"href": "/mdr/root/cdashig/domains/AG/fields/SUBJID", "title": "Subject Identifier for the Study", "type": "Root Data Element"}, "sdtmigDatasetMappingTargets": [{"href": "/mdr/sdtmig/3-3/datasets/DM/variables/SUBJID", "title": "Subject Identifier for the Study", "type": "SDTM Dataset Variable"}], "self": {"href": "/mdr/cdashig/2-2/domains/AG/fields/SUBJID", "title": "Subject Identifier for the Study", "type": "Data Collection Field"}}, "completionInstructions": "Record the identifier for the subject.", "core": "HR", "definition": "A unique subject identifier within a site and a study.", "implementationNotes": "Paper: This is typically recorded in the header of each CRF page. EDC: The subject identifiers may be system generated. This CDASH variable is typically collected in all CDASH domains. However, this CDASH variable is populated only in the SDTM DM domain. For more information, refer to the SDTMIG.", "label": "Subject Identifier for the Study", "mappingInstructions": "Maps directly to the SDTMIG variable listed in the SDTMIG Target column.", "name": "SUBJID", "ordinal": "3", "prompt": "[Subject/Participant] (Identifier)", "questionText": "What [is/was] the (study) [subject/participant] identifier?", "simpleDatatype": "Char"}, {"_links": {"implements": {"href": "/mdr/cdash/1-2/classes/Interventions/fields/--CAT", "title": "Category", "type": "Class Variable"}, "parentDomain": {"href": "/mdr/cdashig/2-2/domains/AG", "title": "Procedure Agents", "type": "CDASH Domain"}, "parentProduct": {"href": "/mdr/cdashig/2-2", "title": "Clinical Data Acquisition Standards Harmonization Implementation Guide for Human Clinical Trials Version 2.2", "type": "Implementation Guide"}, "rootItem": {"href": "/mdr/root/cdashig/domains/AG/fields/AGCAT", "title": "Category for Agent", "type": "Root Data Element"}, "sdtmigDatasetMappingTargets": [{"href": "/mdr/sdtmig/3-3/datasets/AG/variables/AGCAT", "title": "Category for Agent", "type": "SDTM Dataset Variable"}], "self": {"href": "/mdr/cdashig/2-2/domains/AG/fields/AGCAT", "title": "Category for Agent", "type": "Data Collection Field"}}, "completionInstructions": "Record the procedure agent category, if not pre-printed on the CRF.", "core": "O", "definition": "A grouping of topic-variable values based on user-defined characteristics.", "implementationNotes": "Sponsor-defined controlled terminology. This would most commonly be either a heading or a pre-printed category value on the CRF, not a question to which the site would provide an answer. If a question is asked, the response would typically be a sponsor-defined codelist. If the form is laid out as a grid, then words such as \"Category\" can be included as the column header.", "label": "Category for Agent", "mappingInstructions": "Maps directly to the SDTMIG variable listed in the SDTMIG Target column.", "name": "AGCAT", "ordinal": "4", "prompt": "Procedure Agent Category; NULL", "questionText": "What is the category for the [procedure/assessment agent]?", "simpleDatatype": "Char"}, {"_links": {"implements": {"href": "/mdr/cdash/1-2/classes/Interventions/fields/--SCAT", "title": "Subcategory", "type": "Class Variable"}, "parentDomain": {"href": "/mdr/cdashig/2-2/domains/AG", "title": "Procedure Agents", "type": "CDASH Domain"}, "parentProduct": {"href": "/mdr/cdashig/2-2", "title": "Clinical Data Acquisition Standards Harmonization Implementation Guide for Human Clinical Trials Version 2.2", "type": "Implementation Guide"}, "rootItem": {"href": "/mdr/root/cdashig/domains/AG/fields/AGSCAT", "title": "Subcategory for Agent", "type": "Root Data Element"}, "sdtmigDatasetMappingTargets": [{"href": "/mdr/sdtmig/3-3/datasets/AG/variables/AGSCAT", "title": "Subcategory for Agent", "type": "SDTM Dataset Variable"}], "self": {"href": "/mdr/cdashig/2-2/domains/AG/fields/AGSCAT", "title": "Subcategory for Agent", "type": "Data Collection Field"}}, "completionInstructions": "Record the procedure agent subcategory, if not pre-printed on the CRF.", "core": "O", "definition": "A sub-division of the AGCAT values based on user-defined characteristics.", "implementationNotes": "Sponsor-defined controlled terminology. This would most commonly be pre-printed on the CRF or screen and pre-populated in the data management system. This is not typically a question to which the site would provide an answer.", "label": "Subcategory for Agent", "mappingInstructions": "Maps directly to the SDTMIG variable listed in the SDTMIG Target column.", "name": "AGSCAT", "ordinal": "5", "prompt": "Procedure Agent Subcategory; NULL", "questionText": "What is the subcategory for the [procedure/assessment agent]?", "simpleDatatype": "Char"}, {"_links": {"codelist": [{"href": "/mdr/root/ct/sdtmct/codelists/C66742", "title": "Version-agnostic anchor resource for codelist C66742", "type": "Root Value Domain"}], "implements": {"href": "/mdr/cdash/1-2/classes/Interventions/fields/--YN", "title": "Any [Intervention]", "type": "Class Variable"}, "parentDomain": {"href": "/mdr/cdashig/2-2/domains/AG", "title": "Procedure Agents", "type": "CDASH Domain"}, "parentProduct": {"href": "/mdr/cdashig/2-2", "title": "Clinical Data Acquisition Standards Harmonization Implementation Guide for Human Clinical Trials Version 2.2", "type": "Implementation Guide"}, "rootItem": {"href": "/mdr/root/cdashig/domains/AG/fields/AGYN", "title": "Any Procedure Agent Taken", "type": "Root Data Element"}, "self": {"href": "/mdr/cdashig/2-2/domains/AG/fields/AGYN", "title": "Any Procedure Agent Taken", "type": "Data Collection Field"}}, "completionInstructions": "Indicate if the subject was administered any procedure agents. If Yes, include the appropriate details where indicated on the CRF.", "core": "O", "definition": "An indication of whether any procedure/assessment agent(s) were administered.", "implementationNotes": "The intent/purpose of collecting this field is to help with data cleaning and monitoring. It provides verification that all other fields on the CRF were deliberately left blank.", "label": "Any Procedure Agent Taken", "mappingInstructions": "Does not map to an SDTMIG variable. The SDTM annotated CRF indicates that this field is NOT SUBMITTED.", "name": "AGYN", "ordinal": "6", "prompt": "Any procedure agents", "questionText": "[Were/Was] there any [procedure/assessment agent(s)] taken/administered?", "simpleDatatype": "Char"}, {"_links": {"implements": {"href": "/mdr/cdash/1-2/classes/Identifiers/fields/--SPID", "title": "Sponsor-Defined Identifier", "type": "Class Variable"}, "parentDomain": {"href": "/mdr/cdashig/2-2/domains/AG", "title": "Procedure Agents", "type": "CDASH Domain"}, "parentProduct": {"href": "/mdr/cdashig/2-2", "title": "Clinical Data Acquisition Standards Harmonization Implementation Guide for Human Clinical Trials Version 2.2", "type": "Implementation Guide"}, "rootItem": {"href": "/mdr/root/cdashig/domains/AG/fields/AGSPID", "title": "AG Sponsor-Defined Identifier", "type": "Root Data Element"}, "sdtmigDatasetMappingTargets": [{"href": "/mdr/sdtmig/3-3/datasets/AG/variables/AGSPID", "title": "Sponsor-Defined Identifier", "type": "SDTM Dataset Variable"}], "self": {"href": "/mdr/cdashig/2-2/domains/AG/fields/AGSPID", "title": "AG Sponsor-Defined Identifier", "type": "Data Collection Field"}}, "completionInstructions": "If collected on the CRF, sponsor may insert instructions to ensure each record has a unique identifier.", "core": "O", "definition": "A sponsor-defined identifier. In CDASH, this is typically used for pre-printed or auto-generated numbers on the CRF, or any other type of identifier that does not already have a defined CDASH identifier field.", "implementationNotes": "Because SPID is a sponsor-defined identifier, conformance to Question Text or Item Prompt is not applicable. Typically used as an identifier in a data query to communicate clearly to the site the specific record in question or to reconcile procedure agent records with AEs and/or MH. May be used to record pre-printed number (e.g. line number, record number) on the CRF. This field may be populated by the sponsor's data collection system.", "label": "AG Sponsor-Defined Identifier", "mappingInstructions": "Maps directly to the SDTMIG variable listed in the SDTMIG Target column. May be used to create RELREC to link this record with a record in another domain.", "name": "AGSPID", "ordinal": "7", "prompt": "[Sponsor defined]", "questionText": "[Sponsor defined question]", "simpleDatatype": "Char"}, {"_links": {"implements": {"href": "/mdr/cdash/1-2/classes/Interventions/fields/--TRT", "title": "Name of Treatment", "type": "Class Variable"}, "parentDomain": {"href": "/mdr/cdashig/2-2/domains/AG", "title": "Procedure Agents", "type": "CDASH Domain"}, "parentProduct": {"href": "/mdr/cdashig/2-2", "title": "Clinical Data Acquisition Standards Harmonization Implementation Guide for Human Clinical Trials Version 2.2", "type": "Implementation Guide"}, "rootItem": {"href": "/mdr/root/cdashig/domains/AG/fields/AGTRT", "title": "Reported Agent Name", "type": "Root Data Element"}, "sdtmigDatasetMappingTargets": [{"href": "/mdr/sdtmig/3-3/datasets/AG/variables/AGTRT", "title": "Reported Agent Name", "type": "SDTM Dataset Variable"}], "self": {"href": "/mdr/cdashig/2-2/domains/AG/fields/AGTRT", "title": "Reported Agent Name", "type": "Data Collection Field"}}, "completionInstructions": "Record only 1 procedure agent per line. Provide the full trade or proprietary name of the procedure agent; otherwise the generic name may be recorded.", "core": "HR", "definition": "Verbatim name of procedure/assessment agent administered.", "implementationNotes": "In most cases, the verbatim drug names or treatment will be coded to a standard dictionary (e.g., WHODrug) after the data have been collected on the CRF. For the collection of verbatim procedure agents, the recommendation is to ask sites to provide the full trade or proprietary name since it is more exact than the generic. The full trade name provides the base generic and the appropriate salt for that particular drug. In addition, for coding purposes it helps with Anatomical Therapeutic Chemical (ATC) classification system code selection. For example, Tylenol with codeine #1 has a different ATC code than Tylenol with codeine #3.", "label": "Reported Agent Name", "mappingInstructions": "Maps directly to the SDTMIG variable listed in the SDTMIG Target column.", "name": "AGTRT", "ordinal": "8", "prompt": "[Procedure/Assessment Agent]", "questionText": "What was the [procedure/assessment agent] [name/term]?", "simpleDatatype": "Char"}, {"_links": {"codelist": [{"href": "/mdr/root/ct/sdtmct/codelists/C66742", "title": "Version-agnostic anchor resource for codelist C66742", "type": "Root Value Domain"}], "implements": {"href": "/mdr/cdash/1-2/classes/Interventions/fields/--PRESP", "title": "Pre-Specified Intervention", "type": "Class Variable"}, "parentDomain": {"href": "/mdr/cdashig/2-2/domains/AG", "title": "Procedure Agents", "type": "CDASH Domain"}, "parentProduct": {"href": "/mdr/cdashig/2-2", "title": "Clinical Data Acquisition Standards Harmonization Implementation Guide for Human Clinical Trials Version 2.2", "type": "Implementation Guide"}, "rootItem": {"href": "/mdr/root/cdashig/domains/AG/fields/AGPRESP", "title": "AG Pre-Specified", "type": "Root Data Element"}, "sdtmigDatasetMappingTargets": [{"href": "/mdr/sdtmig/3-3/datasets/AG/variables/AGPRESP", "title": "AG Pre-Specified", "type": "SDTM Dataset Variable"}], "self": {"href": "/mdr/cdashig/2-2/domains/AG/fields/AGPRESP", "title": "AG Pre-Specified", "type": "Data Collection Field"}}, "core": "O", "definition": "An indication that a specific procedure/assessment agent or group of agents is pre-specified on a CRF.", "implementationNotes": "For pre-specified interventions, a hidden field on a CRF defaulted to \"Y\", or added during the SDTM dataset creation. If a study collects both pre-specified and free-text interventions, the value of AGPRESP should be \"Y\" for all prespecified interventions and null for interventions reported as free text.", "label": "AG Pre-Specified", "mappingInstructions": "Maps directly to the SDTMIG variable listed in the SDTMIG Target column.", "name": "AGPRESP", "ordinal": "9", "simpleDatatype": "Char"}, {"_links": {"codelist": [{"href": "/mdr/root/ct/sdtmct/codelists/C66742", "title": "Version-agnostic anchor resource for codelist C66742", "type": "Root Value Domain"}], "implements": {"href": "/mdr/cdash/1-2/classes/Interventions/fields/--OCCUR", "title": "Occurrence", "type": "Class Variable"}, "parentDomain": {"href": "/mdr/cdashig/2-2/domains/AG", "title": "Procedure Agents", "type": "CDASH Domain"}, "parentProduct": {"href": "/mdr/cdashig/2-2", "title": "Clinical Data Acquisition Standards Harmonization Implementation Guide for Human Clinical Trials Version 2.2", "type": "Implementation Guide"}, "rootItem": {"href": "/mdr/root/cdashig/domains/AG/fields/AGOCCUR", "title": "AG Occurrence", "type": "Root Data Element"}, "sdtmigDatasetMappingTargets": [{"href": "/mdr/sdtmig/3-3/datasets/AG/variables/AGOCCUR", "title": "AG Occurrence", "type": "SDTM Dataset Variable"}], "self": {"href": "/mdr/cdashig/2-2/domains/AG/fields/AGOCCUR", "title": "AG Occurrence", "type": "Data Collection Field"}}, "completionInstructions": "Indicate if the procedure agent was administered, by checking Yes or No.", "core": "O", "definition": "An indication whether the given procedure/assessment agent or group of agents was administered when information about the occurrence of a specific procedure/assessment agent is solicited.", "implementationNotes": "AGOCCUR is used to report the occurrence of a pre-specified procedure agent. AGOCCUR is not used for spontaneously free-text reported procedure agent(s). The site should be able to indicate that the response was not asked or answered.", "label": "AG Occurrence", "mappingInstructions": "Maps directly to the SDTMIG variable listed in the SDTMIG Target column. If the response was not asked or answered, populate the SDTMIG variable AGSTAT with \"NOT DONE\".", "name": "AGOCCUR", "ordinal": "10", "prompt": "[AGTRT]", "questionText": "[Has/Was] the subject (been) administered the [procedure/assessment agent]?", "simpleDatatype": "Char"}, {"_links": {"implements": {"href": "/mdr/cdash/1-2/classes/Interventions/fields/--DOSE", "title": "Dose", "type": "Class Variable"}, "parentDomain": {"href": "/mdr/cdashig/2-2/domains/AG", "title": "Procedure Agents", "type": "CDASH Domain"}, "parentProduct": {"href": "/mdr/cdashig/2-2", "title": "Clinical Data Acquisition Standards Harmonization Implementation Guide for Human Clinical Trials Version 2.2", "type": "Implementation Guide"}, "rootItem": {"href": "/mdr/root/cdashig/domains/AG/fields/AGDOSE", "title": "AG Dose per Administration", "type": "Root Data Element"}, "sdtmigDatasetMappingTargets": [{"href": "/mdr/sdtmig/3-3/datasets/AG/variables/AGDOSE", "title": "Dose per Administration", "type": "SDTM Dataset Variable"}], "self": {"href": "/mdr/cdashig/2-2/domains/AG/fields/AGDOSE", "title": "AG Dose per Administration", "type": "Data Collection Field"}}, "completionInstructions": "Record the dose of the [procedure agent] taken per administration (e.g., 200).", "core": "O", "definition": "The dose of procedure/assessment agent (e.g., --TRT ) given at one time represented as a numeric value.", "implementationNotes": "Used when the dose/amount administered has only numeric entries. If non-numeric entries are possible, use the CDASH field AGDSTXT.", "label": "AG Dose per Administration", "mappingInstructions": "Maps directly to the SDTMIG variable listed in the SDTMIG Target column.", "name": "AGDOSE", "ordinal": "11", "prompt": "[Dose/Amount] (per administration)", "questionText": "What was the individual dose per administration of the [procedure/assessment agent]?", "simpleDatatype": "Num"}, {"_links": {"implements": {"href": "/mdr/cdash/1-2/classes/Interventions/fields/--DSTXT", "title": "Dose Description", "type": "Class Variable"}, "parentDomain": {"href": "/mdr/cdashig/2-2/domains/AG", "title": "Procedure Agents", "type": "CDASH Domain"}, "parentProduct": {"href": "/mdr/cdashig/2-2", "title": "Clinical Data Acquisition Standards Harmonization Implementation Guide for Human Clinical Trials Version 2.2", "type": "Implementation Guide"}, "rootItem": {"href": "/mdr/root/cdashig/domains/AG/fields/AGDSTXT", "title": "Procedure Agents Dose Description", "type": "Root Data Element"}, "sdtmigDatasetMappingTargets": [{"href": "/mdr/sdtmig/3-3/datasets/AG/variables/AGDOSE", "title": "Dose per Administration", "type": "SDTM Dataset Variable"}, {"href": "/mdr/sdtmig/3-3/datasets/AG/variables/AGDOSTXT", "title": "Dose Description", "type": "SDTM Dataset Variable"}], "self": {"href": "/mdr/cdashig/2-2/domains/AG/fields/AGDSTXT", "title": "Procedure Agents Dose Description", "type": "Data Collection Field"}}, "completionInstructions": "Record the dose of [procedure agent] taken per administration (e.g., 200).", "core": "O", "definition": "The dose of procedure/assessment agent administered per instance.", "implementationNotes": "Defining this data collection field as a dose text field allows for flexibility in capturing dose entries as numbers, text or ranges. The data collected in this dose text-format field should be separated or mapped to either SDTMIG AGDOSE (if numeric) or AGDOSTXT (if text).", "label": "Procedure Agents Dose Description", "mappingInstructions": "This does not map directly to an SDTMIG variable. Numeric values map to AGDOSE in SDTM. Non-numeric values (e.g., 200-400) map to AGDOSTXT in SDTM.", "name": "AGDSTXT", "ordinal": "12", "prompt": "Dose", "questionText": "What was the individual dose of the [procedure/assessment agent]?", "simpleDatatype": "Char"}, {"_links": {"codelist": [{"href": "/mdr/root/ct/sdtmct/codelists/C71620", "title": "Version-agnostic anchor resource for codelist C71620", "type": "Root Value Domain"}, {"href": "/mdr/root/ct/cdashct/codelists/C78417", "title": "Version-agnostic anchor resource for codelist C78417", "type": "Root Value Domain"}], "implements": {"href": "/mdr/cdash/1-2/classes/Interventions/fields/--DOSU", "title": "Dose Units", "type": "Class Variable"}, "parentDomain": {"href": "/mdr/cdashig/2-2/domains/AG", "title": "Procedure Agents", "type": "CDASH Domain"}, "parentProduct": {"href": "/mdr/cdashig/2-2", "title": "Clinical Data Acquisition Standards Harmonization Implementation Guide for Human Clinical Trials Version 2.2", "type": "Implementation Guide"}, "rootItem": {"href": "/mdr/root/cdashig/domains/AG/fields/AGDOSU", "title": "AG Dose Units", "type": "Root Data Element"}, "sdtmigDatasetMappingTargets": [{"href": "/mdr/sdtmig/3-3/datasets/AG/variables/AGDOSU", "title": "Dose Units", "type": "SDTM Dataset Variable"}], "self": {"href": "/mdr/cdashig/2-2/domains/AG/fields/AGDOSU", "title": "AG Dose Units", "type": "Data Collection Field"}}, "completionInstructions": "Record the dose unit of the [procedure agent] administered (e.g., mg).", "core": "R/C", "definition": "The unit associated with the procedure/assessment agent.", "implementationNotes": "When sponsors collect data for amount of dose administered (i.e., Dose, Total Daily Dose), the unit must be collected as well (if applicable).", "label": "AG Dose Units", "mappingInstructions": "Maps directly to the SDTMIG variable listed in the SDTMIG Target column.", "name": "AGDOSU", "ordinal": "13", "prompt": "(Dose) Unit", "questionText": "What is the unit (for the dose of the [procedure/assessment agent])?", "simpleDatatype": "Char"}, {"_links": {"codelist": [{"href": "/mdr/root/ct/sdtmct/codelists/C66726", "title": "Version-agnostic anchor resource for codelist C66726", "type": "Root Value Domain"}, {"href": "/mdr/root/ct/cdashct/codelists/C78418", "title": "Version-agnostic anchor resource for codelist C78418", "type": "Root Value Domain"}], "implements": {"href": "/mdr/cdash/1-2/classes/Interventions/fields/--DOSFRM", "title": "Dose Form", "type": "Class Variable"}, "parentDomain": {"href": "/mdr/cdashig/2-2/domains/AG", "title": "Procedure Agents", "type": "CDASH Domain"}, "parentProduct": {"href": "/mdr/cdashig/2-2", "title": "Clinical Data Acquisition Standards Harmonization Implementation Guide for Human Clinical Trials Version 2.2", "type": "Implementation Guide"}, "rootItem": {"href": "/mdr/root/cdashig/domains/AG/fields/AGDOSFRM", "title": "AG Dose Form", "type": "Root Data Element"}, "sdtmigDatasetMappingTargets": [{"href": "/mdr/sdtmig/3-3/datasets/AG/variables/AGDOSFRM", "title": "Dose Form", "type": "SDTM Dataset Variable"}], "self": {"href": "/mdr/cdashig/2-2/domains/AG/fields/AGDOSFRM", "title": "AG Dose Form", "type": "Data Collection Field"}}, "completionInstructions": "Record the pharmaceutical dosage form (e.g., TABLET CAPSULE SYRUP) for the [procedure agent] [administered].", "core": "O", "definition": "The pharmaceutical dosage form in which the AGTRT is physically presented.", "implementationNotes": "Some drugs have multiple forms and this field may be needed to code the drug to an ATC level. However, in general, this level of detail should not be necessary except for procedure agents of interest.", "label": "AG Dose Form", "mappingInstructions": "Maps directly to the SDTMIG variable listed in the SDTMIG Target column.", "name": "AGDOSFRM", "ordinal": "14", "prompt": "Dose Form", "questionText": "What was the dose form of the [procedure/assessment agent]?", "simpleDatatype": "Char"}, {"_links": {"codelist": [{"href": "/mdr/root/ct/sdtmct/codelists/C71113", "title": "Version-agnostic anchor resource for codelist C71113", "type": "Root Value Domain"}, {"href": "/mdr/root/ct/cdashct/codelists/C78419", "title": "Version-agnostic anchor resource for codelist C78419", "type": "Root Value Domain"}], "implements": {"href": "/mdr/cdash/1-2/classes/Interventions/fields/--DOSFRQ", "title": "Dosing Frequency per Interval", "type": "Class Variable"}, "parentDomain": {"href": "/mdr/cdashig/2-2/domains/AG", "title": "Procedure Agents", "type": "CDASH Domain"}, "parentProduct": {"href": "/mdr/cdashig/2-2", "title": "Clinical Data Acquisition Standards Harmonization Implementation Guide for Human Clinical Trials Version 2.2", "type": "Implementation Guide"}, "rootItem": {"href": "/mdr/root/cdashig/domains/AG/fields/AGDOSFRQ", "title": "AG Dosing Frequency per Interval", "type": "Root Data Element"}, "sdtmigDatasetMappingTargets": [{"href": "/mdr/sdtmig/3-3/datasets/AG/variables/AGDOSFRQ", "title": "Dosing Frequency per Interval", "type": "SDTM Dataset Variable"}], "self": {"href": "/mdr/cdashig/2-2/domains/AG/fields/AGDOSFRQ", "title": "AG Dosing Frequency per Interval", "type": "Data Collection Field"}}, "completionInstructions": "Record how often the [procedure agent] was administered (e.g., ONCE).", "core": "O", "definition": "The number of doses administered during a specific interval.", "implementationNotes": "The frequency of the procedure agent. When collected, the recommendation is to collect dosing information in separate fields (e.g., AGDOSE, AGDOSEU, AGDOSFRQ) for specific and consistent data collection and to enable programmatically utilizing these data.", "label": "AG Dosing Frequency per Interval", "mappingInstructions": "Maps directly to the SDTMIG variable listed in the SDTMIG Target column.", "name": "AGDOSFRQ", "ordinal": "15", "prompt": "Frequency", "questionText": "What was the frequency of the [procedure/assessment agent]?", "simpleDatatype": "Char"}, {"_links": {"codelist": [{"href": "/mdr/root/ct/sdtmct/codelists/C66729", "title": "Version-agnostic anchor resource for codelist C66729", "type": "Root Value Domain"}, {"href": "/mdr/root/ct/cdashct/codelists/C78420", "title": "Version-agnostic anchor resource for codelist C78420", "type": "Root Value Domain"}], "implements": {"href": "/mdr/cdash/1-2/classes/Interventions/fields/--ROUTE", "title": "Route of Administration", "type": "Class Variable"}, "parentDomain": {"href": "/mdr/cdashig/2-2/domains/AG", "title": "Procedure Agents", "type": "CDASH Domain"}, "parentProduct": {"href": "/mdr/cdashig/2-2", "title": "Clinical Data Acquisition Standards Harmonization Implementation Guide for Human Clinical Trials Version 2.2", "type": "Implementation Guide"}, "rootItem": {"href": "/mdr/root/cdashig/domains/AG/fields/AGROUTE", "title": "AG Route of Administration", "type": "Root Data Element"}, "sdtmigDatasetMappingTargets": [{"href": "/mdr/sdtmig/3-3/datasets/AG/variables/AGROUTE", "title": "Route of Administration", "type": "SDTM Dataset Variable"}], "self": {"href": "/mdr/cdashig/2-2/domains/AG/fields/AGROUTE", "title": "AG Route of Administration", "type": "Data Collection Field"}}, "completionInstructions": "Provide the route of administration for the [procedure agent].", "core": "R/C", "definition": "The route of administration of the procedure/assessment agent.", "implementationNotes": "This additional information may be important to collect on the CRF when the sponsor wants to capture a procedure agent's route of administration, for purposes such as coding, and the procedure agent may have more than 1 route. Some companies may use route in coding procedure agents to be able to choose a precise preferred name and ATC code.", "label": "AG Route of Administration", "mappingInstructions": "Maps directly to the SDTMIG variable listed in the SDTMIG Target column.", "name": "AGROUTE", "ordinal": "16", "prompt": "Route", "questionText": "What was the route of administration of the [procedure/assessment agent]?", "simpleDatatype": "Char"}, {"_links": {"implements": {"href": "/mdr/cdash/1-2/classes/Timing/fields/--STDAT", "title": "Observation Start Date", "type": "Class Variable"}, "parentDomain": {"href": "/mdr/cdashig/2-2/domains/AG", "title": "Procedure Agents", "type": "CDASH Domain"}, "parentProduct": {"href": "/mdr/cdashig/2-2", "title": "Clinical Data Acquisition Standards Harmonization Implementation Guide for Human Clinical Trials Version 2.2", "type": "Implementation Guide"}, "rootItem": {"href": "/mdr/root/cdashig/domains/AG/fields/AGSTDAT", "title": "Procedure Agent Start Date", "type": "Root Data Element"}, "sdtmigDatasetMappingTargets": [{"href": "/mdr/sdtmig/3-3/datasets/AG/variables/AGSTDTC", "title": "Start Date/Time of Agent", "type": "SDTM Dataset Variable"}], "self": {"href": "/mdr/cdashig/2-2/domains/AG/fields/AGSTDAT", "title": "Procedure Agent Start Date", "type": "Data Collection Field"}}, "completionInstructions": "Record the date the procedure agent was first administered using this format (DD-MON-YYYY). Procedure agent(s) administered during the study are expected to have a complete start date.", "core": "R/C", "definition": "The start date when the procedure/assessment agent was first administered, represented in an unambiguous date format (e.g., DD-MON-YYYY).", "implementationNotes": "The assumption is that sponsors should either have a start date or will indicate that the procedure agent was started before, during or after the study period. The preferred method is to collect a complete start date. Partial dates (e.g., providing year only) for procedure agent started a considerable amount of time prior to the start of study are acceptable.", "label": "Procedure Agent Start Date", "mappingInstructions": "This does not map directly to an SDTMIG variable. For the SDTM submission dataset, concatenate all collected CDASH START DATE and TIME components and populate the SDTMIG variable AGSTDTC in ISO 8601 format.", "name": "AGSTDAT", "ordinal": "17", "prompt": "Start Date", "questionText": "What was the procedure/assessment agent] start date?", "simpleDatatype": "Char"}, {"_links": {"implements": {"href": "/mdr/cdash/1-2/classes/Timing/fields/--STTIM", "title": "Observation Start Time", "type": "Class Variable"}, "parentDomain": {"href": "/mdr/cdashig/2-2/domains/AG", "title": "Procedure Agents", "type": "CDASH Domain"}, "parentProduct": {"href": "/mdr/cdashig/2-2", "title": "Clinical Data Acquisition Standards Harmonization Implementation Guide for Human Clinical Trials Version 2.2", "type": "Implementation Guide"}, "rootItem": {"href": "/mdr/root/cdashig/domains/AG/fields/AGSTTIM", "title": "Procedure Agent Start Time", "type": "Root Data Element"}, "sdtmigDatasetMappingTargets": [{"href": "/mdr/sdtmig/3-3/datasets/AG/variables/AGSTDTC", "title": "Start Date/Time of Agent", "type": "SDTM Dataset Variable"}], "self": {"href": "/mdr/cdashig/2-2/domains/AG/fields/AGSTTIM", "title": "Procedure Agent Start Time", "type": "Data Collection Field"}}, "completionInstructions": "Record the time (as complete as possible) that the [procedure agent] was started.", "core": "R/C", "definition": "The time the procedure/assessment agent was started, represented in an ambiguous time format (e.g., h:mm:ss).", "implementationNotes": "Recommend collecting the time a procedure agent was started only when a protocol or data collection scenarios supports it. Typically, a start time is not collected unless the subject is under the direct care of the site at the time a procedure agent administered or the subject records the start time in a diary. See Mapping Relative Times from Collection to Submissions, and the SDTMIG for more information.", "label": "Procedure Agent Start Time", "mappingInstructions": "This does not map directly to an SDTMIG variable. For the SDTM submission dataset, concatenate all collected CDASH START DATE and TIME components and populate the SDTMIG variable AGSTDTC in ISO 8601 format.", "name": "AGSTTIM", "ordinal": "18", "prompt": "Start Time", "questionText": "What was the [procedure/assessment agent] start time?", "simpleDatatype": "Char"}, {"_links": {"codelist": [{"href": "/mdr/root/ct/sdtmct/codelists/C66742", "title": "Version-agnostic anchor resource for codelist C66742", "type": "Root Value Domain"}], "implements": {"href": "/mdr/cdash/1-2/classes/Timing/fields/--PRIOR", "title": "Prior", "type": "Class Variable"}, "parentDomain": {"href": "/mdr/cdashig/2-2/domains/AG", "title": "Procedure Agents", "type": "CDASH Domain"}, "parentProduct": {"href": "/mdr/cdashig/2-2", "title": "Clinical Data Acquisition Standards Harmonization Implementation Guide for Human Clinical Trials Version 2.2", "type": "Implementation Guide"}, "rootItem": {"href": "/mdr/root/cdashig/domains/AG/fields/AGPRIOR", "title": "Prior Procedure Agents", "type": "Root Data Element"}, "sdtmigDatasetMappingTargets": [{"href": "/mdr/sdtmig/3-3/datasets/AG/variables/AGSTRF", "title": "Start Relative to Reference Period", "type": "SDTM Dataset Variable"}, {"href": "/mdr/sdtmig/3-3/datasets/AG/variables/AGSTRTPT", "title": "Start Relative to Reference Time Point", "type": "SDTM Dataset Variable"}], "self": {"href": "/mdr/cdashig/2-2/domains/AG/fields/AGPRIOR", "title": "Prior Procedure Agents", "type": "Data Collection Field"}}, "completionInstructions": "Check if the [procedure agent] was started before the study.", "core": "O", "definition": "Indication the procedure/assessment agent was administered prior to [AGSTTPT] or prior to the date in DM.RFSTDTC.", "implementationNotes": "Sponsors may collect this information rather than start dates. See Mapping Relative Times from Collection to Submissions, and the SDTMIG for more information.", "label": "Prior Procedure Agents", "mappingInstructions": "This does not map directly to an SDTMIG variable. May be used to populate a value into an SDTMIG relative timing variable such as AGSTRF or AGSTRTPT. When populating AGSTRF or AGSTRTPT, if the value of the CDASH field AGPRIOR is \"Y\", a value from the CDISC CT (STENRF) may be used. When AGPRIOR refers to the Study Reference Period (defined in DM.RFSTDTC to DM.RFENDTC), the SDTMIG variable AGSTRF should be populated. When AGPRIOR is compared to another time point, the SDTMIG variables AGSTRTPT and AGSTTPT should be used. Note: AGSTRTPT must be in reference to the time-point anchor described in AGSTTPT.", "name": "AGPRIOR", "ordinal": "19", "prompt": "Prior to [AGSTTPT]; prior to study", "questionText": "Was the [procedure/assessment agent] administered prior to AGSTTPT? Was the procedure/assessment agent given prior to study start?", "simpleDatatype": "Char"}, {"_links": {"codelist": [{"href": "/mdr/root/ct/sdtmct/codelists/C66742", "title": "Version-agnostic anchor resource for codelist C66742", "type": "Root Value Domain"}], "implements": {"href": "/mdr/cdash/1-2/classes/Interventions/fields/--ONGO", "title": "Ongoing Intervention", "type": "Class Variable"}, "parentDomain": {"href": "/mdr/cdashig/2-2/domains/AG", "title": "Procedure Agents", "type": "CDASH Domain"}, "parentProduct": {"href": "/mdr/cdashig/2-2", "title": "Clinical Data Acquisition Standards Harmonization Implementation Guide for Human Clinical Trials Version 2.2", "type": "Implementation Guide"}, "rootItem": {"href": "/mdr/root/cdashig/domains/AG/fields/AGONGO", "title": "Ongoing Procedure Agents", "type": "Root Data Element"}, "sdtmigDatasetMappingTargets": [{"href": "/mdr/sdtmig/3-3/datasets/AG/variables/AGENRF", "title": "End Relative to Reference Period", "type": "SDTM Dataset Variable"}, {"href": "/mdr/sdtmig/3-3/datasets/AG/variables/AGENRTPT", "title": "End Relative to Reference Time Point", "type": "SDTM Dataset Variable"}], "self": {"href": "/mdr/cdashig/2-2/domains/AG/fields/AGONGO", "title": "Ongoing Procedure Agents", "type": "Data Collection Field"}}, "completionInstructions": "Record the [procedure agent] as ongoing if the subject has not stopped taking the procedure agent at [the time point defined by the study]. If the procedure agent is ongoing, the end date should be left blank.", "core": "R/C", "definition": "Indication the procedure/assessment agent is ongoing when no end date is provided.", "implementationNotes": "This box should be checked to indicate that theprocedure agent has not stopped at the time of data collection. It is expected that every recorded procedure agent should have either an end date or be checked as ongoing, but not both. However, in cases where ongoing procedure agents are not permitted, it may not be necessary to include an Ongoing field in the CRF. See Mapping Relative Times from Collection to Submission, for more information about collecting relative date/time; see the SDTMIG for information about mapping relative times.", "label": "Ongoing Procedure Agents", "mappingInstructions": "This does not map directly to an SDTMIG variable. May be used to populate a value into an SDTMIG relative timing variable such as AGENRF or AGENRTPT. When populating AGENRF, if the value of AGONGO is \"Y\", the values of \"DURING\", \"AFTER\" or \"DURING/AFTER\" may be used. When populating AGENRTPT, if the value of AGONGO is \"Y\", the value of \"ONGOING\" may be used. When AGONGO refers to the Study Reference Period (defined in DM.RFSTDTC to DM.RFENDTC), the SDTMIG variable AGENRF should be populated. When AGONGO is used in conjunction with another time point, the SDTMIG variables AGENRTPT and AGENTPT should be used. Note: AGENRTPT must be in reference to the time-point anchor described in AGENTPT.", "name": "AGONGO", "ordinal": "20", "prompt": "Ongoing (as of [the study-specific time point or period])", "questionText": "Was the [procedure/assessment agent] ongoing (as of the [study-specific time point or period])?", "simpleDatatype": "Char"}, {"_links": {"implements": {"href": "/mdr/cdash/1-2/classes/Timing/fields/--ENDAT", "title": "Observation End Date", "type": "Class Variable"}, "parentDomain": {"href": "/mdr/cdashig/2-2/domains/AG", "title": "Procedure Agents", "type": "CDASH Domain"}, "parentProduct": {"href": "/mdr/cdashig/2-2", "title": "Clinical Data Acquisition Standards Harmonization Implementation Guide for Human Clinical Trials Version 2.2", "type": "Implementation Guide"}, "rootItem": {"href": "/mdr/root/cdashig/domains/AG/fields/AGENDAT", "title": "Procedure Agents End Date", "type": "Root Data Element"}, "sdtmigDatasetMappingTargets": [{"href": "/mdr/sdtmig/3-3/datasets/AG/variables/AGENDTC", "title": "End Date/Time of Agent", "type": "SDTM Dataset Variable"}], "self": {"href": "/mdr/cdashig/2-2/domains/AG/fields/AGENDAT", "title": "Procedure Agents End Date", "type": "Data Collection Field"}}, "completionInstructions": "Record the date the procedure agent was topped using this format (DD-MM-YYYY). If the subject has not stopped [administering/being administered] the procedure agent leave this field blank.", "core": "R/C", "definition": "The date the procedure/assessment agent was stopped/ended, represented in an unambiguous date format (e.g. DD-MON-YYYY).", "implementationNotes": "The assumption is that sponsors should either have an end date or will indicate that the procedure agent was ongoing at the time of collection or at the end of the study. However, in cases where the end date can be determined from dates collected elsewhere in the CRF it is not necessary to include an end date in the CRF. For example, if all procedure agents are administered only once during a trial, the end date will be the same as the start date.", "label": "Procedure Agents End Date", "mappingInstructions": "This does not map directly to an SDTMIG variable. For the SDTM submission dataset, concatenate all collected CDASH END DATE and TIME components and populate the SDTMIG variable CMENDTC in ISO 8601 format.", "name": "AGENDAT", "ordinal": "21", "prompt": "End Date", "questionText": "What was the [procedure/assessment agent's] end date?", "simpleDatatype": "Char"}, {"_links": {"implements": {"href": "/mdr/cdash/1-2/classes/Timing/fields/--ENTIM", "title": "Observation End Time", "type": "Class Variable"}, "parentDomain": {"href": "/mdr/cdashig/2-2/domains/AG", "title": "Procedure Agents", "type": "CDASH Domain"}, "parentProduct": {"href": "/mdr/cdashig/2-2", "title": "Clinical Data Acquisition Standards Harmonization Implementation Guide for Human Clinical Trials Version 2.2", "type": "Implementation Guide"}, "rootItem": {"href": "/mdr/root/cdashig/domains/AG/fields/AGENTIM", "title": "Procedure Agents End Time", "type": "Root Data Element"}, "sdtmigDatasetMappingTargets": [{"href": "/mdr/sdtmig/3-3/datasets/AG/variables/AGENDTC", "title": "End Date/Time of Agent", "type": "SDTM Dataset Variable"}], "self": {"href": "/mdr/cdashig/2-2/domains/AG/fields/AGENTIM", "title": "Procedure Agents End Time", "type": "Data Collection Field"}}, "completionInstructions": "Record the time (as complete as possible) that the procedure agent was stopped.", "core": "R/C", "definition": "The time the concomitant medication/treatment/therapy was started, represented in an unambiguous time format (e.g., hh:mm:ss).", "implementationNotes": "Recommend collecting the time a procedure agent was ended only when a protocol or data collection scenarios require it or the subject records the end time in a diary. Typically, an end time is not collected unless the subject is under the direct care of the site at the time a procedure agent is stopped.", "label": "Procedure Agents End Time", "mappingInstructions": "This does not map directly to an SDTMIG variable. For the SDTM submission dataset, concatenate all collected CDASH END DATE and TIME components and populate the SDTMIG variable AGENDTC in ISO 8601 format.", "name": "AGENTIM", "ordinal": "22", "prompt": "End Time", "questionText": "What was the [procedure/assessment agent's] end time?", "simpleDatatype": "Char"}, {"_links": {"implements": {"href": "/mdr/cdash/1-2/classes/Interventions/fields/--DECOD", "title": "Standardized Treatment Name", "type": "Class Variable"}, "parentDomain": {"href": "/mdr/cdashig/2-2/domains/AG", "title": "Procedure Agents", "type": "CDASH Domain"}, "parentProduct": {"href": "/mdr/cdashig/2-2", "title": "Clinical Data Acquisition Standards Harmonization Implementation Guide for Human Clinical Trials Version 2.2", "type": "Implementation Guide"}, "rootItem": {"href": "/mdr/root/cdashig/domains/AG/fields/AGDECOD", "title": "Standardized Agent Name", "type": "Root Data Element"}, "sdtmigDatasetMappingTargets": [{"href": "/mdr/sdtmig/3-3/datasets/AG/variables/AGDECOD", "title": "Standardized Agent Name", "type": "SDTM Dataset Variable"}], "self": {"href": "/mdr/cdashig/2-2/domains/AG/fields/AGDECOD", "title": "Standardized Agent Name", "type": "Data Collection Field"}}, "core": "O", "definition": "The dictionary or sponsor-defined standardized text description of the topic variable (AGTRT) or the modified topic variable (AGMODIFY), if applicable.", "implementationNotes": "This is typically not a data collection field that will appear on the CRF. If the sponsor chooses to code the procedure, the sponsor will populate this through the coding process. If PRPRESP is used, and the information about a specific standardized procedure name is being solicited, the data from AGTRT may map directly to the SDTMIG AGDECOD variable.", "label": "Standardized Agent Name", "mappingInstructions": "Maps directly to the SDTMIG variable listed in the SDTMIG Target column.", "name": "AGDECOD", "ordinal": "23", "simpleDatatype": "Char"}, {"_links": {"implements": {"href": "/mdr/cdash/1-2/classes/Interventions/fields/--CLAS", "title": "Class", "type": "Class Variable"}, "parentDomain": {"href": "/mdr/cdashig/2-2/domains/AG", "title": "Procedure Agents", "type": "CDASH Domain"}, "parentProduct": {"href": "/mdr/cdashig/2-2", "title": "Clinical Data Acquisition Standards Harmonization Implementation Guide for Human Clinical Trials Version 2.2", "type": "Implementation Guide"}, "rootItem": {"href": "/mdr/root/cdashig/domains/AG/fields/AGCLAS", "title": "AG Agent Class", "type": "Root Data Element"}, "sdtmigDatasetMappingTargets": [{"href": "/mdr/sdtmig/3-3/datasets/AG/variables/AGCLAS", "title": "Agent Class", "type": "SDTM Dataset Variable"}], "self": {"href": "/mdr/cdashig/2-2/domains/AG/fields/AGCLAS", "title": "AG Agent Class", "type": "Data Collection Field"}}, "core": "O", "definition": "The class for the agent, often obtained from a coding dictionary.", "implementationNotes": "This field does not typically appear on the CRF. Sponsors will populate this through the coding process. This would generally be the class used for analysis.", "label": "AG Agent Class", "mappingInstructions": "Maps directly to the SDTMIG variable listed in the SDTMIG Target column.", "name": "AGCLAS", "ordinal": "24", "simpleDatatype": "Char"}, {"_links": {"implements": {"href": "/mdr/cdash/1-2/classes/Interventions/fields/--CLASCD", "title": "Class Code", "type": "Class Variable"}, "parentDomain": {"href": "/mdr/cdashig/2-2/domains/AG", "title": "Procedure Agents", "type": "CDASH Domain"}, "parentProduct": {"href": "/mdr/cdashig/2-2", "title": "Clinical Data Acquisition Standards Harmonization Implementation Guide for Human Clinical Trials Version 2.2", "type": "Implementation Guide"}, "rootItem": {"href": "/mdr/root/cdashig/domains/AG/fields/AGCLASCD", "title": "AG Agent Class Code", "type": "Root Data Element"}, "sdtmigDatasetMappingTargets": [{"href": "/mdr/sdtmig/3-3/datasets/AG/variables/AGCLASCD", "title": "Agent Class Code", "type": "SDTM Dataset Variable"}], "self": {"href": "/mdr/cdashig/2-2/domains/AG/fields/AGCLASCD", "title": "AG Agent Class Code", "type": "Data Collection Field"}}, "core": "O", "definition": "The assigned dictionary code for the class of agent.", "implementationNotes": "This field does not typically appear on the CRF. Sponsors will populate this through the coding process. This would generally be the class code used for analysis.", "label": "AG Agent Class Code", "mappingInstructions": "Maps directly to the SDTMIG variable listed in the SDTMIG Target column.", "name": "AGCLASCD", "ordinal": "25", "simpleDatatype": "Num"}], "label": "Procedure Agents", "name": "AG", "ordinal": "2"}
