{"_links": {"parentClass": {"href": "/mdr/cdashig/2-2/classes/Events", "title": "Events", "type": "Class"}, "parentProduct": {"href": "/mdr/cdashig/2-2", "title": "Clinical Data Acquisition Standards Harmonization Implementation Guide for Human Clinical Trials Version 2.2", "type": "Implementation Guide"}, "priorVersion": {"href": "/mdr/cdashig/2-1/domains/DV", "title": "Protocol Deviations", "type": "CDASH Domain"}, "self": {"href": "/mdr/cdashig/2-2/domains/DV", "title": "Protocol Deviations", "type": "CDASH Domain"}}, "description": "An events domain that contains protocol violations and deviations during the course of the study. (Source: CDISC Controlled Terminology, DOMAIN, C49585, 2021-06-25)", "fields": [{"_links": {"implements": {"href": "/mdr/cdash/1-2/classes/Identifiers/fields/STUDYID", "title": "Study Identifier", "type": "Class Variable"}, "parentDomain": {"href": "/mdr/cdashig/2-2/domains/DV", "title": "Protocol Deviations", "type": "CDASH Domain"}, "parentProduct": {"href": "/mdr/cdashig/2-2", "title": "Clinical Data Acquisition Standards Harmonization Implementation Guide for Human Clinical Trials Version 2.2", "type": "Implementation Guide"}, "priorVersion": {"href": "/mdr/cdashig/2-1/domains/DV/fields/STUDYID", "title": "Study Identifier", "type": "Data Collection Field"}, "rootItem": {"href": "/mdr/root/cdashig/domains/DV/fields/STUDYID", "title": "Study Identifier", "type": "Root Data Element"}, "sdtmigDatasetMappingTargets": [{"href": "/mdr/sdtmig/3-3/datasets/DV/variables/STUDYID", "title": "Study Identifier", "type": "SDTM Dataset Variable"}], "self": {"href": "/mdr/cdashig/2-2/domains/DV/fields/STUDYID", "title": "Study Identifier", "type": "Data Collection Field"}}, "core": "HR", "definition": "A unique identifier for a study.", "implementationNotes": "Although this field is not typically captured on a CRF, it should be displayed clearly on the CRF and/or in the EDC system. This field can be included in the database or populated during SDTM-based dataset creation before submission.", "label": "Study Identifier", "mappingInstructions": "Maps directly to the SDTMIG variable listed in the SDTMIG Target column.", "name": "STUDYID", "ordinal": "1", "prompt": "[Protocol/Study]", "questionText": "What is the study identifier?", "simpleDatatype": "Char"}, {"_links": {"implements": {"href": "/mdr/cdash/1-2/classes/Identifiers/fields/SITEID", "title": "Study Site Identifier", "type": "Class Variable"}, "parentDomain": {"href": "/mdr/cdashig/2-2/domains/DV", "title": "Protocol Deviations", "type": "CDASH Domain"}, "parentProduct": {"href": "/mdr/cdashig/2-2", "title": "Clinical Data Acquisition Standards Harmonization Implementation Guide for Human Clinical Trials Version 2.2", "type": "Implementation Guide"}, "priorVersion": {"href": "/mdr/cdashig/2-1/domains/DV/fields/SITEID", "title": "Study Site Identifier", "type": "Data Collection Field"}, "rootItem": {"href": "/mdr/root/cdashig/domains/DV/fields/SITEID", "title": "Study Site Identifier", "type": "Root Data Element"}, "sdtmigDatasetMappingTargets": [{"href": "/mdr/sdtmig/3-3/datasets/DM/variables/SITEID", "title": "Study Site Identifier", "type": "SDTM Dataset Variable"}], "self": {"href": "/mdr/cdashig/2-2/domains/DV/fields/SITEID", "title": "Study Site Identifier", "type": "Data Collection Field"}}, "core": "HR", "definition": "A unique identifier for a site within a study.", "implementationNotes": "Paper: This is typically pre-printed in the header of each CRF page for single-site studies. For studies with multiple sites, this field may be left blank so that the number can be recorded by the site, or it may be pre-printed on the CRFs that are shipped to each site. \\n EDC: This should be pre-populated.", "label": "Study Site Identifier", "mappingInstructions": "Maps directly to the SDTMIG variable listed in the SDTMIG Target column.", "name": "SITEID", "ordinal": "2", "prompt": "Site (Identifier)", "questionText": "What is the site identifier?", "simpleDatatype": "Char"}, {"_links": {"implements": {"href": "/mdr/cdash/1-2/classes/Identifiers/fields/SUBJID", "title": "Subject Identifier for the Study", "type": "Class Variable"}, "parentDomain": {"href": "/mdr/cdashig/2-2/domains/DV", "title": "Protocol Deviations", "type": "CDASH Domain"}, "parentProduct": {"href": "/mdr/cdashig/2-2", "title": "Clinical Data Acquisition Standards Harmonization Implementation Guide for Human Clinical Trials Version 2.2", "type": "Implementation Guide"}, "priorVersion": {"href": "/mdr/cdashig/2-1/domains/DV/fields/SUBJID", "title": "Subject Identifier for the Study", "type": "Data Collection Field"}, "rootItem": {"href": "/mdr/root/cdashig/domains/DV/fields/SUBJID", "title": "Subject Identifier for the Study", "type": "Root Data Element"}, "sdtmigDatasetMappingTargets": [{"href": "/mdr/sdtmig/3-3/datasets/DM/variables/SUBJID", "title": "Subject Identifier for the Study", "type": "SDTM Dataset Variable"}], "self": {"href": "/mdr/cdashig/2-2/domains/DV/fields/SUBJID", "title": "Subject Identifier for the Study", "type": "Data Collection Field"}}, "completionInstructions": "Record the identifier for the subject.", "core": "HR", "definition": "A unique subject identifier within a site and a study.", "implementationNotes": "Paper: This is typically recorded in the header of each CRF page. EDC: The subject identifiers may be system-generated. This CDASH variable is typically collected in all CDASH domains. However, this CDASH variable is populated only in the SDTMIG DM domain. For more information, refer to the SDTMIG.", "label": "Subject Identifier for the Study", "mappingInstructions": "Maps directly to the SDTMIG variable listed in the SDTMIG Target column.", "name": "SUBJID", "ordinal": "3", "prompt": "[Subject/Participant] (Identifier)", "questionText": "What [is/was] the (study) [subject/participant] identifier?", "simpleDatatype": "Char"}, {"_links": {"implements": {"href": "/mdr/cdash/1-2/classes/Events/fields/--CAT", "title": "Category", "type": "Class Variable"}, "parentDomain": {"href": "/mdr/cdashig/2-2/domains/DV", "title": "Protocol Deviations", "type": "CDASH Domain"}, "parentProduct": {"href": "/mdr/cdashig/2-2", "title": "Clinical Data Acquisition Standards Harmonization Implementation Guide for Human Clinical Trials Version 2.2", "type": "Implementation Guide"}, "priorVersion": {"href": "/mdr/cdashig/2-1/domains/DV/fields/DVCAT", "title": "Category for Protocol Deviation", "type": "Data Collection Field"}, "rootItem": {"href": "/mdr/root/cdashig/domains/DV/fields/DVCAT", "title": "Category for Protocol Deviation", "type": "Root Data Element"}, "sdtmigDatasetMappingTargets": [{"href": "/mdr/sdtmig/3-3/datasets/DV/variables/DVCAT", "title": "Category for Protocol Deviation", "type": "SDTM Dataset Variable"}], "self": {"href": "/mdr/cdashig/2-2/domains/DV/fields/DVCAT", "title": "Category for Protocol Deviation", "type": "Data Collection Field"}}, "completionInstructions": "Record the deviation category, if not pre-printed on the CRF.", "core": "O", "definition": "A grouping of topic-variable values based on user-defined characteristics.", "implementationNotes": "Sponsor-defined controlled terminology. This would most commonly be either a heading or a pre-printed category value on the CRF, not a question to which the site would provide an answer. If a question is asked, the response would typically be a sponsor-defined codelist. If the form is laid out as a grid, then words such as \"Category\" can be included as the column header.", "label": "Category for Protocol Deviation", "mappingInstructions": "Maps directly to the SDTMIG variable listed in the SDTMIG Target column.", "name": "DVCAT", "ordinal": "4", "prompt": "[Protocol Deviation Category]; NULL", "questionText": "What is the category of the protocol deviation?", "simpleDatatype": "Char"}, {"_links": {"implements": {"href": "/mdr/cdash/1-2/classes/Events/fields/--SCAT", "title": "Subcategory", "type": "Class Variable"}, "parentDomain": {"href": "/mdr/cdashig/2-2/domains/DV", "title": "Protocol Deviations", "type": "CDASH Domain"}, "parentProduct": {"href": "/mdr/cdashig/2-2", "title": "Clinical Data Acquisition Standards Harmonization Implementation Guide for Human Clinical Trials Version 2.2", "type": "Implementation Guide"}, "priorVersion": {"href": "/mdr/cdashig/2-1/domains/DV/fields/DVSCAT", "title": "Subcategory for Protocol Deviation", "type": "Data Collection Field"}, "rootItem": {"href": "/mdr/root/cdashig/domains/DV/fields/DVSCAT", "title": "Subcategory for Protocol Deviation", "type": "Root Data Element"}, "sdtmigDatasetMappingTargets": [{"href": "/mdr/sdtmig/3-3/datasets/DV/variables/DVSCAT", "title": "Subcategory for Protocol Deviation", "type": "SDTM Dataset Variable"}], "self": {"href": "/mdr/cdashig/2-2/domains/DV/fields/DVSCAT", "title": "Subcategory for Protocol Deviation", "type": "Data Collection Field"}}, "completionInstructions": "Record the deviation event subcategory, if not pre-printed on the CRF.", "core": "O", "definition": "A sub-division of the DVCAT values based on user-defined characteristics.", "implementationNotes": "Sponsor-defined controlled terminology. This would most commonly be pre-printed on the CRF or screen and pre-populated in the data management system. This is not typically a question to which the site would provide an answer. DVSCAT can only be used if there is an DVCAT, and it must be a subcategorization of DVCAT.", "label": "Subcategory for Protocol Deviation", "mappingInstructions": "Maps directly to the SDTMIG variable listed in the SDTMIG Target column.", "name": "DVSCAT", "ordinal": "5", "prompt": "[Protocol Deviation Subcategory]; NULL", "questionText": "What is the subcategory of the protocol deviation?", "simpleDatatype": "Char"}, {"_links": {"codelist": [{"href": "/mdr/root/ct/sdtmct/codelists/C66742", "title": "Version-agnostic anchor resource for codelist C66742", "type": "Root Value Domain"}], "implements": {"href": "/mdr/cdash/1-2/classes/Events/fields/--YN", "title": "Any [Event]", "type": "Class Variable"}, "parentDomain": {"href": "/mdr/cdashig/2-2/domains/DV", "title": "Protocol Deviations", "type": "CDASH Domain"}, "parentProduct": {"href": "/mdr/cdashig/2-2", "title": "Clinical Data Acquisition Standards Harmonization Implementation Guide for Human Clinical Trials Version 2.2", "type": "Implementation Guide"}, "priorVersion": {"href": "/mdr/cdashig/2-1/domains/DV/fields/DVYN", "title": "Any Protocol Deviation", "type": "Data Collection Field"}, "rootItem": {"href": "/mdr/root/cdashig/domains/DV/fields/DVYN", "title": "Any Protocol Deviation", "type": "Root Data Element"}, "self": {"href": "/mdr/cdashig/2-2/domains/DV/fields/DVYN", "title": "Any Protocol Deviation", "type": "Data Collection Field"}}, "completionInstructions": "Enter Yes if a protocol deviation occurred and No if none occurred. Ensure that any adverse event which triggers a protocol deviation (e.g., concomitant medication use, newly discovered medical history) is noted in the respective CRF.", "core": "O", "definition": "An indication of whether there were any protocol deviations.", "implementationNotes": "The intent/purpose of collecting this field is to help with data cleaning and monitoring. It provides verification that all other fields on the CRF were deliberately left blank.", "label": "Any Protocol Deviation", "mappingInstructions": "Does not map to an SDTMIG variable. The SDTM annotated CRF indicates that this field is NOT SUBMITTED.", "name": "DVYN", "ordinal": "6", "prompt": "Any Deviations", "questionText": "Were there any protocol deviations?", "simpleDatatype": "Char"}, {"_links": {"implements": {"href": "/mdr/cdash/1-2/classes/Events/fields/--DECOD", "title": "Dictionary-Derived Term", "type": "Class Variable"}, "parentDomain": {"href": "/mdr/cdashig/2-2/domains/DV", "title": "Protocol Deviations", "type": "CDASH Domain"}, "parentProduct": {"href": "/mdr/cdashig/2-2", "title": "Clinical Data Acquisition Standards Harmonization Implementation Guide for Human Clinical Trials Version 2.2", "type": "Implementation Guide"}, "priorVersion": {"href": "/mdr/cdashig/2-1/domains/DV/fields/DVDECOD", "title": "Protocol Deviation Coded Term", "type": "Data Collection Field"}, "rootItem": {"href": "/mdr/root/cdashig/domains/DV/fields/DVDECOD", "title": "Protocol Deviation Coded Term", "type": "Root Data Element"}, "sdtmigDatasetMappingTargets": [{"href": "/mdr/sdtmig/3-3/datasets/DV/variables/DVDECOD", "title": "Protocol Deviation Coded Term", "type": "SDTM Dataset Variable"}], "self": {"href": "/mdr/cdashig/2-2/domains/DV/fields/DVDECOD", "title": "Protocol Deviation Coded Term", "type": "Data Collection Field"}}, "completionInstructions": "Record protocol deviations identified and/or select the appropriate code from the list of protocol deviation terms.", "core": "R/C", "definition": "The sponsor-defined standardized text for the name of the protocol deviation.", "implementationNotes": "DVTERM and DVDECOD may have the same value. If the CRF is collecting protocol deviations using a codelist of responses, then DVDECOD should be used to store the codelist response. Sponsors must use either DVDECOD or DVTERM on the CRF and, in some cases, both may be used. For example, if the CRF collects \"Specify, Other\" or similar additional free-text descriptions of codelist items, then DVTERM should be used to store the detailed descriptive text.", "label": "Protocol Deviation Coded Term", "mappingInstructions": "Maps directly to the SDTMIG variable listed in the SDTMIG Target column.", "name": "DVDECOD", "ordinal": "7", "prompt": "(Standardized) Protocol Deviation (Term)", "questionText": "What was the (standardized) protocol deviation (term/(code)?", "simpleDatatype": "Char"}, {"_links": {"implements": {"href": "/mdr/cdash/1-2/classes/Events/fields/--TERM", "title": "Reported Term", "type": "Class Variable"}, "parentDomain": {"href": "/mdr/cdashig/2-2/domains/DV", "title": "Protocol Deviations", "type": "CDASH Domain"}, "parentProduct": {"href": "/mdr/cdashig/2-2", "title": "Clinical Data Acquisition Standards Harmonization Implementation Guide for Human Clinical Trials Version 2.2", "type": "Implementation Guide"}, "priorVersion": {"href": "/mdr/cdashig/2-1/domains/DV/fields/DVTERM", "title": "Protocol Deviation Term", "type": "Data Collection Field"}, "rootItem": {"href": "/mdr/root/cdashig/domains/DV/fields/DVTERM", "title": "Protocol Deviation Term", "type": "Root Data Element"}, "sdtmigDatasetMappingTargets": [{"href": "/mdr/sdtmig/3-3/datasets/DV/variables/DVTERM", "title": "Protocol Deviation Term", "type": "SDTM Dataset Variable"}], "self": {"href": "/mdr/cdashig/2-2/domains/DV/fields/DVTERM", "title": "Protocol Deviation Term", "type": "Data Collection Field"}}, "completionInstructions": "Record the appropriate code from the list of protocol deviation terms.", "core": "R/C", "definition": "The reported or pre-specified name of the protocol deviation.", "implementationNotes": "DVTERM and DVDECOD may have the same value. If the CRF is collecting protocol deviations using a free-text field, then DVTERM should be used to store the free-text response. Sponsors may use either DVDECOD or DVTERM on the CRF, but a value in DVTERM is required in the SDTM-based datasets.", "label": "Protocol Deviation Term", "mappingInstructions": "Maps directly to the SDTMIG variable listed in the SDTMIG Target column.", "name": "DVTERM", "ordinal": "8", "prompt": "(Specify) Protocol Deviation", "questionText": "What was the protocol deviation term?", "simpleDatatype": "Char"}, {"_links": {"implements": {"href": "/mdr/cdash/1-2/classes/Timing/fields/--STDAT", "title": "Observation Start Date", "type": "Class Variable"}, "parentDomain": {"href": "/mdr/cdashig/2-2/domains/DV", "title": "Protocol Deviations", "type": "CDASH Domain"}, "parentProduct": {"href": "/mdr/cdashig/2-2", "title": "Clinical Data Acquisition Standards Harmonization Implementation Guide for Human Clinical Trials Version 2.2", "type": "Implementation Guide"}, "priorVersion": {"href": "/mdr/cdashig/2-1/domains/DV/fields/DVSTDAT", "title": "Deviation Start Date", "type": "Data Collection Field"}, "rootItem": {"href": "/mdr/root/cdashig/domains/DV/fields/DVSTDAT", "title": "Deviation Start Date", "type": "Root Data Element"}, "sdtmigDatasetMappingTargets": [{"href": "/mdr/sdtmig/3-3/datasets/DV/variables/DVSTDTC", "title": "Start Date/Time of Deviation", "type": "SDTM Dataset Variable"}], "self": {"href": "/mdr/cdashig/2-2/domains/DV/fields/DVSTDAT", "title": "Deviation Start Date", "type": "Data Collection Field"}}, "completionInstructions": "Record the start date that the protocol deviation using this format (DD-MON-YYYY). This should be the start or occurrence of the protocol deviation, not the date it was discovered or reported.", "core": "O", "definition": "The start date of deviation, represented in an unambiguous date format (e.g., DD-MON-YYYY).", "implementationNotes": "This may be derived if not collected on a CRF.", "label": "Deviation Start Date", "mappingInstructions": "This does not map directly to an SDTMIG variable. For the SDTM submission dataset, concatenate all collected CDASH START DATE and TIME components and populate the SDTMIG variable DVSTDTC in ISO 8601 format.", "name": "DVSTDAT", "ordinal": "9", "prompt": "Start Date", "questionText": "What was the protocol deviation start date?", "simpleDatatype": "Char"}, {"_links": {"implements": {"href": "/mdr/cdash/1-2/classes/Timing/fields/--STTIM", "title": "Observation Start Time", "type": "Class Variable"}, "parentDomain": {"href": "/mdr/cdashig/2-2/domains/DV", "title": "Protocol Deviations", "type": "CDASH Domain"}, "parentProduct": {"href": "/mdr/cdashig/2-2", "title": "Clinical Data Acquisition Standards Harmonization Implementation Guide for Human Clinical Trials Version 2.2", "type": "Implementation Guide"}, "priorVersion": {"href": "/mdr/cdashig/2-1/domains/DV/fields/DVSTTIM", "title": "Deviation Start Time", "type": "Data Collection Field"}, "rootItem": {"href": "/mdr/root/cdashig/domains/DV/fields/DVSTTIM", "title": "Deviation Start Time", "type": "Root Data Element"}, "sdtmigDatasetMappingTargets": [{"href": "/mdr/sdtmig/3-3/datasets/DV/variables/DVSTDTC", "title": "Start Date/Time of Deviation", "type": "SDTM Dataset Variable"}], "self": {"href": "/mdr/cdashig/2-2/domains/DV/fields/DVSTTIM", "title": "Deviation Start Time", "type": "Data Collection Field"}}, "completionInstructions": "If appropriate, record the start time (as complete as possible) of the protocol deviation in an unambiguous time format (e.g., hh:mm:ss). This should be the start or occurrence of the protocol deviation, not the time it was discovered or reported.", "core": "O", "definition": "The start time of the deviation, represented in an unambiguous time format (e.g., hh:mm:ss).", "label": "Deviation Start Time", "mappingInstructions": "This does not map directly to an SDTMIG variable. For the SDTM submission dataset, concatenate all collected CDASH START DATE and TIME components and populate the SDTMIG variable DVSTDTC in ISO 8601 format.", "name": "DVSTTIM", "ordinal": "10", "prompt": "Start Time", "questionText": "What was the protocol deviation start time?", "simpleDatatype": "Char"}, {"_links": {"implements": {"href": "/mdr/cdash/1-2/classes/Timing/fields/--ENDAT", "title": "Observation End Date", "type": "Class Variable"}, "parentDomain": {"href": "/mdr/cdashig/2-2/domains/DV", "title": "Protocol Deviations", "type": "CDASH Domain"}, "parentProduct": {"href": "/mdr/cdashig/2-2", "title": "Clinical Data Acquisition Standards Harmonization Implementation Guide for Human Clinical Trials Version 2.2", "type": "Implementation Guide"}, "priorVersion": {"href": "/mdr/cdashig/2-1/domains/DV/fields/DVENDAT", "title": "Deviation End Date", "type": "Data Collection Field"}, "rootItem": {"href": "/mdr/root/cdashig/domains/DV/fields/DVENDAT", "title": "Deviation End Date", "type": "Root Data Element"}, "sdtmigDatasetMappingTargets": [{"href": "/mdr/sdtmig/3-3/datasets/DV/variables/DVENDTC", "title": "End Date/Time of Deviation", "type": "SDTM Dataset Variable"}], "self": {"href": "/mdr/cdashig/2-2/domains/DV/fields/DVENDAT", "title": "Deviation End Date", "type": "Data Collection Field"}}, "completionInstructions": "Record the end date of the protocol deviation using this format (DD-MON-YYYY). This should be the date the protocol deviation stopped, not the date it was discovered or reported.", "core": "O", "definition": "The end date of the deviation, represented in an unambiguous date format (e.g., DD-MON-YYYY).", "label": "Deviation End Date", "mappingInstructions": "This does not map directly to an SDTMIG variable. For the SDTM submission dataset, concatenate all collected CDASH END DATE and TIME components and populate the SDTMIG variable DVENDTC in ISO 8601 format.", "name": "DVENDAT", "ordinal": "11", "prompt": "End Date", "questionText": "What was the protocol deviation end date?", "simpleDatatype": "Char"}, {"_links": {"implements": {"href": "/mdr/cdash/1-2/classes/Timing/fields/--ENTIM", "title": "Observation End Time", "type": "Class Variable"}, "parentDomain": {"href": "/mdr/cdashig/2-2/domains/DV", "title": "Protocol Deviations", "type": "CDASH Domain"}, "parentProduct": {"href": "/mdr/cdashig/2-2", "title": "Clinical Data Acquisition Standards Harmonization Implementation Guide for Human Clinical Trials Version 2.2", "type": "Implementation Guide"}, "priorVersion": {"href": "/mdr/cdashig/2-1/domains/DV/fields/DVENTIM", "title": "Deviation End Time", "type": "Data Collection Field"}, "rootItem": {"href": "/mdr/root/cdashig/domains/DV/fields/DVENTIM", "title": "Deviation End Time", "type": "Root Data Element"}, "sdtmigDatasetMappingTargets": [{"href": "/mdr/sdtmig/3-3/datasets/DV/variables/DVENDTC", "title": "End Date/Time of Deviation", "type": "SDTM Dataset Variable"}], "self": {"href": "/mdr/cdashig/2-2/domains/DV/fields/DVENTIM", "title": "Deviation End Time", "type": "Data Collection Field"}}, "completionInstructions": "If appropriate, record the end time (as complete as possible) of the protocol deviation in an unambiguous time format (e.g., hh:mm:ss). This should be the time the protocol deviation stopped, not the time it was discovered or reported.", "core": "O", "definition": "The end time of the deviation, represented in an unambiguous time format (e.g., hh:mm:ss).", "label": "Deviation End Time", "mappingInstructions": "This does not map directly to an SDTMIG variable. For the SDTM submission dataset, concatenate all collected CDASH END DATE and TIME components and populate the SDTMIG variable DVENDTC in ISO 8601 format.", "name": "DVENTIM", "ordinal": "12", "prompt": "End Time", "questionText": "What was the protocol deviation end time?", "simpleDatatype": "Char"}, {"_links": {"implements": {"href": "/mdr/cdash/1-2/classes/Identifiers/fields/--SPID", "title": "Sponsor-Defined Identifier", "type": "Class Variable"}, "parentDomain": {"href": "/mdr/cdashig/2-2/domains/DV", "title": "Protocol Deviations", "type": "CDASH Domain"}, "parentProduct": {"href": "/mdr/cdashig/2-2", "title": "Clinical Data Acquisition Standards Harmonization Implementation Guide for Human Clinical Trials Version 2.2", "type": "Implementation Guide"}, "priorVersion": {"href": "/mdr/cdashig/2-1/domains/DV/fields/DVSPID", "title": "DV Sponsor-Defined Identifier", "type": "Data Collection Field"}, "rootItem": {"href": "/mdr/root/cdashig/domains/DV/fields/DVSPID", "title": "DV Sponsor-Defined Identifier", "type": "Root Data Element"}, "sdtmigDatasetMappingTargets": [{"href": "/mdr/sdtmig/3-3/datasets/DV/variables/DVSPID", "title": "Sponsor-Defined Identifier", "type": "SDTM Dataset Variable"}], "self": {"href": "/mdr/cdashig/2-2/domains/DV/fields/DVSPID", "title": "DV Sponsor-Defined Identifier", "type": "Data Collection Field"}}, "completionInstructions": "If collected on the CRF, the sponsor may insert instructions to ensure each record has a unique identifier.", "core": "O", "definition": "A sponsor-defined identifier. In CDASH, this is typically used for pre-printed or auto-generated numbers on the CRF, or any other type of identifier that does not already have a defined CDASH identifier field.", "implementationNotes": "Because SPID is a sponsor-defined identifier, conformance to Question Text or Item Prompt is not applicable. Typically used as an identifier in a data query to communicate clearly to the site the specific record in question or to reconcile data. May be used to record pre-printed number (e.g. line number, record number) on the CRF. This field may be populated by the sponsor's data collection system.", "label": "DV Sponsor-Defined Identifier", "mappingInstructions": "Maps directly to the SDTMIG variable listed in the SDTMIG Target column. May be used to create RELREC to link this record with a record in another domain.", "name": "DVSPID", "ordinal": "13", "prompt": "[Sponsor defined]", "questionText": "[Sponsor-defined question]", "simpleDatatype": "Char"}], "label": "Protocol Deviations", "name": "DV", "ordinal": "10"}
