{"_links": {"parentClass": {"href": "/mdr/cdashig/2-2/classes/Interventions", "title": "Interventions", "type": "Class"}, "parentProduct": {"href": "/mdr/cdashig/2-2", "title": "Clinical Data Acquisition Standards Harmonization Implementation Guide for Human Clinical Trials Version 2.2", "type": "Implementation Guide"}, "priorVersion": {"href": "/mdr/cdashig/2-1/domains/EC", "title": "Exposure as Collected", "type": "CDASH Domain"}, "self": {"href": "/mdr/cdashig/2-2/domains/EC", "title": "Exposure as Collected", "type": "CDASH Domain"}}, "description": "An interventions domain that contains information about protocol-specified study treatment administrations, as collected. (Source: CDISC Controlled Terminology, DOMAIN, C117466, 2021-06-25)", "fields": [{"_links": {"implements": {"href": "/mdr/cdash/1-2/classes/Identifiers/fields/STUDYID", "title": "Study Identifier", "type": "Class Variable"}, "parentDomain": {"href": "/mdr/cdashig/2-2/domains/EC", "title": "Exposure as Collected", "type": "CDASH Domain"}, "parentProduct": {"href": "/mdr/cdashig/2-2", "title": "Clinical Data Acquisition Standards Harmonization Implementation Guide for Human Clinical Trials Version 2.2", "type": "Implementation Guide"}, "priorVersion": {"href": "/mdr/cdashig/2-1/domains/EC/fields/STUDYID", "title": "Study Identifier", "type": "Data Collection Field"}, "rootItem": {"href": "/mdr/root/cdashig/domains/EC/fields/STUDYID", "title": "Study Identifier", "type": "Root Data Element"}, "sdtmigDatasetMappingTargets": [{"href": "/mdr/sdtmig/3-3/datasets/EC/variables/STUDYID", "title": "Study Identifier", "type": "SDTM Dataset Variable"}], "self": {"href": "/mdr/cdashig/2-2/domains/EC/fields/STUDYID", "title": "Study Identifier", "type": "Data Collection Field"}}, "core": "HR", "definition": "A unique identifier for a study.", "implementationNotes": "Although this field is not typically captured on a CRF, it should be displayed clearly on the CRF and/or in the EDC system. This field can be included in the database or populated during SDTM-based dataset creation before submission.", "label": "Study Identifier", "mappingInstructions": "Maps directly to the SDTMIG variable listed in the SDTMIG Target column.", "name": "STUDYID", "ordinal": "1", "prompt": "[Protocol/Study]", "questionText": "What is the study identifier?", "simpleDatatype": "Char"}, {"_links": {"implements": {"href": "/mdr/cdash/1-2/classes/Identifiers/fields/SITEID", "title": "Study Site Identifier", "type": "Class Variable"}, "parentDomain": {"href": "/mdr/cdashig/2-2/domains/EC", "title": "Exposure as Collected", "type": "CDASH Domain"}, "parentProduct": {"href": "/mdr/cdashig/2-2", "title": "Clinical Data Acquisition Standards Harmonization Implementation Guide for Human Clinical Trials Version 2.2", "type": "Implementation Guide"}, "priorVersion": {"href": "/mdr/cdashig/2-1/domains/EC/fields/SITEID", "title": "Study Site Identifier", "type": "Data Collection Field"}, "rootItem": {"href": "/mdr/root/cdashig/domains/EC/fields/SITEID", "title": "Study Site Identifier", "type": "Root Data Element"}, "sdtmigDatasetMappingTargets": [{"href": "/mdr/sdtmig/3-3/datasets/DM/variables/SITEID", "title": "Study Site Identifier", "type": "SDTM Dataset Variable"}], "self": {"href": "/mdr/cdashig/2-2/domains/EC/fields/SITEID", "title": "Study Site Identifier", "type": "Data Collection Field"}}, "core": "HR", "definition": "A unique identifier for a site within a study.", "implementationNotes": "Paper: This is typically pre-printed in the header of each CRF page for single-site studies. For studies with multiple sites, this field may be left blank so that the number can be recorded by the site, or it may be pre-printed on the CRFs that are shipped to each site. \\n EDC: This should be pre-populated.", "label": "Study Site Identifier", "mappingInstructions": "Maps directly to the SDTMIG variable listed in the SDTMIG Target column.", "name": "SITEID", "ordinal": "2", "prompt": "Site (Identifier)", "questionText": "What is the site identifier?", "simpleDatatype": "Char"}, {"_links": {"implements": {"href": "/mdr/cdash/1-2/classes/Identifiers/fields/SUBJID", "title": "Subject Identifier for the Study", "type": "Class Variable"}, "parentDomain": {"href": "/mdr/cdashig/2-2/domains/EC", "title": "Exposure as Collected", "type": "CDASH Domain"}, "parentProduct": {"href": "/mdr/cdashig/2-2", "title": "Clinical Data Acquisition Standards Harmonization Implementation Guide for Human Clinical Trials Version 2.2", "type": "Implementation Guide"}, "priorVersion": {"href": "/mdr/cdashig/2-1/domains/EC/fields/SUBJID", "title": "Subject Identifier for the Study", "type": "Data Collection Field"}, "rootItem": {"href": "/mdr/root/cdashig/domains/EC/fields/SUBJID", "title": "Subject Identifier for the Study", "type": "Root Data Element"}, "sdtmigDatasetMappingTargets": [{"href": "/mdr/sdtmig/3-3/datasets/DM/variables/SUBJID", "title": "Subject Identifier for the Study", "type": "SDTM Dataset Variable"}], "self": {"href": "/mdr/cdashig/2-2/domains/EC/fields/SUBJID", "title": "Subject Identifier for the Study", "type": "Data Collection Field"}}, "completionInstructions": "Record the identifier for the subject.", "core": "HR", "definition": "A unique subject identifier within a site and a study.", "implementationNotes": "Paper: This is typically recorded in the header of each CRF page. \\n EDC: The subject identifiers may be system generated. \\n This CDASH variable is typically collected in all CDASH domains. However, this CDASH variable is populated only in the SDTMIG DM domain. For more information, refer to the SDTMIG.", "label": "Subject Identifier for the Study", "mappingInstructions": "Maps directly to the SDTMIG variable listed in the SDTMIG Target column.", "name": "SUBJID", "ordinal": "3", "prompt": "[Subject/Participant] (Identifier)", "questionText": "What [is/was] the (study) [subject/participant] identifier?", "simpleDatatype": "Char"}, {"_links": {"codelist": [{"href": "/mdr/root/ct/sdtmct/codelists/C99079", "title": "Version-agnostic anchor resource for codelist C99079", "type": "Root Value Domain"}], "implements": {"href": "/mdr/cdash/1-2/classes/Timing/fields/EPOCH", "title": "Epoch", "type": "Class Variable"}, "parentDomain": {"href": "/mdr/cdashig/2-2/domains/EC", "title": "Exposure as Collected", "type": "CDASH Domain"}, "parentProduct": {"href": "/mdr/cdashig/2-2", "title": "Clinical Data Acquisition Standards Harmonization Implementation Guide for Human Clinical Trials Version 2.2", "type": "Implementation Guide"}, "priorVersion": {"href": "/mdr/cdashig/2-1/domains/EC/fields/EPOCH", "title": "Epoch", "type": "Data Collection Field"}, "rootItem": {"href": "/mdr/root/cdashig/domains/EC/fields/EPOCH", "title": "Epoch", "type": "Root Data Element"}, "sdtmigDatasetMappingTargets": [{"href": "/mdr/sdtmig/3-3/datasets/EC/variables/EPOCH", "title": "Epoch", "type": "SDTM Dataset Variable"}], "self": {"href": "/mdr/cdashig/2-2/domains/EC/fields/EPOCH", "title": "Epoch", "type": "Data Collection Field"}}, "completionInstructions": "[protocol specific]", "core": "R/C", "definition": "Name of the trial epoch with which this element of the arm is associated.", "implementationNotes": "If the same information is collected more than once in different periods/parts of a study (e.g., Disposition), EPOCH may be needed to differentiate them. Typically, the trial epoch will be pre-printed on the CRF as the title of the page. See SDTMIG for further information regarding EPOCH.", "label": "Epoch", "mappingInstructions": "Maps directly to the SDTMIG variable listed in the SDTMIG Target column.", "name": "EPOCH", "ordinal": "4", "prompt": "[Epoch](Period/Phase/Sponsor-defined phrase)", "questionText": "What is the trial epoch?", "simpleDatatype": "Char"}, {"_links": {"codelist": [{"href": "/mdr/root/ct/sdtmct/codelists/C66742", "title": "Version-agnostic anchor resource for codelist C66742", "type": "Root Value Domain"}], "implements": {"href": "/mdr/cdash/1-2/classes/Interventions/fields/--YN", "title": "Any [Intervention]", "type": "Class Variable"}, "parentDomain": {"href": "/mdr/cdashig/2-2/domains/EC", "title": "Exposure as Collected", "type": "CDASH Domain"}, "parentProduct": {"href": "/mdr/cdashig/2-2", "title": "Clinical Data Acquisition Standards Harmonization Implementation Guide for Human Clinical Trials Version 2.2", "type": "Implementation Guide"}, "priorVersion": {"href": "/mdr/cdashig/2-1/domains/EC/fields/ECYN", "title": "Any Study Treatment Taken", "type": "Data Collection Field"}, "rootItem": {"href": "/mdr/root/cdashig/domains/EC/fields/ECYN", "title": "Any Study Treatment Taken", "type": "Root Data Element"}, "self": {"href": "/mdr/cdashig/2-2/domains/EC/fields/ECYN", "title": "Any Study Treatment Taken", "type": "Data Collection Field"}}, "completionInstructions": "Indicate if the subject took any study medications. If Yes, include the appropriate details where indicated.", "core": "O", "definition": "An indication of whether the subject took the study medication/ treatment.", "implementationNotes": "The intent/purpose of collecting this field is to help with data cleaning and monitoring. It provides verification that all other fields on the CRF were deliberately left blank. The ECYN is meant to indicate that the exposure as collected form should be completed or inserted into the case book. ECOCCUR would be used when the actual drug name is pre-printed on the CRF. While these might be equivalent in a single-drug study, there are differences in how they would be used in most trials. Therefore, it does not map into the SDTM variable ECOCCUR; ECOCCUR indicates whether the subject was actually administered treatment/medication. If actual treatment data is available (ECYN =\"Y\"), ECOCCUR may be populated based on whether subject was actually administered treatment/medication.", "label": "Any Study Treatment Taken", "mappingInstructions": "Does not map to an SDTMIG variable. The SDTM annotated CRF indicates that this field is NOT SUBMITTED.", "name": "ECYN", "ordinal": "5", "prompt": "Any Study Treatments", "questionText": "Were any[study treatment/dose] taken?", "simpleDatatype": "Char"}, {"_links": {"implements": {"href": "/mdr/cdash/1-2/classes/Interventions/fields/--CAT", "title": "Category", "type": "Class Variable"}, "parentDomain": {"href": "/mdr/cdashig/2-2/domains/EC", "title": "Exposure as Collected", "type": "CDASH Domain"}, "parentProduct": {"href": "/mdr/cdashig/2-2", "title": "Clinical Data Acquisition Standards Harmonization Implementation Guide for Human Clinical Trials Version 2.2", "type": "Implementation Guide"}, "priorVersion": {"href": "/mdr/cdashig/2-1/domains/EC/fields/ECCAT", "title": "Category of Treatment", "type": "Data Collection Field"}, "rootItem": {"href": "/mdr/root/cdashig/domains/EC/fields/ECCAT", "title": "Category of Treatment", "type": "Root Data Element"}, "sdtmigDatasetMappingTargets": [{"href": "/mdr/sdtmig/3-3/datasets/EC/variables/ECCAT", "title": "Category of Treatment", "type": "SDTM Dataset Variable"}], "self": {"href": "/mdr/cdashig/2-2/domains/EC/fields/ECCAT", "title": "Category of Treatment", "type": "Data Collection Field"}}, "completionInstructions": "Record the study treatment category, if not pre-printed on the CRF.", "core": "O", "definition": "A grouping of topic-variable values based on user-defined characteristics.", "implementationNotes": "Sponsor-defined controlled terminology. This would most commonly be either a heading or a pre-printed category value on the CRF, and not a question to which the site would provide an answer. If a question is asked, the response would typically be a sponsor-defined codelist. If the form is laid out as a grid, then words such as \"Category\" can be included as the column heading.", "label": "Category of Treatment", "mappingInstructions": "Maps directly to the SDTMIG variable listed in the SDTMIG Target column.", "name": "ECCAT", "ordinal": "6", "prompt": "[Study Treatment Category]; NULL", "questionText": "What is the category of the [study treatment/dose]?", "simpleDatatype": "Char"}, {"_links": {"implements": {"href": "/mdr/cdash/1-2/classes/Interventions/fields/--SCAT", "title": "Subcategory", "type": "Class Variable"}, "parentDomain": {"href": "/mdr/cdashig/2-2/domains/EC", "title": "Exposure as Collected", "type": "CDASH Domain"}, "parentProduct": {"href": "/mdr/cdashig/2-2", "title": "Clinical Data Acquisition Standards Harmonization Implementation Guide for Human Clinical Trials Version 2.2", "type": "Implementation Guide"}, "priorVersion": {"href": "/mdr/cdashig/2-1/domains/EC/fields/ECSCAT", "title": "Subcategory of Treatment", "type": "Data Collection Field"}, "rootItem": {"href": "/mdr/root/cdashig/domains/EC/fields/ECSCAT", "title": "Subcategory of Treatment", "type": "Root Data Element"}, "sdtmigDatasetMappingTargets": [{"href": "/mdr/sdtmig/3-3/datasets/EC/variables/ECSCAT", "title": "Subcategory of Treatment", "type": "SDTM Dataset Variable"}], "self": {"href": "/mdr/cdashig/2-2/domains/EC/fields/ECSCAT", "title": "Subcategory of Treatment", "type": "Data Collection Field"}}, "completionInstructions": "Record the study treatment subcategory, if not pre-printed on the CRF.", "core": "O", "definition": "A sub-division of the ECCAT values based on user-defined characteristics.", "implementationNotes": "Sponsor-defined controlled terminology. This would most commonly be pre-printed on the CRF or screen and pre-populated in the data management system. This is not typically a question to which the site would provide an answer. ECSCAT can only be used if there is an ECCAT and it must be a subcategorization of ECCAT.", "label": "Subcategory of Treatment", "mappingInstructions": "Maps directly to the SDTMIG variable listed in the SDTMIG Target column.", "name": "ECSCAT", "ordinal": "7", "prompt": "[Study Treatment Subcategory]; NULL", "questionText": "What is the subcategory of the [study treatment/dose]?", "simpleDatatype": "Char"}, {"_links": {"implements": {"href": "/mdr/cdash/1-2/classes/Interventions/fields/--TRT", "title": "Name of Treatment", "type": "Class Variable"}, "parentDomain": {"href": "/mdr/cdashig/2-2/domains/EC", "title": "Exposure as Collected", "type": "CDASH Domain"}, "parentProduct": {"href": "/mdr/cdashig/2-2", "title": "Clinical Data Acquisition Standards Harmonization Implementation Guide for Human Clinical Trials Version 2.2", "type": "Implementation Guide"}, "priorVersion": {"href": "/mdr/cdashig/2-1/domains/EC/fields/ECTRT", "title": "Treatment", "type": "Data Collection Field"}, "rootItem": {"href": "/mdr/root/cdashig/domains/EC/fields/ECTRT", "title": "Treatment", "type": "Root Data Element"}, "sdtmigDatasetMappingTargets": [{"href": "/mdr/sdtmig/3-3/datasets/EC/variables/ECTRT", "title": "Name of Treatment", "type": "SDTM Dataset Variable"}], "self": {"href": "/mdr/cdashig/2-2/domains/EC/fields/ECTRT", "title": "Treatment", "type": "Data Collection Field"}}, "completionInstructions": "Record the name of study treatment.", "core": "R/C", "definition": "Name of the intervention or treatment known to the subject and/or administrator.", "implementationNotes": "ECTRT is the name of the intervention or treatment known to the subject and/or administrator and it is the SDTM topic variable. It is a required variable in SDTM and must have a value in CDASH or a plan to populate it in the SDTM submission datasets (i.e., collected or populated from other sources). If, in a masked study, treatment is collected and known as tablet A to the subject or administrator, then ECTRT=\"TABLET A\". If, in a masked study, the treatment is not known by a synonym and the data are to be exchanged between sponsors, partners, and/or regulatory agency(s), then assign ECTRT the value of \"MASKED\".", "label": "Treatment", "mappingInstructions": "Maps directly to the SDTMIG variable listed in the SDTMIG Target column.", "name": "ECTRT", "ordinal": "8", "prompt": "[Study Treatment/Investigational Product Name]", "questionText": "What was the [study treatment/investigational product] name?", "simpleDatatype": "Char"}, {"_links": {"codelist": [{"href": "/mdr/root/ct/sdtmct/codelists/C66742", "title": "Version-agnostic anchor resource for codelist C66742", "type": "Root Value Domain"}], "implements": {"href": "/mdr/cdash/1-2/classes/Interventions/fields/--PRESP", "title": "Pre-Specified Intervention", "type": "Class Variable"}, "parentDomain": {"href": "/mdr/cdashig/2-2/domains/EC", "title": "Exposure as Collected", "type": "CDASH Domain"}, "parentProduct": {"href": "/mdr/cdashig/2-2", "title": "Clinical Data Acquisition Standards Harmonization Implementation Guide for Human Clinical Trials Version 2.2", "type": "Implementation Guide"}, "priorVersion": {"href": "/mdr/cdashig/2-1/domains/EC/fields/ECPRESP", "title": "Exposure as Collected Pre-Specified", "type": "Data Collection Field"}, "rootItem": {"href": "/mdr/root/cdashig/domains/EC/fields/ECPRESP", "title": "Exposure as Collected Pre-Specified", "type": "Root Data Element"}, "sdtmigDatasetMappingTargets": [{"href": "/mdr/sdtmig/3-3/datasets/EC/variables/ECPRESP", "title": "Pre-Specified", "type": "SDTM Dataset Variable"}], "self": {"href": "/mdr/cdashig/2-2/domains/EC/fields/ECPRESP", "title": "Exposure as Collected Pre-Specified", "type": "Data Collection Field"}}, "core": "O", "definition": "An indication that a specific intervention or a group of interventions is pre-specified on a CRF.", "implementationNotes": "For pre-specified interventions, a hidden field on a CRF defaulted to \"Y\", or added during the SDTM dataset creation. If a study collects both pre-specified and free-text interventions, the value of ECPRESP should be \"Y\" for all pre-specified interventions and null for interventions reported as free text.", "label": "Exposure as Collected Pre-Specified", "mappingInstructions": "Maps directly to the SDTMIG variable listed in the SDTMIG Target column.", "name": "ECPRESP", "ordinal": "9", "simpleDatatype": "Char"}, {"_links": {"codelist": [{"href": "/mdr/root/ct/sdtmct/codelists/C66742", "title": "Version-agnostic anchor resource for codelist C66742", "type": "Root Value Domain"}], "implements": {"href": "/mdr/cdash/1-2/classes/Interventions/fields/--OCCUR", "title": "Occurrence", "type": "Class Variable"}, "parentDomain": {"href": "/mdr/cdashig/2-2/domains/EC", "title": "Exposure as Collected", "type": "CDASH Domain"}, "parentProduct": {"href": "/mdr/cdashig/2-2", "title": "Clinical Data Acquisition Standards Harmonization Implementation Guide for Human Clinical Trials Version 2.2", "type": "Implementation Guide"}, "priorVersion": {"href": "/mdr/cdashig/2-1/domains/EC/fields/ECOCCUR", "title": "Exposure as Collected Occurrence", "type": "Data Collection Field"}, "rootItem": {"href": "/mdr/root/cdashig/domains/EC/fields/ECOCCUR", "title": "Exposure as Collected Occurrence", "type": "Root Data Element"}, "sdtmigDatasetMappingTargets": [{"href": "/mdr/sdtmig/3-3/datasets/EC/variables/ECOCCUR", "title": "Occurrence", "type": "SDTM Dataset Variable"}], "self": {"href": "/mdr/cdashig/2-2/domains/EC/fields/ECOCCUR", "title": "Exposure as Collected Occurrence", "type": "Data Collection Field"}}, "completionInstructions": "Indicate if the subject took study treatment. If Yes, include the appropriate details where indicated.", "core": "O", "definition": "An indication whether the study treatment was administered when information about the occurrence of a specific intervention was solicited.", "implementationNotes": "ECOCCUR is used to indicate whether the subject was actually administered treatment/medication. ECOCCUR should not be used to indicate that the question was not asked or answered.", "label": "Exposure as Collected Occurrence", "mappingInstructions": "Maps directly to the SDTMIG variable listed in the SDTMIG Target column. Not applicable when ECMOOD is \"Scheduled\".", "name": "ECOCCUR", "ordinal": "10", "prompt": "[Study Medication/Treatment]", "questionText": "Was [study treatment/dose] administered?; Has the subject taken [study treatment/dose]?", "simpleDatatype": "Char"}, {"_links": {"implements": {"href": "/mdr/cdash/1-2/classes/Interventions/fields/--REASOC", "title": "Reason for Occur Value", "type": "Class Variable"}, "parentDomain": {"href": "/mdr/cdashig/2-2/domains/EC", "title": "Exposure as Collected", "type": "CDASH Domain"}, "parentProduct": {"href": "/mdr/cdashig/2-2", "title": "Clinical Data Acquisition Standards Harmonization Implementation Guide for Human Clinical Trials Version 2.2", "type": "Implementation Guide"}, "priorVersion": {"href": "/mdr/cdashig/2-1/domains/EC/fields/ECREASOC", "title": "Exposure Reason for Occur Value", "type": "Data Collection Field"}, "rootItem": {"href": "/mdr/root/cdashig/domains/EC/fields/ECREASOC", "title": "Exposure Reason for Occur Value", "type": "Root Data Element"}, "sdtmigDatasetMappingTargets": [{"href": "/mdr/sdtmig/3-3/datasets/SUPPQUAL/variables/QVAL", "title": "Data Value", "type": "SDTM Dataset Variable"}], "self": {"href": "/mdr/cdashig/2-2/domains/EC/fields/ECREASOC", "title": "Exposure Reason for Occur Value", "type": "Data Collection Field"}}, "completionInstructions": "Indicate why the study treatment was or wasnot taken.", "core": "O", "definition": "An explanation for why a scheduled study treatment administration did or did not occur.", "implementationNotes": "The reason the study treatment was or was not taken may be chosen from a sponsor-defined codelist (e.g., SUBJECT MISTAKE, SUBJECT REFUSED) or entered as free text. When --REASOC is used, --OCCUR must also be populated in the SDTM dataset with a value of \"Y\" or \"N\".", "label": "Exposure Reason for Occur Value", "mappingInstructions": "This information could be submitted in a SUPPEC dataset as the value of SUPPEC.QVAL where SUPPEC.QNAM=\"ECREASOC\" and SUPPEC.QLABEL =\"Reason for Occur Value\". Refer to the current SDTM and SDTMIG for instructions on placement of non-standard variables (NSVs) in SDTM domains.", "name": "ECREASOC", "ordinal": "11", "prompt": "Reason (Not) Taken", "questionText": "What was the reason that the[study treatment/dose] was (not)taken?", "simpleDatatype": "Char"}, {"_links": {"codelist": [{"href": "/mdr/root/ct/sdtmct/codelists/C125923", "title": "Version-agnostic anchor resource for codelist C125923", "type": "Root Value Domain"}], "implements": {"href": "/mdr/cdash/1-2/classes/Interventions/fields/--MOOD", "title": "Mood", "type": "Class Variable"}, "parentDomain": {"href": "/mdr/cdashig/2-2/domains/EC", "title": "Exposure as Collected", "type": "CDASH Domain"}, "parentProduct": {"href": "/mdr/cdashig/2-2", "title": "Clinical Data Acquisition Standards Harmonization Implementation Guide for Human Clinical Trials Version 2.2", "type": "Implementation Guide"}, "priorVersion": {"href": "/mdr/cdashig/2-1/domains/EC/fields/ECMOOD", "title": "Exposure as Collected Mood", "type": "Data Collection Field"}, "rootItem": {"href": "/mdr/root/cdashig/domains/EC/fields/ECMOOD", "title": "Exposure as Collected Mood", "type": "Root Data Element"}, "sdtmigDatasetMappingTargets": [{"href": "/mdr/sdtmig/3-3/datasets/EC/variables/ECMOOD", "title": "Mood", "type": "SDTM Dataset Variable"}], "self": {"href": "/mdr/cdashig/2-2/domains/EC/fields/ECMOOD", "title": "Exposure as Collected Mood", "type": "Data Collection Field"}}, "completionInstructions": "Indicate if this record has happened or is intended to happen.", "core": "O", "definition": "Mode or condition of the record specifying whether the intervention (activity) is intended to happen or has happened.", "implementationNotes": "\"SCHEDULED\" is for collected subject-level intended dose records. \"PERFORMED\" is for collected subject-level actual dose records. \"Planned\" or \"Scheduled\" can be pre-printed as the CRF name or section header, as applicable. If collecting both the scheduled and performed dosing in the same horizontal record, the sponsor may choose to append \"_SCHEDULED\" to the ECDOSE/ECDOSTXT variable name to delineate the scheduled dose from the performed dose. The performed dose would just be collected with ECDOSE/ECDOSTXT and ECDOSU.", "label": "Exposure as Collected Mood", "mappingInstructions": "Maps directly to the SDTMIG variable listed in the SDTMIG Target column. When implemented, ECMOOD must be populated for all records.", "name": "ECMOOD", "ordinal": "12", "prompt": "Scheduled/Performed", "questionText": "Does this record describe scheduled [study treatment/dose] or performed [study treatment/dose]?", "simpleDatatype": "Char"}, {"_links": {"implements": {"href": "/mdr/cdash/1-2/classes/Identifiers/fields/--REFID", "title": "Reference ID", "type": "Class Variable"}, "parentDomain": {"href": "/mdr/cdashig/2-2/domains/EC", "title": "Exposure as Collected", "type": "CDASH Domain"}, "parentProduct": {"href": "/mdr/cdashig/2-2", "title": "Clinical Data Acquisition Standards Harmonization Implementation Guide for Human Clinical Trials Version 2.2", "type": "Implementation Guide"}, "priorVersion": {"href": "/mdr/cdashig/2-1/domains/EC/fields/ECREFID", "title": "Exposure as Collected Reference ID", "type": "Data Collection Field"}, "rootItem": {"href": "/mdr/root/cdashig/domains/EC/fields/ECREFID", "title": "Exposure as Collected Reference ID", "type": "Root Data Element"}, "sdtmigDatasetMappingTargets": [{"href": "/mdr/sdtmig/3-3/datasets/EC/variables/ECREFID", "title": "Reference ID", "type": "SDTM Dataset Variable"}], "self": {"href": "/mdr/cdashig/2-2/domains/EC/fields/ECREFID", "title": "Exposure as Collected Reference ID", "type": "Data Collection Field"}}, "completionInstructions": "Record treatment label identifier.", "core": "O", "definition": "An internal or external identifier (e.g., kit number, bottle label, vial identifier).", "implementationNotes": "This packaging identifier (e.g., kit number, bottle label, vial identifier) may be collected in different ways (e.g., affixing label onto CRF, scanning a bar code). For some study dosing regimens that require greater granularity for treatment identifiers, sponsors may need to use additional variables.", "label": "Exposure as Collected Reference ID", "mappingInstructions": "Maps directly to the SDTMIG variable listed in the SDTMIG Target column.", "name": "ECREFID", "ordinal": "13", "prompt": "[Study Treatment] Label Identifier", "questionText": "What is the[study treatment/dose] label identifier?", "simpleDatatype": "Char"}, {"_links": {"implements": {"href": "/mdr/cdash/1-2/classes/Interventions/fields/--LOT", "title": "Lot Number", "type": "Class Variable"}, "parentDomain": {"href": "/mdr/cdashig/2-2/domains/EC", "title": "Exposure as Collected", "type": "CDASH Domain"}, "parentProduct": {"href": "/mdr/cdashig/2-2", "title": "Clinical Data Acquisition Standards Harmonization Implementation Guide for Human Clinical Trials Version 2.2", "type": "Implementation Guide"}, "priorVersion": {"href": "/mdr/cdashig/2-1/domains/EC/fields/ECLOT", "title": "Lot Number", "type": "Data Collection Field"}, "rootItem": {"href": "/mdr/root/cdashig/domains/EC/fields/ECLOT", "title": "Lot Number", "type": "Root Data Element"}, "sdtmigDatasetMappingTargets": [{"href": "/mdr/sdtmig/3-3/datasets/EC/variables/ECLOT", "title": "Lot Number", "type": "SDTM Dataset Variable"}], "self": {"href": "/mdr/cdashig/2-2/domains/EC/fields/ECLOT", "title": "Lot Number", "type": "Data Collection Field"}}, "completionInstructions": "Record the lot number that appears on the container holding the study treatment.", "core": "R/C", "definition": "Lot number of the ECTRT product.", "implementationNotes": "The lot number identifies the manufacturing batch of the study treatment. In open-label studies, the reference number on the study treatment container may represent an actual lot number and should be submitted using ECLOT. This variable may be populated during the process of creating the SDTM submission datasets. Do not collect other identification variables in this field.", "label": "Lot Number", "mappingInstructions": "Maps directly to the SDTMIG variable listed in the SDTMIG Target column.", "name": "ECLOT", "ordinal": "14", "prompt": "Lot Number", "questionText": "What was the lot number of the[study treatment/dose] used?", "simpleDatatype": "Char"}, {"_links": {"codelist": [{"href": "/mdr/root/ct/sdtmct/codelists/C66742", "title": "Version-agnostic anchor resource for codelist C66742", "type": "Root Value Domain"}], "implements": {"href": "/mdr/cdash/1-2/classes/Interventions/fields/--FAST", "title": "Fasting Status", "type": "Class Variable"}, "parentDomain": {"href": "/mdr/cdashig/2-2/domains/EC", "title": "Exposure as Collected", "type": "CDASH Domain"}, "parentProduct": {"href": "/mdr/cdashig/2-2", "title": "Clinical Data Acquisition Standards Harmonization Implementation Guide for Human Clinical Trials Version 2.2", "type": "Implementation Guide"}, "priorVersion": {"href": "/mdr/cdashig/2-1/domains/EC/fields/ECFAST", "title": "Exposure as Collected Fasting Status", "type": "Data Collection Field"}, "rootItem": {"href": "/mdr/root/cdashig/domains/EC/fields/ECFAST", "title": "Exposure as Collected Fasting Status", "type": "Root Data Element"}, "sdtmigDatasetMappingTargets": [{"href": "/mdr/sdtmig/3-3/datasets/EC/variables/ECFAST", "title": "Fasting Status", "type": "SDTM Dataset Variable"}], "self": {"href": "/mdr/cdashig/2-2/domains/EC/fields/ECFAST", "title": "Exposure as Collected Fasting Status", "type": "Data Collection Field"}}, "completionInstructions": "Record whether the subject was fasting prior to the study treatment being taken.", "core": "O", "definition": "An indication that the subject has abstained from food/water for the specified amount of time.", "implementationNotes": "Because some study treatments may have a food effect, it is important to know whether the dose was taken after the subject had fasted.", "label": "Exposure as Collected Fasting Status", "mappingInstructions": "Maps directly to the SDTMIG variable listed in the SDTMIG Target column. Would only be populated when ECMOOD=\"PERFORMED\".", "name": "ECFAST", "ordinal": "15", "prompt": "Fasting", "questionText": "Was the subject fasting?", "simpleDatatype": "Char"}, {"_links": {"codelist": [{"href": "/mdr/root/ct/sdtmct/codelists/C66726", "title": "Version-agnostic anchor resource for codelist C66726", "type": "Root Value Domain"}, {"href": "/mdr/root/ct/cdashct/codelists/C78426", "title": "Version-agnostic anchor resource for codelist C78426", "type": "Root Value Domain"}], "implements": {"href": "/mdr/cdash/1-2/classes/Interventions/fields/--DOSFRM", "title": "Dose Form", "type": "Class Variable"}, "parentDomain": {"href": "/mdr/cdashig/2-2/domains/EC", "title": "Exposure as Collected", "type": "CDASH Domain"}, "parentProduct": {"href": "/mdr/cdashig/2-2", "title": "Clinical Data Acquisition Standards Harmonization Implementation Guide for Human Clinical Trials Version 2.2", "type": "Implementation Guide"}, "priorVersion": {"href": "/mdr/cdashig/2-1/domains/EC/fields/ECDOSFRM", "title": "Exposure as Collected Dose Form", "type": "Data Collection Field"}, "rootItem": {"href": "/mdr/root/cdashig/domains/EC/fields/ECDOSFRM", "title": "Exposure as Collected Dose Form", "type": "Root Data Element"}, "sdtmigDatasetMappingTargets": [{"href": "/mdr/sdtmig/3-3/datasets/EC/variables/ECDOSFRM", "title": "Dose Form", "type": "SDTM Dataset Variable"}], "self": {"href": "/mdr/cdashig/2-2/domains/EC/fields/ECDOSFRM", "title": "Exposure as Collected Dose Form", "type": "Data Collection Field"}}, "completionInstructions": "Record the dose form (e.g., SOLUTION, TABLET, LOTION) or enter the appropriate code from the code list.", "core": "R/C", "definition": "The dosage form in which the ECTRT is physically presented.", "implementationNotes": "This must be collected if it cannot be determined from other sources or if there are multiple options for the same study treatment.", "label": "Exposure as Collected Dose Form", "mappingInstructions": "Maps directly to the SDTMIG variable listed in the SDTMIG Target column.", "name": "ECDOSFRM", "ordinal": "16", "prompt": "Dose Form", "questionText": "What was the dose form of the [study treatment/dose]?", "simpleDatatype": "Char"}, {"_links": {"implements": {"href": "/mdr/cdash/1-2/classes/Timing/fields/--STDAT", "title": "Observation Start Date", "type": "Class Variable"}, "parentDomain": {"href": "/mdr/cdashig/2-2/domains/EC", "title": "Exposure as Collected", "type": "CDASH Domain"}, "parentProduct": {"href": "/mdr/cdashig/2-2", "title": "Clinical Data Acquisition Standards Harmonization Implementation Guide for Human Clinical Trials Version 2.2", "type": "Implementation Guide"}, "priorVersion": {"href": "/mdr/cdashig/2-1/domains/EC/fields/ECSTDAT", "title": "Exposure as Collected Start Date", "type": "Data Collection Field"}, "rootItem": {"href": "/mdr/root/cdashig/domains/EC/fields/ECSTDAT", "title": "Exposure as Collected Start Date", "type": "Root Data Element"}, "sdtmigDatasetMappingTargets": [{"href": "/mdr/sdtmig/3-3/datasets/EC/variables/ECSTDTC", "title": "Start Date/Time of Treatment", "type": "SDTM Dataset Variable"}], "self": {"href": "/mdr/cdashig/2-2/domains/EC/fields/ECSTDAT", "title": "Exposure as Collected Start Date", "type": "Data Collection Field"}}, "completionInstructions": "Record the start date of the study treatment administration using this format (DD-MON-YYYY).", "core": "HR", "definition": "The start date of study treatment, intended or actual, represented in an unambiguous date format (e.g., DD-MON-YYYY).", "implementationNotes": "Date when constant dosing interval of the study treatment started or single administration occurred. When collecting the date for an individual dose, the word \"start\" may be omitted from the Question Text and Prompt. When ECMOOD is collected and ECMOOD is \"SCHEDULED\", use \"intended\" in the question text and prompt. When ECMOOD is collected and ECMOOD is \"PERFORMED\", use \"actual\" in the question text and prompt.", "label": "Exposure as Collected Start Date", "mappingInstructions": "This does not map directly to an SDTMIG variable. For the SDTM submission dataset, concatenate all collected CDASH START DATE and TIME components and populate the SDTMIG variable ECSTDTC in ISO 8601 format.", "name": "ECSTDAT", "ordinal": "17", "prompt": "(Start) Date", "questionText": "What was the ([intended/planned/actual]) ([study treatment/dose]) (start) date?", "simpleDatatype": "Char"}, {"_links": {"implements": {"href": "/mdr/cdash/1-2/classes/Timing/fields/--STTIM", "title": "Observation Start Time", "type": "Class Variable"}, "parentDomain": {"href": "/mdr/cdashig/2-2/domains/EC", "title": "Exposure as Collected", "type": "CDASH Domain"}, "parentProduct": {"href": "/mdr/cdashig/2-2", "title": "Clinical Data Acquisition Standards Harmonization Implementation Guide for Human Clinical Trials Version 2.2", "type": "Implementation Guide"}, "priorVersion": {"href": "/mdr/cdashig/2-1/domains/EC/fields/ECSTTIM", "title": "Exposure as Collected Start Time", "type": "Data Collection Field"}, "rootItem": {"href": "/mdr/root/cdashig/domains/EC/fields/ECSTTIM", "title": "Exposure as Collected Start Time", "type": "Root Data Element"}, "sdtmigDatasetMappingTargets": [{"href": "/mdr/sdtmig/3-3/datasets/EC/variables/ECSTDTC", "title": "Start Date/Time of Treatment", "type": "SDTM Dataset Variable"}], "self": {"href": "/mdr/cdashig/2-2/domains/EC/fields/ECSTTIM", "title": "Exposure as Collected Start Time", "type": "Data Collection Field"}}, "completionInstructions": "Record the start time (as complete as possible) when administration of study treatment started.", "core": "R/C", "definition": "The start time of study treatment, represented in an unambiguous time format (e.g., hh:mm:ss).", "implementationNotes": "Recommend collecting the time a medication was started only when a protocol or data collection scenarios requires it. When collecting the time for an individual dose, the word \"start\" may be omitted from the question text and prompt.", "label": "Exposure as Collected Start Time", "mappingInstructions": "This does not map directly to an SDTMIG variable. For the SDTM submission dataset, concatenate all collected CDASH START DATE and TIME components and populate the SDTMIG variable ECSTDTC in ISO 8601 format.", "name": "ECSTTIM", "ordinal": "18", "prompt": "(Start) Time", "questionText": "What was the ([intended/planned/actual]) ([study treatment/dose]) (start) time?", "simpleDatatype": "Char"}, {"_links": {"implements": {"href": "/mdr/cdash/1-2/classes/Timing/fields/--ENDAT", "title": "Observation End Date", "type": "Class Variable"}, "parentDomain": {"href": "/mdr/cdashig/2-2/domains/EC", "title": "Exposure as Collected", "type": "CDASH Domain"}, "parentProduct": {"href": "/mdr/cdashig/2-2", "title": "Clinical Data Acquisition Standards Harmonization Implementation Guide for Human Clinical Trials Version 2.2", "type": "Implementation Guide"}, "priorVersion": {"href": "/mdr/cdashig/2-1/domains/EC/fields/ECENDAT", "title": "Exposure as Collected End Date", "type": "Data Collection Field"}, "rootItem": {"href": "/mdr/root/cdashig/domains/EC/fields/ECENDAT", "title": "Exposure as Collected End Date", "type": "Root Data Element"}, "sdtmigDatasetMappingTargets": [{"href": "/mdr/sdtmig/3-3/datasets/EC/variables/ECENDTC", "title": "End Date/Time of Treatment", "type": "SDTM Dataset Variable"}], "self": {"href": "/mdr/cdashig/2-2/domains/EC/fields/ECENDAT", "title": "Exposure as Collected End Date", "type": "Data Collection Field"}}, "completionInstructions": "Record the end date of the study treatment administration using this format (DD-MON-YYYY).", "core": "R/C", "definition": "The end date of study treatment, represented in an unambiguous date format (e.g., DD-MON-YYYY).", "implementationNotes": "Date when study treatment period stopped.If start date and end date are not expected to be the same date, the collection of the end date is required. If the study design indicates that the start and end are on the same day, the collection of the end date is not required because it can be assigned to be equal to the start date.", "label": "Exposure as Collected End Date", "mappingInstructions": "This does not map directly to an SDTMIG variable. For the SDTM submission dataset, concatenate all collected CDASH END DATE and TIME components and populate the SDTMIG variable ECENDTC in ISO 8601 format.", "name": "ECENDAT", "ordinal": "19", "prompt": "(End) Date", "questionText": "What was the ([intended/planned/actual]) ([study treatment/dose]) (end) date?", "simpleDatatype": "Char"}, {"_links": {"implements": {"href": "/mdr/cdash/1-2/classes/Timing/fields/--ENTIM", "title": "Observation End Time", "type": "Class Variable"}, "parentDomain": {"href": "/mdr/cdashig/2-2/domains/EC", "title": "Exposure as Collected", "type": "CDASH Domain"}, "parentProduct": {"href": "/mdr/cdashig/2-2", "title": "Clinical Data Acquisition Standards Harmonization Implementation Guide for Human Clinical Trials Version 2.2", "type": "Implementation Guide"}, "priorVersion": {"href": "/mdr/cdashig/2-1/domains/EC/fields/ECENTIM", "title": "Exposure as Collected End Time", "type": "Data Collection Field"}, "rootItem": {"href": "/mdr/root/cdashig/domains/EC/fields/ECENTIM", "title": "Exposure as Collected End Time", "type": "Root Data Element"}, "sdtmigDatasetMappingTargets": [{"href": "/mdr/sdtmig/3-3/datasets/EC/variables/ECENDTC", "title": "End Date/Time of Treatment", "type": "SDTM Dataset Variable"}], "self": {"href": "/mdr/cdashig/2-2/domains/EC/fields/ECENTIM", "title": "Exposure as Collected End Time", "type": "Data Collection Field"}}, "completionInstructions": "Record the time, (as complete as possible) when study treatment administration stopped (e.g., for infusions this is the time when the infusion ended).", "core": "R/C", "definition": "The end time of study treatment, represented in an unambiguous time format (e.g., hh:mm:ss).", "implementationNotes": "Recommend collecting the time a medication was ended when a protocol or data collection scenarios requires it. For infusions, the end time of the infusion is typically needed.", "label": "Exposure as Collected End Time", "mappingInstructions": "This does not map directly to an SDTMIG variable. For the SDTM submission dataset, concatenate all collected CDASH END DATE and TIME components and populate the SDTMIG variable ECENDTC in ISO 8601 format.", "name": "ECENTIM", "ordinal": "20", "prompt": "(End) Time", "questionText": "What was the ([intended/planned/actual]) ([study treatment/dose]) (end) time?", "simpleDatatype": "Char"}, {"_links": {"implements": {"href": "/mdr/cdash/1-2/classes/Interventions/fields/--DSTXT", "title": "Dose Description", "type": "Class Variable"}, "parentDomain": {"href": "/mdr/cdashig/2-2/domains/EC", "title": "Exposure as Collected", "type": "CDASH Domain"}, "parentProduct": {"href": "/mdr/cdashig/2-2", "title": "Clinical Data Acquisition Standards Harmonization Implementation Guide for Human Clinical Trials Version 2.2", "type": "Implementation Guide"}, "priorVersion": {"href": "/mdr/cdashig/2-1/domains/EC/fields/ECDSTXT", "title": "Exposure as Collected Dose Description", "type": "Data Collection Field"}, "rootItem": {"href": "/mdr/root/cdashig/domains/EC/fields/ECDSTXT", "title": "Exposure as Collected Dose Description", "type": "Root Data Element"}, "sdtmigDatasetMappingTargets": [{"href": "/mdr/sdtmig/3-3/datasets/EC/variables/ECDOSTXT", "title": "Dose Description", "type": "SDTM Dataset Variable"}, {"href": "/mdr/sdtmig/3-3/datasets/EC/variables/ECDOSE", "title": "Dose", "type": "SDTM Dataset Variable"}], "self": {"href": "/mdr/cdashig/2-2/domains/EC/fields/ECDSTXT", "title": "Exposure as Collected Dose Description", "type": "Data Collection Field"}}, "completionInstructions": "Record the dose or amount of study treatment that was administered to/taken by the subject in the period recorded; from the start date/time to the end date/time inclusive.", "core": "R/C", "definition": "The dose of study medication taken (per administration).", "implementationNotes": "Dose or amount taken for single administration of study treatment or per constant dosing interval recorded. Dose must be collected if it cannot be determined via other methods (e.g., from diary data, drug accountability data, protocol). Care should be taken when mapping ECDSTXT. The data collected in this dose text-format field should be separated or mapped to either ECDOSE if numeric or ECDOSTXT if text.", "label": "Exposure as Collected Dose Description", "mappingInstructions": "This does not map directly to an SDTMIG variable. The data collected in this dose text-format field should be mapped to either ECDOSE if numeric or ECDOSTXT if text.", "name": "ECDSTXT", "ordinal": "21", "prompt": "Dose", "questionText": "What was the dose (per administration) (of [study treatment/dose])?", "simpleDatatype": "Char"}, {"_links": {"codelist": [{"href": "/mdr/root/ct/sdtmct/codelists/C71620", "title": "Version-agnostic anchor resource for codelist C71620", "type": "Root Value Domain"}, {"href": "/mdr/root/ct/cdashct/codelists/C78423", "title": "Version-agnostic anchor resource for codelist C78423", "type": "Root Value Domain"}], "implements": {"href": "/mdr/cdash/1-2/classes/Interventions/fields/--DOSU", "title": "Dose Units", "type": "Class Variable"}, "parentDomain": {"href": "/mdr/cdashig/2-2/domains/EC", "title": "Exposure as Collected", "type": "CDASH Domain"}, "parentProduct": {"href": "/mdr/cdashig/2-2", "title": "Clinical Data Acquisition Standards Harmonization Implementation Guide for Human Clinical Trials Version 2.2", "type": "Implementation Guide"}, "priorVersion": {"href": "/mdr/cdashig/2-1/domains/EC/fields/ECDOSU", "title": "Exposure as Collected Dose Units", "type": "Data Collection Field"}, "rootItem": {"href": "/mdr/root/cdashig/domains/EC/fields/ECDOSU", "title": "Exposure as Collected Dose Units", "type": "Root Data Element"}, "sdtmigDatasetMappingTargets": [{"href": "/mdr/sdtmig/3-3/datasets/EC/variables/ECDOSU", "title": "Dose Units", "type": "SDTM Dataset Variable"}], "self": {"href": "/mdr/cdashig/2-2/domains/EC/fields/ECDOSU", "title": "Exposure as Collected Dose Units", "type": "Data Collection Field"}}, "completionInstructions": "Record the unit of dose or amount taken per period recorded (e.g., ng, mg, mg/kg).", "core": "R/C", "definition": "The unit for intended dose (per administration) for ECDOSE, ECDOSTOT, or ECDOSTXT.", "implementationNotes": "Unit of dose or amount taken per constant dosing interval recorded. Dose unit must be collected if it cannot be determined via other methods (e.g., from protocol, randomization data). The unit should be pre-printed on the CRF or a field provided on the CRF to capture it. A CDASH Subset Controlled Terminology Codelist Name is available for dose and volume units. In blinded trials, the collected unit may be tablet, capsule, etc., since the actual unit is also blinded.", "label": "Exposure as Collected Dose Units", "mappingInstructions": "Maps directly to the SDTMIG variable listed in the SDTMIG Target column.", "name": "ECDOSU", "ordinal": "22", "prompt": "Units", "questionText": "What were the units for the dose?", "simpleDatatype": "Char"}, {"_links": {"codelist": [{"href": "/mdr/root/ct/sdtmct/codelists/C71113", "title": "Version-agnostic anchor resource for codelist C71113", "type": "Root Value Domain"}, {"href": "/mdr/root/ct/cdashct/codelists/C78745", "title": "Version-agnostic anchor resource for codelist C78745", "type": "Root Value Domain"}], "implements": {"href": "/mdr/cdash/1-2/classes/Interventions/fields/--DOSFRQ", "title": "Dosing Frequency per Interval", "type": "Class Variable"}, "parentDomain": {"href": "/mdr/cdashig/2-2/domains/EC", "title": "Exposure as Collected", "type": "CDASH Domain"}, "parentProduct": {"href": "/mdr/cdashig/2-2", "title": "Clinical Data Acquisition Standards Harmonization Implementation Guide for Human Clinical Trials Version 2.2", "type": "Implementation Guide"}, "priorVersion": {"href": "/mdr/cdashig/2-1/domains/EC/fields/ECDOSFRQ", "title": "EC Dosing Frequency per Interval", "type": "Data Collection Field"}, "rootItem": {"href": "/mdr/root/cdashig/domains/EC/fields/ECDOSFRQ", "title": "EC Dosing Frequency per Interval", "type": "Root Data Element"}, "sdtmigDatasetMappingTargets": [{"href": "/mdr/sdtmig/3-3/datasets/EC/variables/ECDOSFRQ", "title": "Dosing Frequency per Interval", "type": "SDTM Dataset Variable"}], "self": {"href": "/mdr/cdashig/2-2/domains/EC/fields/ECDOSFRQ", "title": "EC Dosing Frequency per Interval", "type": "Data Collection Field"}}, "completionInstructions": "Record the frequency the study treatment was administered for a defined period of time (e.g., BID, QID, TID).", "core": "R/C", "definition": "The number of doses given/administered/taken during a specific interval.", "implementationNotes": "This may be collected if it cannot be determined from other sources or if there are multiple options. When possible, the options for dose/amount frequency are pre-printed on the CRF. When collected, the recommendation is to collect dosing information in separate fields (e.g., ECDOSE, ECDOSEU, ECDOSFRQ) for specific and consistent data collection and to enable programmatically using these data.", "label": "EC Dosing Frequency per Interval", "mappingInstructions": "Maps directly to the SDTMIG variable listed in the SDTMIG Target column.", "name": "ECDOSFRQ", "ordinal": "23", "prompt": "Frequency", "questionText": "What was the frequency of [study treatment/dose] dosing?", "simpleDatatype": "Char"}, {"_links": {"codelist": [{"href": "/mdr/root/ct/sdtmct/codelists/C66729", "title": "Version-agnostic anchor resource for codelist C66729", "type": "Root Value Domain"}, {"href": "/mdr/root/ct/cdashct/codelists/C78425", "title": "Version-agnostic anchor resource for codelist C78425", "type": "Root Value Domain"}], "implements": {"href": "/mdr/cdash/1-2/classes/Interventions/fields/--ROUTE", "title": "Route of Administration", "type": "Class Variable"}, "parentDomain": {"href": "/mdr/cdashig/2-2/domains/EC", "title": "Exposure as Collected", "type": "CDASH Domain"}, "parentProduct": {"href": "/mdr/cdashig/2-2", "title": "Clinical Data Acquisition Standards Harmonization Implementation Guide for Human Clinical Trials Version 2.2", "type": "Implementation Guide"}, "priorVersion": {"href": "/mdr/cdashig/2-1/domains/EC/fields/ECROUTE", "title": "EC Route of Administration", "type": "Data Collection Field"}, "rootItem": {"href": "/mdr/root/cdashig/domains/EC/fields/ECROUTE", "title": "EC Route of Administration", "type": "Root Data Element"}, "sdtmigDatasetMappingTargets": [{"href": "/mdr/sdtmig/3-3/datasets/EC/variables/ECROUTE", "title": "Route of Administration", "type": "SDTM Dataset Variable"}], "self": {"href": "/mdr/cdashig/2-2/domains/EC/fields/ECROUTE", "title": "EC Route of Administration", "type": "Data Collection Field"}}, "completionInstructions": "Record the route of administration (e.g., IV, ORAL, TRANSDERMAL) or enter the appropriate code from the code list.", "core": "R/C", "definition": "The route of administration of the study treatment.", "implementationNotes": "This may be collected if it cannot be determined via other methods (e.g., from protocol) or if there are multiple options.", "label": "EC Route of Administration", "mappingInstructions": "Maps directly to the SDTMIG variable listed in the SDTMIG Target column.", "name": "ECROUTE", "ordinal": "24", "prompt": "Route", "questionText": "What was the route of administration (of the [study treatment/dose])?", "simpleDatatype": "Char"}, {"_links": {"implements": {"href": "/mdr/cdash/1-2/classes/Interventions/fields/--DOSRGM", "title": "Intended Dose Regimen", "type": "Class Variable"}, "parentDomain": {"href": "/mdr/cdashig/2-2/domains/EC", "title": "Exposure as Collected", "type": "CDASH Domain"}, "parentProduct": {"href": "/mdr/cdashig/2-2", "title": "Clinical Data Acquisition Standards Harmonization Implementation Guide for Human Clinical Trials Version 2.2", "type": "Implementation Guide"}, "priorVersion": {"href": "/mdr/cdashig/2-1/domains/EC/fields/ECDOSRGM", "title": "Intended Dose Regimen", "type": "Data Collection Field"}, "rootItem": {"href": "/mdr/root/cdashig/domains/EC/fields/ECDOSRGM", "title": "Intended Dose Regimen", "type": "Root Data Element"}, "sdtmigDatasetMappingTargets": [{"href": "/mdr/sdtmig/3-3/datasets/EC/variables/ECDOSRGM", "title": "Intended Dose Regimen", "type": "SDTM Dataset Variable"}], "self": {"href": "/mdr/cdashig/2-2/domains/EC/fields/ECDOSRGM", "title": "Intended Dose Regimen", "type": "Data Collection Field"}}, "completionInstructions": "Record the regimen for the study medication.", "core": "O", "definition": "Text description of the intended schedule or regimen for the Intervention.", "implementationNotes": "The regimen information (e.g., TWO WEEKS ON, TWO WEEKS OFF) may further clarify the dose administration and dose frequency. This may be pre-printed or collected. The sponsor may wish to create a codelist to collect this data consistently.", "label": "Intended Dose Regimen", "mappingInstructions": "Maps directly to the SDTMIG variable listed in the SDTMIG Target column.", "name": "ECDOSRGM", "ordinal": "25", "prompt": "Intended Dose Regimen", "questionText": "What was the intended dose regimen?", "simpleDatatype": "Char"}, {"_links": {"codelist": [{"href": "/mdr/root/ct/sdtmct/codelists/C66742", "title": "Version-agnostic anchor resource for codelist C66742", "type": "Root Value Domain"}], "implements": {"href": "/mdr/cdash/1-2/classes/Interventions/fields/--DOSADJ", "title": "Dose Adjusted", "type": "Class Variable"}, "parentDomain": {"href": "/mdr/cdashig/2-2/domains/EC", "title": "Exposure as Collected", "type": "CDASH Domain"}, "parentProduct": {"href": "/mdr/cdashig/2-2", "title": "Clinical Data Acquisition Standards Harmonization Implementation Guide for Human Clinical Trials Version 2.2", "type": "Implementation Guide"}, "priorVersion": {"href": "/mdr/cdashig/2-1/domains/EC/fields/ECDOSADJ", "title": "Dose Adjusted", "type": "Data Collection Field"}, "rootItem": {"href": "/mdr/root/cdashig/domains/EC/fields/ECDOSADJ", "title": "Dose Adjusted", "type": "Root Data Element"}, "self": {"href": "/mdr/cdashig/2-2/domains/EC/fields/ECDOSADJ", "title": "Dose Adjusted", "type": "Data Collection Field"}}, "completionInstructions": "Select either Yes or No to indicate whether there was a change in dosing.", "core": "O", "definition": "An indication of whether the dose was adjusted.", "implementationNotes": "Typically, the intent/purpose of collecting this field is to help with data cleaning and monitoring, as it provides a definitive response regarding any dose changes. It provides verification that the associated field on the CRF (ECADJ) was deliberately left blank. However, the sponsor may collect whether the dose was adjusted, without collecting the reason for the change. When using ECMOOD, this field should not be used.", "label": "Dose Adjusted", "mappingInstructions": "When ECADJ is collected, does not map to an SDTMIG variable. The SDTM annotated CRF indicates that this field is NOT SUBMITTED. When ECADJ is not collected, the sponsor may submit this variable in SUPPEC.", "name": "ECDOSADJ", "ordinal": "26", "prompt": "(Dose) Adjusted", "questionText": "Was the dose adjusted?", "simpleDatatype": "Char"}, {"_links": {"implements": {"href": "/mdr/cdash/1-2/classes/Interventions/fields/--ADJ", "title": "Reason for Dose Adjustment", "type": "Class Variable"}, "parentDomain": {"href": "/mdr/cdashig/2-2/domains/EC", "title": "Exposure as Collected", "type": "CDASH Domain"}, "parentProduct": {"href": "/mdr/cdashig/2-2", "title": "Clinical Data Acquisition Standards Harmonization Implementation Guide for Human Clinical Trials Version 2.2", "type": "Implementation Guide"}, "priorVersion": {"href": "/mdr/cdashig/2-1/domains/EC/fields/ECADJ", "title": "Reason for Dose Adjustment", "type": "Data Collection Field"}, "rootItem": {"href": "/mdr/root/cdashig/domains/EC/fields/ECADJ", "title": "Reason for Dose Adjustment", "type": "Root Data Element"}, "sdtmigDatasetMappingTargets": [{"href": "/mdr/sdtmig/3-3/datasets/EC/variables/ECADJ", "title": "Reason for Dose Adjustment", "type": "SDTM Dataset Variable"}], "self": {"href": "/mdr/cdashig/2-2/domains/EC/fields/ECADJ", "title": "Reason for Dose Adjustment", "type": "Data Collection Field"}}, "completionInstructions": "If there was a change in dosing, record the reason for change.", "core": "O", "definition": "Description of or explanation for why a dose of the study treatment was adjusted.", "implementationNotes": "Captures the reason the dose was changed or modified. The reason may be chosen from a sponsor-defined list (e.g., adverse event, insufficient response) or entered as free text. May be used for variations from protocol-specified doses, or changes from expected doses. Used only when an adjustment is represented in EX dataset.", "label": "Reason for Dose Adjustment", "mappingInstructions": "Maps directly to the SDTMIG variable listed in the SDTMIG Target column.", "name": "ECADJ", "ordinal": "27", "prompt": "Reason Adjusted", "questionText": "What was the reason the dose was adjusted?", "simpleDatatype": "Char"}, {"_links": {"codelist": [{"href": "/mdr/root/ct/sdtmct/codelists/C66742", "title": "Version-agnostic anchor resource for codelist C66742", "type": "Root Value Domain"}], "implements": {"href": "/mdr/cdash/1-2/classes/Interventions/fields/--ITRPYN", "title": "Intervention Interrupted", "type": "Class Variable"}, "parentDomain": {"href": "/mdr/cdashig/2-2/domains/EC", "title": "Exposure as Collected", "type": "CDASH Domain"}, "parentProduct": {"href": "/mdr/cdashig/2-2", "title": "Clinical Data Acquisition Standards Harmonization Implementation Guide for Human Clinical Trials Version 2.2", "type": "Implementation Guide"}, "priorVersion": {"href": "/mdr/cdashig/2-1/domains/EC/fields/ECITRPYN", "title": "EC Exposure Interrupted", "type": "Data Collection Field"}, "rootItem": {"href": "/mdr/root/cdashig/domains/EC/fields/ECITRPYN", "title": "EC Exposure Interrupted", "type": "Root Data Element"}, "self": {"href": "/mdr/cdashig/2-2/domains/EC/fields/ECITRPYN", "title": "EC Exposure Interrupted", "type": "Data Collection Field"}}, "completionInstructions": "Record if there was an interruption in the study treatment or dosing.", "core": "O", "definition": "An indication of whether the exposure was interrupted.", "implementationNotes": "The intent/purpose of collecting this field is to help with data cleaning and monitoring when the actual duration of the exposure is collected using the CDASH field ECCINTD. In some situations, if the actual duration of the interruption is not collected or not derived, this information could be submitted in a SUPPEC.QVAL dataset where SUPPEC.QNAM = \"ECITRPYN\" and SUPPEC.QLABEL = \"Exposure Interrupted\".", "label": "EC Exposure Interrupted", "mappingInstructions": "Does not map to an SDTMIG variable. The SDTM annotated CRF indicates that this field is NOT SUBMITTED..", "name": "ECITRPYN", "ordinal": "28", "prompt": "[(Study) Treatment / Dose] Interrupted", "questionText": "Was the [(study) treatment/dose] interrupted?", "simpleDatatype": "Char"}, {"_links": {"implements": {"href": "/mdr/cdash/1-2/classes/Interventions/fields/--CINTD", "title": "Interruption Duration", "type": "Class Variable"}, "parentDomain": {"href": "/mdr/cdashig/2-2/domains/EC", "title": "Exposure as Collected", "type": "CDASH Domain"}, "parentProduct": {"href": "/mdr/cdashig/2-2", "title": "Clinical Data Acquisition Standards Harmonization Implementation Guide for Human Clinical Trials Version 2.2", "type": "Implementation Guide"}, "priorVersion": {"href": "/mdr/cdashig/2-1/domains/EC/fields/ECCINTD", "title": "EC Interruption Duration", "type": "Data Collection Field"}, "rootItem": {"href": "/mdr/root/cdashig/domains/EC/fields/ECCINTD", "title": "EC Interruption Duration", "type": "Root Data Element"}, "sdtmigDatasetMappingTargets": [{"href": "/mdr/sdtmig/3-3/datasets/SUPPQUAL/variables/QVAL", "title": "Data Value", "type": "SDTM Dataset Variable"}], "self": {"href": "/mdr/cdashig/2-2/domains/EC/fields/ECCINTD", "title": "EC Interruption Duration", "type": "Data Collection Field"}}, "completionInstructions": "Record the duration of treatment interruption.", "core": "O", "definition": "The collected duration of the treatment interruption.", "implementationNotes": "This field is used to collect the duration of treatment interruption. In some situations, the duration of the interruption may not be collected but calculated from the treatment start and end times recorded elsewhere in the CRF.", "label": "EC Interruption Duration", "mappingInstructions": "This does not map directly to an SDTMIG variable. This information could be submitted in a SUPPEC dataset as the value of SUPPEC.QVAL where SUPPEC.QNAM=\"ECITRPD\" and SUPPEC.QLABEL= \"Interruption Duration\". Concatenate the collected treatment interruption duration and the duration unit components and create ECITRPD using ISO 8601 Period format. Refer to the current SDTM and SDTMIG for instructions on placement of NSVs in SDTM domains.", "name": "ECCINTD", "ordinal": "29", "prompt": "(Interruption) Duration", "questionText": "What was the duration of the treatment interruption?", "simpleDatatype": "Char"}, {"_links": {"codelist": [{"href": "/mdr/root/ct/sdtmct/codelists/C71620", "title": "Version-agnostic anchor resource for codelist C71620", "type": "Root Value Domain"}], "implements": {"href": "/mdr/cdash/1-2/classes/Interventions/fields/--CINTDU", "title": "Interruption Duration Unit", "type": "Class Variable"}, "parentDomain": {"href": "/mdr/cdashig/2-2/domains/EC", "title": "Exposure as Collected", "type": "CDASH Domain"}, "parentProduct": {"href": "/mdr/cdashig/2-2", "title": "Clinical Data Acquisition Standards Harmonization Implementation Guide for Human Clinical Trials Version 2.2", "type": "Implementation Guide"}, "priorVersion": {"href": "/mdr/cdashig/2-1/domains/EC/fields/ECCINTDU", "title": "EC Interruption Duration Units", "type": "Data Collection Field"}, "rootItem": {"href": "/mdr/root/cdashig/domains/EC/fields/ECCINTDU", "title": "EC Interruption Duration Units", "type": "Root Data Element"}, "sdtmigDatasetMappingTargets": [{"href": "/mdr/sdtmig/3-3/datasets/SUPPQUAL/variables/QVAL", "title": "Data Value", "type": "SDTM Dataset Variable"}], "self": {"href": "/mdr/cdashig/2-2/domains/EC/fields/ECCINTDU", "title": "EC Interruption Duration Units", "type": "Data Collection Field"}}, "completionInstructions": "Record the unit (e.g., MINUTES, HOURS, DAYS) for the duration of treatment interruption.", "core": "O", "definition": "The unit for the collected duration of treatment interruption.", "implementationNotes": "The unit should be collected as a qualifier to the number for duration.", "label": "EC Interruption Duration Units", "mappingInstructions": "This does not map directly to an SDTMIG variable. This information could be submitted in a SUPPEC dataset as the value of SUPPEC.QVAL where SUPPEC.QNAM = \"ECITRPD\" and SUPPEC.QLABEL= \"Interruption Duration\". Concatenate the collected treatment interruption duration and the duration unit components and create ECITRPD using ISO 8601 Period format. Refer to the current SDTM and SDTMIG for instructions on placement of NSVs in SDTM domains.", "name": "ECCINTDU", "ordinal": "30", "prompt": "(Interruption Duration) Unit", "questionText": "What was the interruption duration unit?", "simpleDatatype": "Char"}, {"_links": {"codelist": [{"href": "/mdr/root/ct/sdtmct/codelists/C74456", "title": "Version-agnostic anchor resource for codelist C74456", "type": "Root Value Domain"}], "implements": {"href": "/mdr/cdash/1-2/classes/Interventions/fields/--LOC", "title": "Location of Dose Administration", "type": "Class Variable"}, "parentDomain": {"href": "/mdr/cdashig/2-2/domains/EC", "title": "Exposure as Collected", "type": "CDASH Domain"}, "parentProduct": {"href": "/mdr/cdashig/2-2", "title": "Clinical Data Acquisition Standards Harmonization Implementation Guide for Human Clinical Trials Version 2.2", "type": "Implementation Guide"}, "priorVersion": {"href": "/mdr/cdashig/2-1/domains/EC/fields/ECLOC", "title": "EC Location of Dose Administration", "type": "Data Collection Field"}, "rootItem": {"href": "/mdr/root/cdashig/domains/EC/fields/ECLOC", "title": "EC Location of Dose Administration", "type": "Root Data Element"}, "sdtmigDatasetMappingTargets": [{"href": "/mdr/sdtmig/3-3/datasets/EC/variables/ECLOC", "title": "Location of Dose Administration", "type": "SDTM Dataset Variable"}], "self": {"href": "/mdr/cdashig/2-2/domains/EC/fields/ECLOC", "title": "EC Location of Dose Administration", "type": "Data Collection Field"}}, "completionInstructions": "Record the body location where the study treatment was administered (e.g., SHOULDER, HIP, ARM).", "core": "O", "definition": "A description of the anatomical location of administration.", "implementationNotes": "Collected or pre-printed when the sponsor needs to identify the specific anatomical location where the study treatment was administered. LAT, DIR, PORTOT are used to further describe the anatomical location.", "label": "EC Location of Dose Administration", "mappingInstructions": "Maps directly to the SDTMIG variable listed in the SDTMIG Target column.", "name": "ECLOC", "ordinal": "31", "prompt": "Anatomical Location", "questionText": "What was the anatomical location of the ([study treatment/dose]) administration?", "simpleDatatype": "Char"}, {"_links": {"codelist": [{"href": "/mdr/root/ct/sdtmct/codelists/C99073", "title": "Version-agnostic anchor resource for codelist C99073", "type": "Root Value Domain"}], "implements": {"href": "/mdr/cdash/1-2/classes/Interventions/fields/--LAT", "title": "Laterality", "type": "Class Variable"}, "parentDomain": {"href": "/mdr/cdashig/2-2/domains/EC", "title": "Exposure as Collected", "type": "CDASH Domain"}, "parentProduct": {"href": "/mdr/cdashig/2-2", "title": "Clinical Data Acquisition Standards Harmonization Implementation Guide for Human Clinical Trials Version 2.2", "type": "Implementation Guide"}, "priorVersion": {"href": "/mdr/cdashig/2-1/domains/EC/fields/ECLAT", "title": "Exposure as Collected Laterality", "type": "Data Collection Field"}, "rootItem": {"href": "/mdr/root/cdashig/domains/EC/fields/ECLAT", "title": "Exposure as Collected Laterality", "type": "Root Data Element"}, "sdtmigDatasetMappingTargets": [{"href": "/mdr/sdtmig/3-3/datasets/EC/variables/ECLAT", "title": "Laterality", "type": "SDTM Dataset Variable"}], "self": {"href": "/mdr/cdashig/2-2/domains/EC/fields/ECLAT", "title": "Exposure as Collected Laterality", "type": "Data Collection Field"}}, "completionInstructions": "Record the side of the body location where the study treatment was administered (e.g., Left, Right).", "core": "O", "definition": "Qualifier for anatomical location, further detailing side of the body for the study treatment administration.", "implementationNotes": "Further details the laterality of the location where the study treatment was administered. This may be pre-printed or collected. Sponsors may collect the data using a subset list of controlled terminology on the CRF.", "label": "Exposure as Collected Laterality", "mappingInstructions": "Maps directly to the SDTMIG variable listed in the SDTMIG Target column.", "name": "ECLAT", "ordinal": "32", "prompt": "Side", "questionText": "What was the side of the anatomical location of the ([study treatment/dose]) administration?", "simpleDatatype": "Char"}, {"_links": {"codelist": [{"href": "/mdr/root/ct/sdtmct/codelists/C99074", "title": "Version-agnostic anchor resource for codelist C99074", "type": "Root Value Domain"}], "implements": {"href": "/mdr/cdash/1-2/classes/Interventions/fields/--DIR", "title": "Directionality", "type": "Class Variable"}, "parentDomain": {"href": "/mdr/cdashig/2-2/domains/EC", "title": "Exposure as Collected", "type": "CDASH Domain"}, "parentProduct": {"href": "/mdr/cdashig/2-2", "title": "Clinical Data Acquisition Standards Harmonization Implementation Guide for Human Clinical Trials Version 2.2", "type": "Implementation Guide"}, "priorVersion": {"href": "/mdr/cdashig/2-1/domains/EC/fields/ECDIR", "title": "Exposure as Collected Directionality", "type": "Data Collection Field"}, "rootItem": {"href": "/mdr/root/cdashig/domains/EC/fields/ECDIR", "title": "Exposure as Collected Directionality", "type": "Root Data Element"}, "sdtmigDatasetMappingTargets": [{"href": "/mdr/sdtmig/3-3/datasets/EC/variables/ECDIR", "title": "Directionality", "type": "SDTM Dataset Variable"}], "self": {"href": "/mdr/cdashig/2-2/domains/EC/fields/ECDIR", "title": "Exposure as Collected Directionality", "type": "Data Collection Field"}}, "completionInstructions": "Record the directionality of the body location where the study treatment was administered (e.g., Anterior, Lower, Proximal, Upper).", "core": "O", "definition": "Qualifier further detailing the position of the anatomical location relative to the center of the body, organ, or specimen.", "implementationNotes": "May be pre-printed or collected when the sponsor needs to identify the directionality of the anatomical location. Sponsors may collect the data using a subset list of controlled terminology on the CRF.", "label": "Exposure as Collected Directionality", "mappingInstructions": "Maps directly to the SDTMIG variable listed in the SDTMIG Target column.", "name": "ECDIR", "ordinal": "33", "prompt": "Directionality", "questionText": "What was the directionality of the anatomical location of the ([study treatment/dose]) administration?", "simpleDatatype": "Char"}, {"_links": {"implements": {"href": "/mdr/cdash/1-2/classes/Interventions/fields/--VAMT", "title": "Treatment Vehicle Amount", "type": "Class Variable"}, "parentDomain": {"href": "/mdr/cdashig/2-2/domains/EC", "title": "Exposure as Collected", "type": "CDASH Domain"}, "parentProduct": {"href": "/mdr/cdashig/2-2", "title": "Clinical Data Acquisition Standards Harmonization Implementation Guide for Human Clinical Trials Version 2.2", "type": "Implementation Guide"}, "priorVersion": {"href": "/mdr/cdashig/2-1/domains/EC/fields/ECVAMT", "title": "EC Vehicle Amount", "type": "Data Collection Field"}, "rootItem": {"href": "/mdr/root/cdashig/domains/EC/fields/ECVAMT", "title": "EC Vehicle Amount", "type": "Root Data Element"}, "self": {"href": "/mdr/cdashig/2-2/domains/EC/fields/ECVAMT", "title": "EC Vehicle Amount", "type": "Data Collection Field"}}, "completionInstructions": "Record the total amount (treatment +vehicle) that was administered/given to the subject.", "core": "O", "definition": "The amount of the prepared product (treatment + vehicle) administered or given.", "implementationNotes": "Administration amount that was given to the subject. \\n Note: Should not be the diluent amount alone. The ECTRTV field may be collected if it cannot be determined from other sources.", "label": "EC Vehicle Amount", "mappingInstructions": "Maps directly to the SDTMIG variable listed in the SDTMIG Target column. The SDTM variable ECTRTV may also be populated during the process of creating the SDTM submission datasets.", "name": "ECVAMT", "ordinal": "34", "prompt": "Total Amount (Drug + Vehicle)", "questionText": "What was the total amount (Drug + Vehicle) (of [study treatment/dose]) administered?", "simpleDatatype": "Num"}, {"_links": {"codelist": [{"href": "/mdr/root/ct/sdtmct/codelists/C71620", "title": "Version-agnostic anchor resource for codelist C71620", "type": "Root Value Domain"}], "implements": {"href": "/mdr/cdash/1-2/classes/Interventions/fields/--VAMTU", "title": "Treatment Vehicle Amount Units", "type": "Class Variable"}, "parentDomain": {"href": "/mdr/cdashig/2-2/domains/EC", "title": "Exposure as Collected", "type": "CDASH Domain"}, "parentProduct": {"href": "/mdr/cdashig/2-2", "title": "Clinical Data Acquisition Standards Harmonization Implementation Guide for Human Clinical Trials Version 2.2", "type": "Implementation Guide"}, "priorVersion": {"href": "/mdr/cdashig/2-1/domains/EC/fields/ECVAMTU", "title": "EC Vehicle Amount Units", "type": "Data Collection Field"}, "rootItem": {"href": "/mdr/root/cdashig/domains/EC/fields/ECVAMTU", "title": "EC Vehicle Amount Units", "type": "Root Data Element"}, "self": {"href": "/mdr/cdashig/2-2/domains/EC/fields/ECVAMTU", "title": "EC Vehicle Amount Units", "type": "Data Collection Field"}}, "completionInstructions": "Record the unit of total amount (treatment +vehicle) administered/given to the subject (e.g., mL).", "core": "O", "definition": "The unit of measurement for the prepared product (treatment + vehicle).", "implementationNotes": "Unit of the administration amount", "label": "EC Vehicle Amount Units", "mappingInstructions": "Maps directly to the SDTMIG variable listed in the SDTMIG Target column.", "name": "ECVAMTU", "ordinal": "35", "prompt": "Unit", "questionText": "What was the unit for the amount (of [study treatment/dose]) administered?", "simpleDatatype": "Char"}, {"_links": {"implements": {"href": "/mdr/cdash/1-2/classes/Interventions/fields/--FLRT", "title": "[ --TRT] Infusion Rate", "type": "Class Variable"}, "parentDomain": {"href": "/mdr/cdashig/2-2/domains/EC", "title": "Exposure as Collected", "type": "CDASH Domain"}, "parentProduct": {"href": "/mdr/cdashig/2-2", "title": "Clinical Data Acquisition Standards Harmonization Implementation Guide for Human Clinical Trials Version 2.2", "type": "Implementation Guide"}, "priorVersion": {"href": "/mdr/cdashig/2-1/domains/EC/fields/ECFLRT", "title": "Exposure as Collected Infusion Rate", "type": "Data Collection Field"}, "rootItem": {"href": "/mdr/root/cdashig/domains/EC/fields/ECFLRT", "title": "Exposure as Collected Infusion Rate", "type": "Root Data Element"}, "sdtmigDatasetMappingTargets": [{"href": "/mdr/sdtmig/3-3/datasets/SUPPQUAL/variables/QVAL", "title": "Data Value", "type": "SDTM Dataset Variable"}], "self": {"href": "/mdr/cdashig/2-2/domains/EC/fields/ECFLRT", "title": "Exposure as Collected Infusion Rate", "type": "Data Collection Field"}}, "completionInstructions": "Record the Rate of Infusion (e.g., if rate is 10 mL/min. Record 10 as the infusion rate).", "core": "O", "definition": "The flow rate for the total amount of drug + vehicle administered to the subject.", "implementationNotes": "The infusion rate can be used to derive dose.", "label": "Exposure as Collected Infusion Rate", "mappingInstructions": "This does not map directly to an SDTMIG variable. This information could be submitted in a SUPPEC dataset as the value of SUPPEC.QVAL where SUPPEC.QNAM=\"ECFLRT\" and SUPPEC.QLABEL= \"Infusion Rate\". Refer to the current SDTM and SDTMIG for instructions on placement of NSVs in SDTM domains.", "name": "ECFLRT", "ordinal": "36", "prompt": "Infusion Rate", "questionText": "What was the [study treatment/dose] infusion rate?", "simpleDatatype": "Num"}, {"_links": {"codelist": [{"href": "/mdr/root/ct/sdtmct/codelists/C71620", "title": "Version-agnostic anchor resource for codelist C71620", "type": "Root Value Domain"}, {"href": "/mdr/root/ct/cdashct/codelists/C78429", "title": "Version-agnostic anchor resource for codelist C78429", "type": "Root Value Domain"}], "implements": {"href": "/mdr/cdash/1-2/classes/Interventions/fields/--FLRTU", "title": "[--TRT] Infusion Rate Unit", "type": "Class Variable"}, "parentDomain": {"href": "/mdr/cdashig/2-2/domains/EC", "title": "Exposure as Collected", "type": "CDASH Domain"}, "parentProduct": {"href": "/mdr/cdashig/2-2", "title": "Clinical Data Acquisition Standards Harmonization Implementation Guide for Human Clinical Trials Version 2.2", "type": "Implementation Guide"}, "priorVersion": {"href": "/mdr/cdashig/2-1/domains/EC/fields/ECFLRTU", "title": "Exposure as Collected Infusion Rate Unit", "type": "Data Collection Field"}, "rootItem": {"href": "/mdr/root/cdashig/domains/EC/fields/ECFLRTU", "title": "Exposure as Collected Infusion Rate Unit", "type": "Root Data Element"}, "sdtmigDatasetMappingTargets": [{"href": "/mdr/sdtmig/3-3/datasets/SUPPQUAL/variables/QVAL", "title": "Data Value", "type": "SDTM Dataset Variable"}], "self": {"href": "/mdr/cdashig/2-2/domains/EC/fields/ECFLRTU", "title": "Exposure as Collected Infusion Rate Unit", "type": "Data Collection Field"}}, "completionInstructions": "Record the unit for the infusion rate (e.g., mL/min).", "core": "O", "definition": "The unit of measure for the flow rate for the total amount of drug + vehicle administered to the subject.", "implementationNotes": "Unit of the infusion rate", "label": "Exposure as Collected Infusion Rate Unit", "mappingInstructions": "This does not map directly to an SDTMIG variable. This information could be submitted in a SUPPEC dataset as the value of SUPPEC.QVAL where SUPPEC.QNAM=\"ECFLRTU\" and SUPPEC.QLABEL= \"Infusion Rate Unit\". Refer to the current SDTM and SDTMIG for instructions on placement of NSVs in SDTM domains.", "name": "ECFLRTU", "ordinal": "37", "prompt": "Infusion Rate Unit", "questionText": "What was the unit for the ([study treatment/dose]) infusion rate?", "simpleDatatype": "Char"}, {"_links": {"implements": {"href": "/mdr/cdash/1-2/classes/Timing/fields/--TPT", "title": "Planned Time Point Name", "type": "Class Variable"}, "parentDomain": {"href": "/mdr/cdashig/2-2/domains/EC", "title": "Exposure as Collected", "type": "CDASH Domain"}, "parentProduct": {"href": "/mdr/cdashig/2-2", "title": "Clinical Data Acquisition Standards Harmonization Implementation Guide for Human Clinical Trials Version 2.2", "type": "Implementation Guide"}, "priorVersion": {"href": "/mdr/cdashig/2-1/domains/EC/fields/ECTPT", "title": "EC Planned Time Point Name", "type": "Data Collection Field"}, "rootItem": {"href": "/mdr/root/cdashig/domains/EC/fields/ECTPT", "title": "EC Planned Time Point Name", "type": "Root Data Element"}, "sdtmigDatasetMappingTargets": [{"href": "/mdr/sdtmig/3-3/datasets/EC/variables/ECTPT", "title": "Planned Time Point Name", "type": "SDTM Dataset Variable"}], "self": {"href": "/mdr/cdashig/2-2/domains/EC/fields/ECTPT", "title": "EC Planned Time Point Name", "type": "Data Collection Field"}}, "completionInstructions": "Record the planned time point of study treatment administration if not pre-printed on the CRF.", "core": "R/C", "definition": "A text description of the planned time point when measurements should be taken, as defined in the protocol.", "implementationNotes": "Planned time points are needed to differentiate multiple sequential assessments. It is recommended that time points should be pre-printed on the CRF rather than collected in a field that requires the site to enter text. If the form is laid out as a grid, then words such as Planned Time Point can be included as the column heading.", "label": "EC Planned Time Point Name", "mappingInstructions": "Maps directly to the SDTMIG variable listed in the SDTMIG Target column. See the SDTMIG for additional information on representing time points. The SDTMIG time-point anchors ECTPTREF (text description) and ECRFTDTC (date/time) may be needed, as well as SDTMIG variables ECTPTNUM, ECELTM.", "name": "ECTPT", "ordinal": "38", "prompt": "[Planned Time Point Name]", "questionText": "What was the planned time point for [study treatment/dose]?", "simpleDatatype": "Char"}, {"_links": {"codelist": [{"href": "/mdr/root/ct/sdtmct/codelists/C66742", "title": "Version-agnostic anchor resource for codelist C66742", "type": "Root Value Domain"}], "implements": {"href": "/mdr/cdash/1-2/classes/Interventions/fields/--TRTCMP", "title": "Completed Treatment", "type": "Class Variable"}, "parentDomain": {"href": "/mdr/cdashig/2-2/domains/EC", "title": "Exposure as Collected", "type": "CDASH Domain"}, "parentProduct": {"href": "/mdr/cdashig/2-2", "title": "Clinical Data Acquisition Standards Harmonization Implementation Guide for Human Clinical Trials Version 2.2", "type": "Implementation Guide"}, "priorVersion": {"href": "/mdr/cdashig/2-1/domains/EC/fields/ECTRTCMP", "title": "Completed Treatment", "type": "Data Collection Field"}, "rootItem": {"href": "/mdr/root/cdashig/domains/EC/fields/ECTRTCMP", "title": "Completed Treatment", "type": "Root Data Element"}, "sdtmigDatasetMappingTargets": [{"href": "/mdr/sdtmig/3-3/datasets/SUPPQUAL/variables/QVAL", "title": "Data Value", "type": "SDTM Dataset Variable"}], "self": {"href": "/mdr/cdashig/2-2/domains/EC/fields/ECTRTCMP", "title": "Completed Treatment", "type": "Data Collection Field"}}, "completionInstructions": "Select either Yes or No to indicate whether subject has completed the full course of treatment.", "core": "O", "definition": "An indication of whether the subject completed the intended regimen.", "implementationNotes": "Depending on how the study treatment details are collected on the CRF/eCRF, it may be possible to derive those data if the regimen data are collected.", "label": "Completed Treatment", "mappingInstructions": "This does not map directly to an SDTMIG variable. This information could be submitted in a SUPPEC dataset as the value of SUPPEC.QVAL where SUPPEC.QNAM = \"ECTRTCMP\" and SUPPEC.QLABEL =\"Completed Treatment\". Refer to the current SDTM and SDTMIG for instructions on placement of NSVs in SDTM domains.", "name": "ECTRTCMP", "ordinal": "39", "prompt": "Completed Treatment", "questionText": "Did the subject complete the full course of [study treatment/dose]?", "simpleDatatype": "Char"}], "label": "Exposure as Collected", "name": "EC", "ordinal": "11"}
