{"_links": {"parentClass": {"href": "/mdr/cdashig/2-2/classes/Interventions", "title": "Interventions", "type": "Class"}, "parentProduct": {"href": "/mdr/cdashig/2-2", "title": "Clinical Data Acquisition Standards Harmonization Implementation Guide for Human Clinical Trials Version 2.2", "type": "Implementation Guide"}, "priorVersion": {"href": "/mdr/cdashig/2-1/domains/EX", "title": "Exposure", "type": "CDASH Domain"}, "self": {"href": "/mdr/cdashig/2-2/domains/EX", "title": "Exposure", "type": "CDASH Domain"}}, "description": "An interventions domain that contains the details of a subject's exposure to protocol-specified study treatment. Study treatment may be any intervention that is prospectively defined as a test material within a study, and is typically but not always supplied to the subject. (Source: CDISC Controlled Terminology, DOMAIN, C49587, 2021-06-25)", "fields": [{"_links": {"implements": {"href": "/mdr/cdash/1-2/classes/Identifiers/fields/STUDYID", "title": "Study Identifier", "type": "Class Variable"}, "parentDomain": {"href": "/mdr/cdashig/2-2/domains/EX", "title": "Exposure", "type": "CDASH Domain"}, "parentProduct": {"href": "/mdr/cdashig/2-2", "title": "Clinical Data Acquisition Standards Harmonization Implementation Guide for Human Clinical Trials Version 2.2", "type": "Implementation Guide"}, "priorVersion": {"href": "/mdr/cdashig/2-1/domains/EX/fields/STUDYID", "title": "Study Identifier", "type": "Data Collection Field"}, "rootItem": {"href": "/mdr/root/cdashig/domains/EX/fields/STUDYID", "title": "Study Identifier", "type": "Root Data Element"}, "sdtmigDatasetMappingTargets": [{"href": "/mdr/sdtmig/3-3/datasets/EX/variables/STUDYID", "title": "Study Identifier", "type": "SDTM Dataset Variable"}], "self": {"href": "/mdr/cdashig/2-2/domains/EX/fields/STUDYID", "title": "Study Identifier", "type": "Data Collection Field"}}, "core": "HR", "definition": "A unique identifier for a study.", "implementationNotes": "Although this field is not typically captured on a CRF, it should be displayed clearly on the CRF and/or in the EDC system. This field can be included into the database or populated during SDTM-based dataset creation before submission.", "label": "Study Identifier", "mappingInstructions": "Maps directly to the SDTMIG variable listed in the SDTMIG Target column.", "name": "STUDYID", "ordinal": "1", "prompt": "[Protocol/Study]", "questionText": "What is the study identifier?", "simpleDatatype": "Char"}, {"_links": {"implements": {"href": "/mdr/cdash/1-2/classes/Identifiers/fields/SITEID", "title": "Study Site Identifier", "type": "Class Variable"}, "parentDomain": {"href": "/mdr/cdashig/2-2/domains/EX", "title": "Exposure", "type": "CDASH Domain"}, "parentProduct": {"href": "/mdr/cdashig/2-2", "title": "Clinical Data Acquisition Standards Harmonization Implementation Guide for Human Clinical Trials Version 2.2", "type": "Implementation Guide"}, "priorVersion": {"href": "/mdr/cdashig/2-1/domains/EX/fields/SITEID", "title": "Study Site Identifier", "type": "Data Collection Field"}, "rootItem": {"href": "/mdr/root/cdashig/domains/EX/fields/SITEID", "title": "Study Site Identifier", "type": "Root Data Element"}, "sdtmigDatasetMappingTargets": [{"href": "/mdr/sdtmig/3-3/datasets/DM/variables/SITEID", "title": "Study Site Identifier", "type": "SDTM Dataset Variable"}], "self": {"href": "/mdr/cdashig/2-2/domains/EX/fields/SITEID", "title": "Study Site Identifier", "type": "Data Collection Field"}}, "core": "HR", "definition": "A unique identifier for a site within a study.", "implementationNotes": "Paper: This is typically pre-printed in the header of each CRF page for single-site studies. For studies with multiple sites, this field may be left blank so that the number can be recorded by the site, or it may be pre-printed on the CRFs that are shipped to each site. \\n EDC: This should be pre-populated.", "label": "Study Site Identifier", "mappingInstructions": "Maps directly to the SDTMIG variable listed in the SDTMIG Target column.", "name": "SITEID", "ordinal": "2", "prompt": "Site (Identifier)", "questionText": "What is the site identifier?", "simpleDatatype": "Char"}, {"_links": {"implements": {"href": "/mdr/cdash/1-2/classes/Identifiers/fields/SUBJID", "title": "Subject Identifier for the Study", "type": "Class Variable"}, "parentDomain": {"href": "/mdr/cdashig/2-2/domains/EX", "title": "Exposure", "type": "CDASH Domain"}, "parentProduct": {"href": "/mdr/cdashig/2-2", "title": "Clinical Data Acquisition Standards Harmonization Implementation Guide for Human Clinical Trials Version 2.2", "type": "Implementation Guide"}, "priorVersion": {"href": "/mdr/cdashig/2-1/domains/EX/fields/SUBJID", "title": "Subject Identifier for the Study", "type": "Data Collection Field"}, "rootItem": {"href": "/mdr/root/cdashig/domains/EX/fields/SUBJID", "title": "Subject Identifier for the Study", "type": "Root Data Element"}, "sdtmigDatasetMappingTargets": [{"href": "/mdr/sdtmig/3-3/datasets/DM/variables/SUBJID", "title": "Subject Identifier for the Study", "type": "SDTM Dataset Variable"}], "self": {"href": "/mdr/cdashig/2-2/domains/EX/fields/SUBJID", "title": "Subject Identifier for the Study", "type": "Data Collection Field"}}, "completionInstructions": "Record the identifier for the subject.", "core": "HR", "definition": "A unique subject identifier within a site and a study.", "implementationNotes": "Paper: This is typically recorded in the header of each CRF page. EDC: The subject identifiers may be system-generated. This CDASH variable is typically collected in all CDASH domains. However, this CDASH variable is populated only in the SDTMIG DM domain. For more information, refer to the SDTMIG.", "label": "Subject Identifier for the Study", "mappingInstructions": "Maps directly to the SDTMIG variable listed in the SDTMIG Target column.", "name": "SUBJID", "ordinal": "3", "prompt": "[Subject/Participant] (Identifier)", "questionText": "What [is/was] the (study) [subject/participant] identifier?", "simpleDatatype": "Char"}, {"_links": {"codelist": [{"href": "/mdr/root/ct/sdtmct/codelists/C99079", "title": "Version-agnostic anchor resource for codelist C99079", "type": "Root Value Domain"}], "implements": {"href": "/mdr/cdash/1-2/classes/Timing/fields/EPOCH", "title": "Epoch", "type": "Class Variable"}, "parentDomain": {"href": "/mdr/cdashig/2-2/domains/EX", "title": "Exposure", "type": "CDASH Domain"}, "parentProduct": {"href": "/mdr/cdashig/2-2", "title": "Clinical Data Acquisition Standards Harmonization Implementation Guide for Human Clinical Trials Version 2.2", "type": "Implementation Guide"}, "priorVersion": {"href": "/mdr/cdashig/2-1/domains/EX/fields/EPOCH", "title": "Epoch", "type": "Data Collection Field"}, "rootItem": {"href": "/mdr/root/cdashig/domains/EX/fields/EPOCH", "title": "Epoch", "type": "Root Data Element"}, "sdtmigDatasetMappingTargets": [{"href": "/mdr/sdtmig/3-3/datasets/EX/variables/EPOCH", "title": "Epoch", "type": "SDTM Dataset Variable"}], "self": {"href": "/mdr/cdashig/2-2/domains/EX/fields/EPOCH", "title": "Epoch", "type": "Data Collection Field"}}, "completionInstructions": "[protocol specific]", "core": "R/C", "definition": "Name of the trial epoch with which this element of the arm is associated.", "implementationNotes": "If the same information is collected more than once in different periods/parts of a study (e.g., Disposition), EPOCH may be needed to differentiate them. Typically, the trial epoch will be pre-printed on the CRF as the title of the page. See the SDTMIG for further information regarding EPOCH.", "label": "Epoch", "mappingInstructions": "Maps directly to the SDTMIG variable listed in the SDTMIG Target column.", "name": "EPOCH", "ordinal": "4", "prompt": "[Epoch](Period/Phase/Sponsor-defined phrase)", "questionText": "What is the trial epoch?", "simpleDatatype": "Char"}, {"_links": {"codelist": [{"href": "/mdr/root/ct/sdtmct/codelists/C66742", "title": "Version-agnostic anchor resource for codelist C66742", "type": "Root Value Domain"}], "implements": {"href": "/mdr/cdash/1-2/classes/Interventions/fields/--YN", "title": "Any [Intervention]", "type": "Class Variable"}, "parentDomain": {"href": "/mdr/cdashig/2-2/domains/EX", "title": "Exposure", "type": "CDASH Domain"}, "parentProduct": {"href": "/mdr/cdashig/2-2", "title": "Clinical Data Acquisition Standards Harmonization Implementation Guide for Human Clinical Trials Version 2.2", "type": "Implementation Guide"}, "priorVersion": {"href": "/mdr/cdashig/2-1/domains/EX/fields/EXYN", "title": "Any Study Treatment Taken", "type": "Data Collection Field"}, "rootItem": {"href": "/mdr/root/cdashig/domains/EX/fields/EXYN", "title": "Any Study Treatment Taken", "type": "Root Data Element"}, "self": {"href": "/mdr/cdashig/2-2/domains/EX/fields/EXYN", "title": "Any Study Treatment Taken", "type": "Data Collection Field"}}, "completionInstructions": "Indicate if the subject took any study medications. If Yes, include the appropriate details where indicated.", "core": "O", "definition": "An indication of whether the subject took study medication/treatment.", "implementationNotes": "The intent/purpose of collecting this field is to help with data cleaning and monitoring. It provides verification that all other fields on the CRF were deliberately left blank. The EXYN variable is a cleaning or EDC convention meant to indicate that the exposure form should be completed or inserted into the case book.", "label": "Any Study Treatment Taken", "mappingInstructions": "Does not map to an SDTMIG variable. The SDTM annotated CRF indicates that this field is NOT SUBMITTED.", "name": "EXYN", "ordinal": "5", "prompt": "Any Study Treatments", "questionText": "Were any[study treatment/dose] taken?", "simpleDatatype": "Char"}, {"_links": {"implements": {"href": "/mdr/cdash/1-2/classes/Interventions/fields/--CAT", "title": "Category", "type": "Class Variable"}, "parentDomain": {"href": "/mdr/cdashig/2-2/domains/EX", "title": "Exposure", "type": "CDASH Domain"}, "parentProduct": {"href": "/mdr/cdashig/2-2", "title": "Clinical Data Acquisition Standards Harmonization Implementation Guide for Human Clinical Trials Version 2.2", "type": "Implementation Guide"}, "priorVersion": {"href": "/mdr/cdashig/2-1/domains/EX/fields/EXCAT", "title": "Category of Treatment", "type": "Data Collection Field"}, "rootItem": {"href": "/mdr/root/cdashig/domains/EX/fields/EXCAT", "title": "Category of Treatment", "type": "Root Data Element"}, "sdtmigDatasetMappingTargets": [{"href": "/mdr/sdtmig/3-3/datasets/EX/variables/EXCAT", "title": "Category of Treatment", "type": "SDTM Dataset Variable"}], "self": {"href": "/mdr/cdashig/2-2/domains/EX/fields/EXCAT", "title": "Category of Treatment", "type": "Data Collection Field"}}, "completionInstructions": "Record the study treatment category, if not pre-printed on the CRF.", "core": "O", "definition": "A grouping of topic-variable values based on user-defined characteristics.", "implementationNotes": "Sponsor-defined controlled terminology. This would most commonly be either a heading or a pre-printed category value on the CRF, and not a question to which the site would provide an answer. If a question is asked, the response would typically be a sponsor-defined codelist. If the form is laid out as a grid, then words such as \"Category\" can be included as the column header.", "label": "Category of Treatment", "mappingInstructions": "Maps directly to the SDTMIG variable listed in the SDTMIG Target column.", "name": "EXCAT", "ordinal": "6", "prompt": "[Study Treatment Category]; NULL", "questionText": "What is the category of the [study treatment/dose] ?", "simpleDatatype": "Char"}, {"_links": {"implements": {"href": "/mdr/cdash/1-2/classes/Interventions/fields/--SCAT", "title": "Subcategory", "type": "Class Variable"}, "parentDomain": {"href": "/mdr/cdashig/2-2/domains/EX", "title": "Exposure", "type": "CDASH Domain"}, "parentProduct": {"href": "/mdr/cdashig/2-2", "title": "Clinical Data Acquisition Standards Harmonization Implementation Guide for Human Clinical Trials Version 2.2", "type": "Implementation Guide"}, "priorVersion": {"href": "/mdr/cdashig/2-1/domains/EX/fields/EXSCAT", "title": "Subcategory of Treatment", "type": "Data Collection Field"}, "rootItem": {"href": "/mdr/root/cdashig/domains/EX/fields/EXSCAT", "title": "Subcategory of Treatment", "type": "Root Data Element"}, "sdtmigDatasetMappingTargets": [{"href": "/mdr/sdtmig/3-3/datasets/EX/variables/EXSCAT", "title": "Subcategory of Treatment", "type": "SDTM Dataset Variable"}], "self": {"href": "/mdr/cdashig/2-2/domains/EX/fields/EXSCAT", "title": "Subcategory of Treatment", "type": "Data Collection Field"}}, "completionInstructions": "Record the study treatment subcategory, if not pre-printed on the CRF.", "core": "O", "definition": "A sub-division of the EXCAT values based on user-defined characteristics.", "implementationNotes": "Sponsor-defined controlled terminology. This would most commonly be pre-printed on the CRF or screen and pre-populated in the data management system. This is not typically a question to which the site would provide an answer. EXSCAT can only be used if there is an EXCAT and it must be a subcategorization of EXCAT.", "label": "Subcategory of Treatment", "mappingInstructions": "Maps directly to the SDTMIG variable listed in the SDTMIG Target column.", "name": "EXSCAT", "ordinal": "7", "prompt": "[Study Treatment Subcategory]; NULL", "questionText": "What is the subcategory of the [study treatment/dose] ?", "simpleDatatype": "Char"}, {"_links": {"implements": {"href": "/mdr/cdash/1-2/classes/Interventions/fields/--TRT", "title": "Name of Treatment", "type": "Class Variable"}, "parentDomain": {"href": "/mdr/cdashig/2-2/domains/EX", "title": "Exposure", "type": "CDASH Domain"}, "parentProduct": {"href": "/mdr/cdashig/2-2", "title": "Clinical Data Acquisition Standards Harmonization Implementation Guide for Human Clinical Trials Version 2.2", "type": "Implementation Guide"}, "priorVersion": {"href": "/mdr/cdashig/2-1/domains/EX/fields/EXTRT", "title": "Name of Treatment", "type": "Data Collection Field"}, "rootItem": {"href": "/mdr/root/cdashig/domains/EX/fields/EXTRT", "title": "Name of Treatment", "type": "Root Data Element"}, "sdtmigDatasetMappingTargets": [{"href": "/mdr/sdtmig/3-3/datasets/EX/variables/EXTRT", "title": "Name of Treatment", "type": "SDTM Dataset Variable"}], "self": {"href": "/mdr/cdashig/2-2/domains/EX/fields/EXTRT", "title": "Name of Treatment", "type": "Data Collection Field"}}, "completionInstructions": "Record the name of study treatment.", "core": "R/C", "definition": "Name of the study treatment or intervention given per single administration or during the constant dosing interval for the observation.", "implementationNotes": "EXTRT captures the name of the investigational treatment. This is typically collected for open label studies and populated for blinded studies during the SDTM-based dataset creation. Because EXTRT is the SDTMIG topic variable, it is a required variable in SDTM and must have a value in CDASH or a plan to populate it in the SDTM submission datasets (i.e., collected or populated from other sources).", "label": "Name of Treatment", "mappingInstructions": "Maps directly to the SDTMIG variable listed in the SDTMIG Target column.", "name": "EXTRT", "ordinal": "8", "prompt": "[Study Treatment/Investigational Product Name]", "questionText": "What was the [study treatment/investigational product] name?", "simpleDatatype": "Char"}, {"_links": {"implements": {"href": "/mdr/cdash/1-2/classes/Identifiers/fields/--REFID", "title": "Reference ID", "type": "Class Variable"}, "parentDomain": {"href": "/mdr/cdashig/2-2/domains/EX", "title": "Exposure", "type": "CDASH Domain"}, "parentProduct": {"href": "/mdr/cdashig/2-2", "title": "Clinical Data Acquisition Standards Harmonization Implementation Guide for Human Clinical Trials Version 2.2", "type": "Implementation Guide"}, "priorVersion": {"href": "/mdr/cdashig/2-1/domains/EX/fields/EXREFID", "title": "Exposure Reference ID", "type": "Data Collection Field"}, "rootItem": {"href": "/mdr/root/cdashig/domains/EX/fields/EXREFID", "title": "Exposure Reference ID", "type": "Root Data Element"}, "sdtmigDatasetMappingTargets": [{"href": "/mdr/sdtmig/3-3/datasets/EX/variables/EXREFID", "title": "Reference ID", "type": "SDTM Dataset Variable"}], "self": {"href": "/mdr/cdashig/2-2/domains/EX/fields/EXREFID", "title": "Exposure Reference ID", "type": "Data Collection Field"}}, "completionInstructions": "Record treatment label identifier.", "core": "R/C", "definition": "An internal or external identifier (e.g., kit number, bottle label, vial identifier).", "implementationNotes": "This packaging identifier (e.g., kit number, bottle label, vial identifier) may be collected in different ways (e.g., affixing label onto CRF, scanning a bar code). For some study dosing regimens, greater granularity for treatment identifiers may be needed.", "label": "Exposure Reference ID", "mappingInstructions": "Maps directly to the SDTMIG variable listed in the SDTMIG Target column.", "name": "EXREFID", "ordinal": "9", "prompt": "Treatment Label Identifier", "questionText": "What is the [study treatment/dose] label identifier?", "simpleDatatype": "Char"}, {"_links": {"implements": {"href": "/mdr/cdash/1-2/classes/Interventions/fields/--LOT", "title": "Lot Number", "type": "Class Variable"}, "parentDomain": {"href": "/mdr/cdashig/2-2/domains/EX", "title": "Exposure", "type": "CDASH Domain"}, "parentProduct": {"href": "/mdr/cdashig/2-2", "title": "Clinical Data Acquisition Standards Harmonization Implementation Guide for Human Clinical Trials Version 2.2", "type": "Implementation Guide"}, "priorVersion": {"href": "/mdr/cdashig/2-1/domains/EX/fields/EXLOT", "title": "Lot Number", "type": "Data Collection Field"}, "rootItem": {"href": "/mdr/root/cdashig/domains/EX/fields/EXLOT", "title": "Lot Number", "type": "Root Data Element"}, "sdtmigDatasetMappingTargets": [{"href": "/mdr/sdtmig/3-3/datasets/EX/variables/EXLOT", "title": "Lot Number", "type": "SDTM Dataset Variable"}], "self": {"href": "/mdr/cdashig/2-2/domains/EX/fields/EXLOT", "title": "Lot Number", "type": "Data Collection Field"}}, "completionInstructions": "Record the lot number that appears on the container holding the study treatment.", "core": "R/C", "definition": "Lot number of the EXTRT product.", "implementationNotes": "The lot number identifies the manufacturing batch of the study treatment. In open-label studies, the reference number on the study treatment container may represent an actual lot number and is submitted using EXLOT. This variable may be populated during the process of creating the SDTM submission datasets. Do not collect other identification variables in this field.", "label": "Lot Number", "mappingInstructions": "Maps directly to the SDTMIG variable listed in the SDTMIG Target column.", "name": "EXLOT", "ordinal": "10", "prompt": "Lot Number", "questionText": "What was the lot number of the[study treatment/dose] used?", "simpleDatatype": "Char"}, {"_links": {"codelist": [{"href": "/mdr/root/ct/sdtmct/codelists/C66742", "title": "Version-agnostic anchor resource for codelist C66742", "type": "Root Value Domain"}], "implements": {"href": "/mdr/cdash/1-2/classes/Interventions/fields/--FAST", "title": "Fasting Status", "type": "Class Variable"}, "parentDomain": {"href": "/mdr/cdashig/2-2/domains/EX", "title": "Exposure", "type": "CDASH Domain"}, "parentProduct": {"href": "/mdr/cdashig/2-2", "title": "Clinical Data Acquisition Standards Harmonization Implementation Guide for Human Clinical Trials Version 2.2", "type": "Implementation Guide"}, "priorVersion": {"href": "/mdr/cdashig/2-1/domains/EX/fields/EXFAST", "title": "Exposure Fasting Status", "type": "Data Collection Field"}, "rootItem": {"href": "/mdr/root/cdashig/domains/EX/fields/EXFAST", "title": "Exposure Fasting Status", "type": "Root Data Element"}, "sdtmigDatasetMappingTargets": [{"href": "/mdr/sdtmig/3-3/datasets/EX/variables/EXFAST", "title": "Fasting Status", "type": "SDTM Dataset Variable"}], "self": {"href": "/mdr/cdashig/2-2/domains/EX/fields/EXFAST", "title": "Exposure Fasting Status", "type": "Data Collection Field"}}, "completionInstructions": "Record whether the subject was fasting prior to the study treatment being taken.", "core": "O", "definition": "An indication that the subject has abstained from food/water for the specified amount of time.", "implementationNotes": "Because some study treatments may have a food effect, it is important to know whether the dose was taken after the subject had fasted.", "label": "Exposure Fasting Status", "mappingInstructions": "Maps directly to the SDTMIG variable listed in the SDTMIG Target column.", "name": "EXFAST", "ordinal": "11", "prompt": "Fasting", "questionText": "Was the subject fasting?", "simpleDatatype": "Char"}, {"_links": {"codelist": [{"href": "/mdr/root/ct/sdtmct/codelists/C66726", "title": "Version-agnostic anchor resource for codelist C66726", "type": "Root Value Domain"}, {"href": "/mdr/root/ct/cdashct/codelists/C78426", "title": "Version-agnostic anchor resource for codelist C78426", "type": "Root Value Domain"}], "implements": {"href": "/mdr/cdash/1-2/classes/Interventions/fields/--DOSFRM", "title": "Dose Form", "type": "Class Variable"}, "parentDomain": {"href": "/mdr/cdashig/2-2/domains/EX", "title": "Exposure", "type": "CDASH Domain"}, "parentProduct": {"href": "/mdr/cdashig/2-2", "title": "Clinical Data Acquisition Standards Harmonization Implementation Guide for Human Clinical Trials Version 2.2", "type": "Implementation Guide"}, "priorVersion": {"href": "/mdr/cdashig/2-1/domains/EX/fields/EXDOSFRM", "title": "Exposure Dose Form", "type": "Data Collection Field"}, "rootItem": {"href": "/mdr/root/cdashig/domains/EX/fields/EXDOSFRM", "title": "Exposure Dose Form", "type": "Root Data Element"}, "sdtmigDatasetMappingTargets": [{"href": "/mdr/sdtmig/3-3/datasets/EX/variables/EXDOSFRM", "title": "Dose Form", "type": "SDTM Dataset Variable"}], "self": {"href": "/mdr/cdashig/2-2/domains/EX/fields/EXDOSFRM", "title": "Exposure Dose Form", "type": "Data Collection Field"}}, "completionInstructions": "Record the dose form (e.g., SOLUTION, TABLET, LOTION) or enter the appropriate code from the code list.", "core": "R/C", "definition": "The dosage form in which the EXTRT is physically presented.", "implementationNotes": "This must be collected if it cannot be determined from other sources or if there are multiple options.", "label": "Exposure Dose Form", "mappingInstructions": "Maps directly to the SDTMIG variable listed in the SDTMIG Target column.", "name": "EXDOSFRM", "ordinal": "12", "prompt": "Dose Form", "questionText": "What was the dose form of the [study treatment/dose] ?", "simpleDatatype": "Char"}, {"_links": {"implements": {"href": "/mdr/cdash/1-2/classes/Timing/fields/--STDAT", "title": "Observation Start Date", "type": "Class Variable"}, "parentDomain": {"href": "/mdr/cdashig/2-2/domains/EX", "title": "Exposure", "type": "CDASH Domain"}, "parentProduct": {"href": "/mdr/cdashig/2-2", "title": "Clinical Data Acquisition Standards Harmonization Implementation Guide for Human Clinical Trials Version 2.2", "type": "Implementation Guide"}, "priorVersion": {"href": "/mdr/cdashig/2-1/domains/EX/fields/EXSTDAT", "title": "Exposure Start Date", "type": "Data Collection Field"}, "rootItem": {"href": "/mdr/root/cdashig/domains/EX/fields/EXSTDAT", "title": "Exposure Start Date", "type": "Root Data Element"}, "sdtmigDatasetMappingTargets": [{"href": "/mdr/sdtmig/3-3/datasets/EX/variables/EXSTDTC", "title": "Start Date/Time of Treatment", "type": "SDTM Dataset Variable"}], "self": {"href": "/mdr/cdashig/2-2/domains/EX/fields/EXSTDAT", "title": "Exposure Start Date", "type": "Data Collection Field"}}, "completionInstructions": "Record the start date of the study treatment administration using this format (DD-MON-YYYY).", "core": "HR", "definition": "The start date of study treatment, represented in an unambiguous date format (e.g., DD-MON-YYYY).", "implementationNotes": "Date when the constant dosing interval of the study treatment started or single administration occurred. When collecting the date for an individual dose, the word \"start\" may be omitted from the question text and prompt.", "label": "Exposure Start Date", "mappingInstructions": "This does not map directly to an SDTMIG variable. For the SDTM submission dataset, concatenate all collected CDASH START DATE and TIME components and populate the SDTMIG variable EXSTDTC in ISO 8601 format.", "name": "EXSTDAT", "ordinal": "13", "prompt": "(Start) Date", "questionText": "What was the ([intended/planned/actual]) ([study treatment/dose]) (start) date?", "simpleDatatype": "Char"}, {"_links": {"implements": {"href": "/mdr/cdash/1-2/classes/Timing/fields/--STTIM", "title": "Observation Start Time", "type": "Class Variable"}, "parentDomain": {"href": "/mdr/cdashig/2-2/domains/EX", "title": "Exposure", "type": "CDASH Domain"}, "parentProduct": {"href": "/mdr/cdashig/2-2", "title": "Clinical Data Acquisition Standards Harmonization Implementation Guide for Human Clinical Trials Version 2.2", "type": "Implementation Guide"}, "priorVersion": {"href": "/mdr/cdashig/2-1/domains/EX/fields/EXSTTIM", "title": "Exposure Start Time", "type": "Data Collection Field"}, "rootItem": {"href": "/mdr/root/cdashig/domains/EX/fields/EXSTTIM", "title": "Exposure Start Time", "type": "Root Data Element"}, "sdtmigDatasetMappingTargets": [{"href": "/mdr/sdtmig/3-3/datasets/EX/variables/EXSTDTC", "title": "Start Date/Time of Treatment", "type": "SDTM Dataset Variable"}], "self": {"href": "/mdr/cdashig/2-2/domains/EX/fields/EXSTTIM", "title": "Exposure Start Time", "type": "Data Collection Field"}}, "completionInstructions": "Record the start time (as complete as possible) when administration of study treatment started.", "core": "R/C", "definition": "The start time of the study treatment, represented in an unambiguous time format (e.g., hh:mm:ss).", "implementationNotes": "Recommend collecting the time a medication was started only when a protocol or data collection scenario requires it.", "label": "Exposure Start Time", "mappingInstructions": "This does not map directly to an SDTMIG variable. For the SDTM submission dataset, concatenate all collected CDASH START DATE and TIME components and populate the SDTMIG variable EXSTDTC in ISO 8601 format.", "name": "EXSTTIM", "ordinal": "14", "prompt": "(Start) Time", "questionText": "What was the ([intended/planned/actual]) ([study treatment/dose]) (start) time?", "simpleDatatype": "Char"}, {"_links": {"implements": {"href": "/mdr/cdash/1-2/classes/Timing/fields/--ENDAT", "title": "Observation End Date", "type": "Class Variable"}, "parentDomain": {"href": "/mdr/cdashig/2-2/domains/EX", "title": "Exposure", "type": "CDASH Domain"}, "parentProduct": {"href": "/mdr/cdashig/2-2", "title": "Clinical Data Acquisition Standards Harmonization Implementation Guide for Human Clinical Trials Version 2.2", "type": "Implementation Guide"}, "priorVersion": {"href": "/mdr/cdashig/2-1/domains/EX/fields/EXENDAT", "title": "Exposure End Date", "type": "Data Collection Field"}, "rootItem": {"href": "/mdr/root/cdashig/domains/EX/fields/EXENDAT", "title": "Exposure End Date", "type": "Root Data Element"}, "sdtmigDatasetMappingTargets": [{"href": "/mdr/sdtmig/3-3/datasets/EX/variables/EXENDTC", "title": "End Date/Time of Treatment", "type": "SDTM Dataset Variable"}], "self": {"href": "/mdr/cdashig/2-2/domains/EX/fields/EXENDAT", "title": "Exposure End Date", "type": "Data Collection Field"}}, "completionInstructions": "Record the end date or last date of administration of study treatment using this format (DD-MON-YYYY).", "core": "R/C", "definition": "The end date of study treatment, represented in an unambiguous date format (e.g., DD-MON-YYYY).", "implementationNotes": "If start date and end date are not expected to be on the same date, the end date is required. If the study design indicates that the start and end date are on the same day, the end date is not required because it can be assigned to be equal to the start date.", "label": "Exposure End Date", "mappingInstructions": "This does not map directly to an SDTMIG variable. For the SDTM submission dataset, concatenate all collected CDASH END DATE and TIME components and populate the SDTMIG variable EXENDTC in ISO 8601 format.", "name": "EXENDAT", "ordinal": "15", "prompt": "(End) Date", "questionText": "What was the ([intended/planned/actual]) ([study treatment/dose]) (end) date?", "simpleDatatype": "Char"}, {"_links": {"implements": {"href": "/mdr/cdash/1-2/classes/Timing/fields/--ENTIM", "title": "Observation End Time", "type": "Class Variable"}, "parentDomain": {"href": "/mdr/cdashig/2-2/domains/EX", "title": "Exposure", "type": "CDASH Domain"}, "parentProduct": {"href": "/mdr/cdashig/2-2", "title": "Clinical Data Acquisition Standards Harmonization Implementation Guide for Human Clinical Trials Version 2.2", "type": "Implementation Guide"}, "priorVersion": {"href": "/mdr/cdashig/2-1/domains/EX/fields/EXENTIM", "title": "Exposure End Time", "type": "Data Collection Field"}, "rootItem": {"href": "/mdr/root/cdashig/domains/EX/fields/EXENTIM", "title": "Exposure End Time", "type": "Root Data Element"}, "sdtmigDatasetMappingTargets": [{"href": "/mdr/sdtmig/3-3/datasets/EX/variables/EXENDTC", "title": "End Date/Time of Treatment", "type": "SDTM Dataset Variable"}], "self": {"href": "/mdr/cdashig/2-2/domains/EX/fields/EXENTIM", "title": "Exposure End Time", "type": "Data Collection Field"}}, "completionInstructions": "Record the time, (as complete as possible) when study treatment administration stopped (e.g., for infusions this is the time when the infusion ended).", "core": "R/C", "definition": "The end time of treatment, represented in an unambiguous time format (e.g., hh:mm:ss).", "implementationNotes": "Recommend collecting the time a medication was ended when a protocol or data collection scenario requires it. For infusions, the end time of the infusion is typically needed.", "label": "Exposure End Time", "mappingInstructions": "This does not map directly to an SDTMIG variable. For the SDTM submission dataset, concatenate all collected CDASH END DATE and TIME components and populate the SDTMIG variable EXENDTC in ISO 8601 format.", "name": "EXENTIM", "ordinal": "16", "prompt": "(End) Time", "questionText": "What was the ([intended/planned/actual]) ([study treatment/dose]) (end) time?", "simpleDatatype": "Char"}, {"_links": {"implements": {"href": "/mdr/cdash/1-2/classes/Interventions/fields/--DSTXT", "title": "Dose Description", "type": "Class Variable"}, "parentDomain": {"href": "/mdr/cdashig/2-2/domains/EX", "title": "Exposure", "type": "CDASH Domain"}, "parentProduct": {"href": "/mdr/cdashig/2-2", "title": "Clinical Data Acquisition Standards Harmonization Implementation Guide for Human Clinical Trials Version 2.2", "type": "Implementation Guide"}, "priorVersion": {"href": "/mdr/cdashig/2-1/domains/EX/fields/EXDSTXT", "title": "Exposure Dose Description", "type": "Data Collection Field"}, "rootItem": {"href": "/mdr/root/cdashig/domains/EX/fields/EXDSTXT", "title": "Exposure Dose Description", "type": "Root Data Element"}, "sdtmigDatasetMappingTargets": [{"href": "/mdr/sdtmig/3-3/datasets/EX/variables/EXDOSTXT", "title": "Dose Description", "type": "SDTM Dataset Variable"}, {"href": "/mdr/sdtmig/3-3/datasets/EX/variables/EXDOSE", "title": "Dose", "type": "SDTM Dataset Variable"}], "self": {"href": "/mdr/cdashig/2-2/domains/EX/fields/EXDSTXT", "title": "Exposure Dose Description", "type": "Data Collection Field"}}, "completionInstructions": "Record the dose or amount of study treatment that was administered to/taken by the subject in the period recorded; from the start date/time to the end date/time inclusive.", "core": "R/C", "definition": "Dose (per administration).", "implementationNotes": "Dose or amount taken for single administration of study treatment or per constant dosing interval recorded. Dose must be collected if it cannot be determined via other methods (e.g., from diary data, drug accountability data, protocol). The data collected in this dose text-format field should be mapped to either SDTMIG variable EXDOSE (if numeric) or EXDOSTXT (if text).", "label": "Exposure Dose Description", "mappingInstructions": "This does not map directly to an SDTMIG variable. Numeric values map to EXDOSE in SDTM. Non-numeric values (e.g., 200-400) map to EXDOSTXT in SDTM.", "name": "EXDSTXT", "ordinal": "17", "prompt": "Dose", "questionText": "What was the dose [per administration] (of [study treatment/dose]) ?", "simpleDatatype": "Char"}, {"_links": {"codelist": [{"href": "/mdr/root/ct/sdtmct/codelists/C71620", "title": "Version-agnostic anchor resource for codelist C71620", "type": "Root Value Domain"}], "implements": {"href": "/mdr/cdash/1-2/classes/Interventions/fields/--DOSU", "title": "Dose Units", "type": "Class Variable"}, "parentDomain": {"href": "/mdr/cdashig/2-2/domains/EX", "title": "Exposure", "type": "CDASH Domain"}, "parentProduct": {"href": "/mdr/cdashig/2-2", "title": "Clinical Data Acquisition Standards Harmonization Implementation Guide for Human Clinical Trials Version 2.2", "type": "Implementation Guide"}, "priorVersion": {"href": "/mdr/cdashig/2-1/domains/EX/fields/EXDOSU", "title": "Exposure Dose Unit", "type": "Data Collection Field"}, "rootItem": {"href": "/mdr/root/cdashig/domains/EX/fields/EXDOSU", "title": "Exposure Dose Unit", "type": "Root Data Element"}, "sdtmigDatasetMappingTargets": [{"href": "/mdr/sdtmig/3-3/datasets/EX/variables/EXDOSU", "title": "Dose Units", "type": "SDTM Dataset Variable"}], "self": {"href": "/mdr/cdashig/2-2/domains/EX/fields/EXDOSU", "title": "Exposure Dose Unit", "type": "Data Collection Field"}}, "completionInstructions": "Record the unit of dose or amount taken per period recorded (e.g., ng, mg, mg/kg).", "core": "R/C", "definition": "The unit for intended dose (per administration) for EXDOSE, EXDOSTOT, or EXDOSTXT.", "implementationNotes": "Unit of dose or amount taken per constant dosing interval recorded. Dose unit must be collected if it cannot be determined via other methods (e.g., from protocol, randomization data). The unit should be pre-printed on the CRF or a field provided on the CRF to capture it. A CDASH Subset Controlled Terminology Codelist Name is available for general dose and volume units.", "label": "Exposure Dose Unit", "mappingInstructions": "Maps directly to the SDTMIG variable listed in the SDTMIG Target column.", "name": "EXDOSU", "ordinal": "18", "prompt": "Unit", "questionText": "What was the unit for the dose?", "simpleDatatype": "Char"}, {"_links": {"codelist": [{"href": "/mdr/root/ct/sdtmct/codelists/C71113", "title": "Version-agnostic anchor resource for codelist C71113", "type": "Root Value Domain"}], "implements": {"href": "/mdr/cdash/1-2/classes/Interventions/fields/--DOSFRQ", "title": "Dosing Frequency per Interval", "type": "Class Variable"}, "parentDomain": {"href": "/mdr/cdashig/2-2/domains/EX", "title": "Exposure", "type": "CDASH Domain"}, "parentProduct": {"href": "/mdr/cdashig/2-2", "title": "Clinical Data Acquisition Standards Harmonization Implementation Guide for Human Clinical Trials Version 2.2", "type": "Implementation Guide"}, "priorVersion": {"href": "/mdr/cdashig/2-1/domains/EX/fields/EXDOSFRQ", "title": "Exposure Dosing Frequency per Interval", "type": "Data Collection Field"}, "rootItem": {"href": "/mdr/root/cdashig/domains/EX/fields/EXDOSFRQ", "title": "Exposure Dosing Frequency per Interval", "type": "Root Data Element"}, "sdtmigDatasetMappingTargets": [{"href": "/mdr/sdtmig/3-3/datasets/EX/variables/EXDOSFRQ", "title": "Dosing Frequency per Interval", "type": "SDTM Dataset Variable"}], "self": {"href": "/mdr/cdashig/2-2/domains/EX/fields/EXDOSFRQ", "title": "Exposure Dosing Frequency per Interval", "type": "Data Collection Field"}}, "completionInstructions": "Record the frequency the study treatment was administered for a defined period of time.", "core": "R/C", "definition": "The number of doses given/administered/taken during a specific interval.", "implementationNotes": "This may be collected if it cannot be determined from other sources or if there are multiple options. When possible, the options for dose/amount frequency are pre-printed on the CRF. When collected, the recommendation is to collect dosing information in separate fields (e.g., ECDOSE, ECDOSEU, ECDOSFRQ) for specific and consistent data collection and to enable programmatically using these data.", "label": "Exposure Dosing Frequency per Interval", "mappingInstructions": "Maps directly to the SDTMIG variable listed in the SDTMIG Target column.", "name": "EXDOSFRQ", "ordinal": "19", "prompt": "Frequency", "questionText": "What was the frequency of[study treatment/dose] dosing?", "simpleDatatype": "Char"}, {"_links": {"codelist": [{"href": "/mdr/root/ct/sdtmct/codelists/C66729", "title": "Version-agnostic anchor resource for codelist C66729", "type": "Root Value Domain"}, {"href": "/mdr/root/ct/cdashct/codelists/C78425", "title": "Version-agnostic anchor resource for codelist C78425", "type": "Root Value Domain"}], "implements": {"href": "/mdr/cdash/1-2/classes/Interventions/fields/--ROUTE", "title": "Route of Administration", "type": "Class Variable"}, "parentDomain": {"href": "/mdr/cdashig/2-2/domains/EX", "title": "Exposure", "type": "CDASH Domain"}, "parentProduct": {"href": "/mdr/cdashig/2-2", "title": "Clinical Data Acquisition Standards Harmonization Implementation Guide for Human Clinical Trials Version 2.2", "type": "Implementation Guide"}, "priorVersion": {"href": "/mdr/cdashig/2-1/domains/EX/fields/EXROUTE", "title": "Exposure Route of Administration", "type": "Data Collection Field"}, "rootItem": {"href": "/mdr/root/cdashig/domains/EX/fields/EXROUTE", "title": "Exposure Route of Administration", "type": "Root Data Element"}, "sdtmigDatasetMappingTargets": [{"href": "/mdr/sdtmig/3-3/datasets/EX/variables/EXROUTE", "title": "Route of Administration", "type": "SDTM Dataset Variable"}], "self": {"href": "/mdr/cdashig/2-2/domains/EX/fields/EXROUTE", "title": "Exposure Route of Administration", "type": "Data Collection Field"}}, "completionInstructions": "Record the route of administration (e.g., IV, ORAL, TRANSDERMAL) or enter the appropriate code from the code list.", "core": "R/C", "definition": "The route of administration of the study treatment.", "implementationNotes": "This may be collected if it cannot be determined via other methods (e.g., from protocol) or if there are multiple options.", "label": "Exposure Route of Administration", "mappingInstructions": "Maps directly to the SDTMIG variable listed in the SDTMIG Target column.", "name": "EXROUTE", "ordinal": "20", "prompt": "Route", "questionText": "What was the route of administration (of the [study treatment/dose] )?", "simpleDatatype": "Char"}, {"_links": {"implements": {"href": "/mdr/cdash/1-2/classes/Interventions/fields/--DOSRGM", "title": "Intended Dose Regimen", "type": "Class Variable"}, "parentDomain": {"href": "/mdr/cdashig/2-2/domains/EX", "title": "Exposure", "type": "CDASH Domain"}, "parentProduct": {"href": "/mdr/cdashig/2-2", "title": "Clinical Data Acquisition Standards Harmonization Implementation Guide for Human Clinical Trials Version 2.2", "type": "Implementation Guide"}, "priorVersion": {"href": "/mdr/cdashig/2-1/domains/EX/fields/EXDOSRGM", "title": "Intended Dose Regimen", "type": "Data Collection Field"}, "rootItem": {"href": "/mdr/root/cdashig/domains/EX/fields/EXDOSRGM", "title": "Intended Dose Regimen", "type": "Root Data Element"}, "sdtmigDatasetMappingTargets": [{"href": "/mdr/sdtmig/3-3/datasets/EX/variables/EXDOSRGM", "title": "Intended Dose Regimen", "type": "SDTM Dataset Variable"}], "self": {"href": "/mdr/cdashig/2-2/domains/EX/fields/EXDOSRGM", "title": "Intended Dose Regimen", "type": "Data Collection Field"}}, "completionInstructions": "Record the regimen for the study medication.", "core": "O", "definition": "The text description of the intended schedule or regimen for the Intervention.", "implementationNotes": "The regimen information may further clarify the dose administration and dose frequency (e.g., TWO WEEKS ON, TWO WEEKS OFF). This may be pre-printed or collected. The sponsor may wish to create a codelist to collect this data consistently.", "label": "Intended Dose Regimen", "mappingInstructions": "Maps directly to the SDTMIG variable listed in the SDTMIG Target column.", "name": "EXDOSRGM", "ordinal": "21", "prompt": "Intended Dose Regimen", "questionText": "What was the intended dose regimen (of the [study treatment/dose] )?", "simpleDatatype": "Char"}, {"_links": {"codelist": [{"href": "/mdr/root/ct/sdtmct/codelists/C66742", "title": "Version-agnostic anchor resource for codelist C66742", "type": "Root Value Domain"}], "implements": {"href": "/mdr/cdash/1-2/classes/Interventions/fields/--DOSADJ", "title": "Dose Adjusted", "type": "Class Variable"}, "parentDomain": {"href": "/mdr/cdashig/2-2/domains/EX", "title": "Exposure", "type": "CDASH Domain"}, "parentProduct": {"href": "/mdr/cdashig/2-2", "title": "Clinical Data Acquisition Standards Harmonization Implementation Guide for Human Clinical Trials Version 2.2", "type": "Implementation Guide"}, "priorVersion": {"href": "/mdr/cdashig/2-1/domains/EX/fields/EXDOSADJ", "title": "Dose Adjusted", "type": "Data Collection Field"}, "rootItem": {"href": "/mdr/root/cdashig/domains/EX/fields/EXDOSADJ", "title": "Dose Adjusted", "type": "Root Data Element"}, "self": {"href": "/mdr/cdashig/2-2/domains/EX/fields/EXDOSADJ", "title": "Dose Adjusted", "type": "Data Collection Field"}}, "completionInstructions": "Select either Yes or No to indicate whether there was a change in dosing.", "core": "O", "definition": "An indication of whether the dose was adjusted.", "implementationNotes": "Typically, the intent/purpose of collecting this field is to help with data cleaning and monitoring, as it provides a definitive response regarding any dose changes. It provides verification that the associate field on the CRF (EXADJ) was deliberately left blank. However, the sponsor may collect whether the dose was adjusted, without collecting the reason for the change.", "label": "Dose Adjusted", "mappingInstructions": "When EXADJ is collected, does not map to an SDTMIG variable. The SDTM annotated CRF indicates that this field is NOT SUBMITTED. When EXADJ is not collected, the sponsor may submit this variable as a SUPPQ.", "name": "EXDOSADJ", "ordinal": "22", "prompt": "(Dose) Adjusted", "questionText": "Was the dose adjusted?", "simpleDatatype": "Char"}, {"_links": {"implements": {"href": "/mdr/cdash/1-2/classes/Interventions/fields/--ADJ", "title": "Reason for Dose Adjustment", "type": "Class Variable"}, "parentDomain": {"href": "/mdr/cdashig/2-2/domains/EX", "title": "Exposure", "type": "CDASH Domain"}, "parentProduct": {"href": "/mdr/cdashig/2-2", "title": "Clinical Data Acquisition Standards Harmonization Implementation Guide for Human Clinical Trials Version 2.2", "type": "Implementation Guide"}, "priorVersion": {"href": "/mdr/cdashig/2-1/domains/EX/fields/EXADJ", "title": "Reason for Dose Adjustment", "type": "Data Collection Field"}, "rootItem": {"href": "/mdr/root/cdashig/domains/EX/fields/EXADJ", "title": "Reason for Dose Adjustment", "type": "Root Data Element"}, "sdtmigDatasetMappingTargets": [{"href": "/mdr/sdtmig/3-3/datasets/EX/variables/EXADJ", "title": "Reason for Dose Adjustment", "type": "SDTM Dataset Variable"}], "self": {"href": "/mdr/cdashig/2-2/domains/EX/fields/EXADJ", "title": "Reason for Dose Adjustment", "type": "Data Collection Field"}}, "completionInstructions": "If there was a change in dosing, record the reason for change.", "core": "O", "definition": "Description of or explanation for why a dose of the study treatment was adjusted.", "implementationNotes": "Captures the reason the dose was changed or modified. The reason may be chosen from a sponsor-defined list (e.g., adverse event, insufficient response) or entered as free text. May be used for variations from protocol-specified doses or changes from expected doses.", "label": "Reason for Dose Adjustment", "mappingInstructions": "Maps directly to the SDTMIG variable listed in the SDTMIG Target column.", "name": "EXADJ", "ordinal": "23", "prompt": "Reason Adjusted", "questionText": "What was the reason the dose was adjusted (from planned)?", "simpleDatatype": "Char"}, {"_links": {"codelist": [{"href": "/mdr/root/ct/sdtmct/codelists/C66742", "title": "Version-agnostic anchor resource for codelist C66742", "type": "Root Value Domain"}], "implements": {"href": "/mdr/cdash/1-2/classes/Interventions/fields/--ITRPYN", "title": "Intervention Interrupted", "type": "Class Variable"}, "parentDomain": {"href": "/mdr/cdashig/2-2/domains/EX", "title": "Exposure", "type": "CDASH Domain"}, "parentProduct": {"href": "/mdr/cdashig/2-2", "title": "Clinical Data Acquisition Standards Harmonization Implementation Guide for Human Clinical Trials Version 2.2", "type": "Implementation Guide"}, "priorVersion": {"href": "/mdr/cdashig/2-1/domains/EX/fields/EXITRPYN", "title": "EX Exposure Interrupted", "type": "Data Collection Field"}, "rootItem": {"href": "/mdr/root/cdashig/domains/EX/fields/EXITRPYN", "title": "EX Exposure Interrupted", "type": "Root Data Element"}, "self": {"href": "/mdr/cdashig/2-2/domains/EX/fields/EXITRPYN", "title": "EX Exposure Interrupted", "type": "Data Collection Field"}}, "completionInstructions": "Record if there was an interruption in the study treatment or dosing.", "core": "O", "definition": "An indication of whether the exposure was interrupted.", "implementationNotes": "The intent/purpose of collecting this field is to help with data cleaning and monitoring when the actual duration of the exposure is collected using the CDASH field EXCINTD. In some situations, if the actual duration of the interruption is not collected, or not derived, this information could be submitted in a SUPPEX.QVAL dataset where SUPPEX.QNAM = \"EXITRPYN\" and SUPPEX.QLABEL = \"Exposure Interrupted\".", "label": "EX Exposure Interrupted", "mappingInstructions": "Does not map to an SDTMIG variable. The SDTM annotated CRF indicates that this field is NOT SUBMITTED.", "name": "EXITRPYN", "ordinal": "24", "prompt": "[(Study) Treatment / Dose] Interrupted", "questionText": "Was the [ (study) treatment/dose] interrupted?", "simpleDatatype": "Char"}, {"_links": {"implements": {"href": "/mdr/cdash/1-2/classes/Interventions/fields/--CINTD", "title": "Interruption Duration", "type": "Class Variable"}, "parentDomain": {"href": "/mdr/cdashig/2-2/domains/EX", "title": "Exposure", "type": "CDASH Domain"}, "parentProduct": {"href": "/mdr/cdashig/2-2", "title": "Clinical Data Acquisition Standards Harmonization Implementation Guide for Human Clinical Trials Version 2.2", "type": "Implementation Guide"}, "priorVersion": {"href": "/mdr/cdashig/2-1/domains/EX/fields/EXCINTD", "title": "Exposure Interruption Duration", "type": "Data Collection Field"}, "rootItem": {"href": "/mdr/root/cdashig/domains/EX/fields/EXCINTD", "title": "Exposure Interruption Duration", "type": "Root Data Element"}, "sdtmigDatasetMappingTargets": [{"href": "/mdr/sdtmig/3-3/datasets/SUPPQUAL/variables/QVAL", "title": "Data Value", "type": "SDTM Dataset Variable"}], "self": {"href": "/mdr/cdashig/2-2/domains/EX/fields/EXCINTD", "title": "Exposure Interruption Duration", "type": "Data Collection Field"}}, "completionInstructions": "Record the duration of treatment interruption.", "core": "O", "definition": "The collected duration of the treatment interruption.", "implementationNotes": "In some situations, the duration of the interruption may be calculated from the administration start and end times recorded elsewhere in the CRF.", "label": "Exposure Interruption Duration", "mappingInstructions": "This does not map directly to an SDTMIG variable. This information could be submitted in a SUPPEX dataset as the value of SUPPEX.QVAL where SUPPEX.QNAM=\"EXITRPD\" and SUPPEX.QLABEL= \"Interruption Duration\". Concatenate the collected treatment interruption duration and the duration unit components and create EXITRPD using ISO 8601 Period format. Refer to the current SDTM and SDTMIG for instructions on placement of non-standard variables (NSVs) in SDTM domains.", "name": "EXCINTD", "ordinal": "25", "prompt": "(Interruption) Duration", "questionText": "If the dose was interrupted, how long was the interruption?", "simpleDatatype": "Char"}, {"_links": {"codelist": [{"href": "/mdr/root/ct/sdtmct/codelists/C71620", "title": "Version-agnostic anchor resource for codelist C71620", "type": "Root Value Domain"}], "implements": {"href": "/mdr/cdash/1-2/classes/Interventions/fields/--CINTDU", "title": "Interruption Duration Unit", "type": "Class Variable"}, "parentDomain": {"href": "/mdr/cdashig/2-2/domains/EX", "title": "Exposure", "type": "CDASH Domain"}, "parentProduct": {"href": "/mdr/cdashig/2-2", "title": "Clinical Data Acquisition Standards Harmonization Implementation Guide for Human Clinical Trials Version 2.2", "type": "Implementation Guide"}, "priorVersion": {"href": "/mdr/cdashig/2-1/domains/EX/fields/EXCINTDU", "title": "Exposure Interruption Duration Units", "type": "Data Collection Field"}, "rootItem": {"href": "/mdr/root/cdashig/domains/EX/fields/EXCINTDU", "title": "Exposure Interruption Duration Units", "type": "Root Data Element"}, "sdtmigDatasetMappingTargets": [{"href": "/mdr/sdtmig/3-3/datasets/SUPPQUAL/variables/QVAL", "title": "Data Value", "type": "SDTM Dataset Variable"}], "self": {"href": "/mdr/cdashig/2-2/domains/EX/fields/EXCINTDU", "title": "Exposure Interruption Duration Units", "type": "Data Collection Field"}}, "completionInstructions": "Record the unit (e.g., MINUTES, HOURS, DAYS) for the duration of treatment interruption.", "core": "O", "definition": "The unit for the collected duration of treatment interruption.", "implementationNotes": "The unit should be collected and converted into ISO 8601 period format.", "label": "Exposure Interruption Duration Units", "mappingInstructions": "This does not map directly to an SDTMIG variable. This information could be submitted in a SUPPEX dataset as the value of SUPPEX.QVAL where SUPPEX.QNAM = \"EXITRPD\" and SUPPEX.QLABEL= \"Interruption Duration\". Concatenate the collected treatment interruption duration and the duration unit components and create EXITRPDusing ISO 8601 Period format. Refer to the current SDTM and SDTMIG for instructions on placement of NSVs in SDTM domains.", "name": "EXCINTDU", "ordinal": "26", "prompt": "(Interruption Duration) Unit", "questionText": "If the dose was interrupted, what were the units for the interruption duration?", "simpleDatatype": "Char"}, {"_links": {"codelist": [{"href": "/mdr/root/ct/sdtmct/codelists/C74456", "title": "Version-agnostic anchor resource for codelist C74456", "type": "Root Value Domain"}], "implements": {"href": "/mdr/cdash/1-2/classes/Interventions/fields/--LOC", "title": "Location of Dose Administration", "type": "Class Variable"}, "parentDomain": {"href": "/mdr/cdashig/2-2/domains/EX", "title": "Exposure", "type": "CDASH Domain"}, "parentProduct": {"href": "/mdr/cdashig/2-2", "title": "Clinical Data Acquisition Standards Harmonization Implementation Guide for Human Clinical Trials Version 2.2", "type": "Implementation Guide"}, "priorVersion": {"href": "/mdr/cdashig/2-1/domains/EX/fields/EXLOC", "title": "Exposure Location of Dose Administration", "type": "Data Collection Field"}, "rootItem": {"href": "/mdr/root/cdashig/domains/EX/fields/EXLOC", "title": "Exposure Location of Dose Administration", "type": "Root Data Element"}, "sdtmigDatasetMappingTargets": [{"href": "/mdr/sdtmig/3-3/datasets/EX/variables/EXLOC", "title": "Location of Dose Administration", "type": "SDTM Dataset Variable"}], "self": {"href": "/mdr/cdashig/2-2/domains/EX/fields/EXLOC", "title": "Exposure Location of Dose Administration", "type": "Data Collection Field"}}, "completionInstructions": "Record the body location where the study treatment was administered (e.g., SHOULDER, HIP, ARM).", "core": "O", "definition": "A description of the anatomical location of administration.", "implementationNotes": "Collected or pre-printed when the sponsor needs to identify the specific anatomical location where the study treatment was administered. LAT, DIR, PORTOT are used to further describe the anatomical location.", "label": "Exposure Location of Dose Administration", "mappingInstructions": "Maps directly to the SDTMIG variable listed in the SDTMIG Target column.", "name": "EXLOC", "ordinal": "27", "prompt": "Anatomical Location", "questionText": "What was the anatomical location of the ([study treatment/dose] ) administration?", "simpleDatatype": "Char"}, {"_links": {"implements": {"href": "/mdr/cdash/1-2/classes/Interventions/fields/--VAMT", "title": "Treatment Vehicle Amount", "type": "Class Variable"}, "parentDomain": {"href": "/mdr/cdashig/2-2/domains/EX", "title": "Exposure", "type": "CDASH Domain"}, "parentProduct": {"href": "/mdr/cdashig/2-2", "title": "Clinical Data Acquisition Standards Harmonization Implementation Guide for Human Clinical Trials Version 2.2", "type": "Implementation Guide"}, "priorVersion": {"href": "/mdr/cdashig/2-1/domains/EX/fields/EXVAMT", "title": "Exposure Vehicle Amount", "type": "Data Collection Field"}, "rootItem": {"href": "/mdr/root/cdashig/domains/EX/fields/EXVAMT", "title": "Exposure Vehicle Amount", "type": "Root Data Element"}, "self": {"href": "/mdr/cdashig/2-2/domains/EX/fields/EXVAMT", "title": "Exposure Vehicle Amount", "type": "Data Collection Field"}}, "completionInstructions": "Record the total amount (treatment +vehicle) that was administered/given to the subject.", "core": "O", "definition": "The amount of the prepared product (treatment + vehicle) administered or given.", "implementationNotes": "Administration amount that was given to the subject. Note: should not be the diluent amount alone. The ECTRTV field may be collected if it cannot be determined from other sources.", "label": "Exposure Vehicle Amount", "mappingInstructions": "Maps directly to the SDTMIG variable listed in the SDTMIG Target column. The SDTM variable ECTRTV may also be populated during the process of creating the SDTM submission datasets.", "name": "EXVAMT", "ordinal": "28", "prompt": "Total Amount", "questionText": "What was the total amount (Drug + Vehicle)(of [study treatment/dose] ) administered?", "simpleDatatype": "Num"}, {"_links": {"codelist": [{"href": "/mdr/root/ct/sdtmct/codelists/C71620", "title": "Version-agnostic anchor resource for codelist C71620", "type": "Root Value Domain"}, {"href": "/mdr/root/ct/cdashct/codelists/C78428", "title": "Version-agnostic anchor resource for codelist C78428", "type": "Root Value Domain"}], "implements": {"href": "/mdr/cdash/1-2/classes/Interventions/fields/--VAMTU", "title": "Treatment Vehicle Amount Units", "type": "Class Variable"}, "parentDomain": {"href": "/mdr/cdashig/2-2/domains/EX", "title": "Exposure", "type": "CDASH Domain"}, "parentProduct": {"href": "/mdr/cdashig/2-2", "title": "Clinical Data Acquisition Standards Harmonization Implementation Guide for Human Clinical Trials Version 2.2", "type": "Implementation Guide"}, "priorVersion": {"href": "/mdr/cdashig/2-1/domains/EX/fields/EXVAMTU", "title": "Exposure Vehicle Amount Units", "type": "Data Collection Field"}, "rootItem": {"href": "/mdr/root/cdashig/domains/EX/fields/EXVAMTU", "title": "Exposure Vehicle Amount Units", "type": "Root Data Element"}, "self": {"href": "/mdr/cdashig/2-2/domains/EX/fields/EXVAMTU", "title": "Exposure Vehicle Amount Units", "type": "Data Collection Field"}}, "completionInstructions": "Record the unit of total amount (treatment +vehicle) administered/given to the subject (e.g., mL).", "core": "O", "definition": "The unit of measure for the prepared product (treatment + vehicle).", "implementationNotes": "Unit of the administration amount. A CDASH Subset Controlled Terminology Codelist Name is available for dose and volume units.", "label": "Exposure Vehicle Amount Units", "mappingInstructions": "Maps directly to the SDTMIG variable listed in the SDTMIG Target column.", "name": "EXVAMTU", "ordinal": "29", "prompt": "Unit", "questionText": "What was the unit for the amount (of [study treatment/dose] ) administered?", "simpleDatatype": "Char"}, {"_links": {"implements": {"href": "/mdr/cdash/1-2/classes/Interventions/fields/--FLRT", "title": "[ --TRT] Infusion Rate", "type": "Class Variable"}, "parentDomain": {"href": "/mdr/cdashig/2-2/domains/EX", "title": "Exposure", "type": "CDASH Domain"}, "parentProduct": {"href": "/mdr/cdashig/2-2", "title": "Clinical Data Acquisition Standards Harmonization Implementation Guide for Human Clinical Trials Version 2.2", "type": "Implementation Guide"}, "priorVersion": {"href": "/mdr/cdashig/2-1/domains/EX/fields/EXFLRT", "title": "Exposure Infusion Rate", "type": "Data Collection Field"}, "rootItem": {"href": "/mdr/root/cdashig/domains/EX/fields/EXFLRT", "title": "Exposure Infusion Rate", "type": "Root Data Element"}, "sdtmigDatasetMappingTargets": [{"href": "/mdr/sdtmig/3-3/datasets/SUPPQUAL/variables/QVAL", "title": "Data Value", "type": "SDTM Dataset Variable"}], "self": {"href": "/mdr/cdashig/2-2/domains/EX/fields/EXFLRT", "title": "Exposure Infusion Rate", "type": "Data Collection Field"}}, "completionInstructions": "Record the Rate of Infusion (e.g., if rate is 10 mL/min. Record 10 as the infusion rate).", "core": "O", "definition": "The flow rate for the total amount of drug + vehicle administered to the subject.", "implementationNotes": "The infusion rate can be used to derive dose.", "label": "Exposure Infusion Rate", "mappingInstructions": "This does not map directly to an SDTMIG variable. This information could be submitted in a SUPPEX dataset as the value of SUPPEX.QVAL where SUPPEX.QNAM = \"EXFLRT\" and SUPPEX.QLABEL= \"Infusion Rate\". Refer to the current SDTM and SDTMIG for instructions on placement of NSVs in SDTM domains.", "name": "EXFLRT", "ordinal": "30", "prompt": "Infusion Rate", "questionText": "What was the [study treatment/dose] infusion rate?", "simpleDatatype": "Num"}, {"_links": {"codelist": [{"href": "/mdr/root/ct/sdtmct/codelists/C71620", "title": "Version-agnostic anchor resource for codelist C71620", "type": "Root Value Domain"}, {"href": "/mdr/root/ct/cdashct/codelists/C78429", "title": "Version-agnostic anchor resource for codelist C78429", "type": "Root Value Domain"}], "implements": {"href": "/mdr/cdash/1-2/classes/Interventions/fields/--FLRTU", "title": "[--TRT] Infusion Rate Unit", "type": "Class Variable"}, "parentDomain": {"href": "/mdr/cdashig/2-2/domains/EX", "title": "Exposure", "type": "CDASH Domain"}, "parentProduct": {"href": "/mdr/cdashig/2-2", "title": "Clinical Data Acquisition Standards Harmonization Implementation Guide for Human Clinical Trials Version 2.2", "type": "Implementation Guide"}, "priorVersion": {"href": "/mdr/cdashig/2-1/domains/EX/fields/EXFLRTU", "title": "Exposure Infusion Rate Unit", "type": "Data Collection Field"}, "rootItem": {"href": "/mdr/root/cdashig/domains/EX/fields/EXFLRTU", "title": "Exposure Infusion Rate Unit", "type": "Root Data Element"}, "sdtmigDatasetMappingTargets": [{"href": "/mdr/sdtmig/3-3/datasets/SUPPQUAL/variables/QVAL", "title": "Data Value", "type": "SDTM Dataset Variable"}], "self": {"href": "/mdr/cdashig/2-2/domains/EX/fields/EXFLRTU", "title": "Exposure Infusion Rate Unit", "type": "Data Collection Field"}}, "completionInstructions": "Record the unit for the infusion rate (e.g., mL/min).", "core": "O", "definition": "The unit of measure for the flow rate for the total amount of drug + vehicle administered to the subject.", "implementationNotes": "Unit of the infusion rate", "label": "Exposure Infusion Rate Unit", "mappingInstructions": "This does not map directly to an SDTMIG variable. This information could be submitted in a SUPPEX dataset as the value of SUPPEX.QVAL where SUPPEX.QNAM =\"EXFLRTU\" and SUPPEX.QLABEL=\"Infusion Rate Unit\". Refer to the current SDTM and SDTMIG for instructions on placement of NSVs in SDTM domains.", "name": "EXFLRTU", "ordinal": "31", "prompt": "(Infusion Rate) Unit", "questionText": "What were the units for the [study treatment/dose] infusion rate?", "simpleDatatype": "Char"}, {"_links": {"implements": {"href": "/mdr/cdash/1-2/classes/Timing/fields/--TPT", "title": "Planned Time Point Name", "type": "Class Variable"}, "parentDomain": {"href": "/mdr/cdashig/2-2/domains/EX", "title": "Exposure", "type": "CDASH Domain"}, "parentProduct": {"href": "/mdr/cdashig/2-2", "title": "Clinical Data Acquisition Standards Harmonization Implementation Guide for Human Clinical Trials Version 2.2", "type": "Implementation Guide"}, "priorVersion": {"href": "/mdr/cdashig/2-1/domains/EX/fields/EXTPT", "title": "Exposure Planned Time Point Name", "type": "Data Collection Field"}, "rootItem": {"href": "/mdr/root/cdashig/domains/EX/fields/EXTPT", "title": "Exposure Planned Time Point Name", "type": "Root Data Element"}, "sdtmigDatasetMappingTargets": [{"href": "/mdr/sdtmig/3-3/datasets/EX/variables/EXTPT", "title": "Planned Time Point Name", "type": "SDTM Dataset Variable"}], "self": {"href": "/mdr/cdashig/2-2/domains/EX/fields/EXTPT", "title": "Exposure Planned Time Point Name", "type": "Data Collection Field"}}, "completionInstructions": "Record the planned time point of study treatment administration if not pre-printed on the CRF.", "core": "R/C", "definition": "A text description of the planned time point when measurements should be taken, as defined in the protocol.", "implementationNotes": "Planned time points are needed to differentiate multiple sequential assessments. It is recommended that time points should be pre-printed on the CRF rather than collected in a field that requires the site to enter text. If the form is laid out as a grid, then words such as \"Planned Time Point\" can be included in the column heading.", "label": "Exposure Planned Time Point Name", "mappingInstructions": "Maps directly to the SDTMIG variable listed in the SDTMIG Target column. See the SDTMIG for additional information on representing time points. The SDTMIG time-point anchors EXTPTREF (text description) and EXRFTDTC (date/time) may be needed, as well as SDTMIG variables EXTPTNUM, EXELTM.", "name": "EXTPT", "ordinal": "32", "prompt": "[Planned Time Point Name]", "questionText": "What was the planned time point for [study treatment/dose] ?", "simpleDatatype": "Char"}, {"_links": {"codelist": [{"href": "/mdr/root/ct/sdtmct/codelists/C66742", "title": "Version-agnostic anchor resource for codelist C66742", "type": "Root Value Domain"}], "implements": {"href": "/mdr/cdash/1-2/classes/Interventions/fields/--TRTCMP", "title": "Completed Treatment", "type": "Class Variable"}, "parentDomain": {"href": "/mdr/cdashig/2-2/domains/EX", "title": "Exposure", "type": "CDASH Domain"}, "parentProduct": {"href": "/mdr/cdashig/2-2", "title": "Clinical Data Acquisition Standards Harmonization Implementation Guide for Human Clinical Trials Version 2.2", "type": "Implementation Guide"}, "priorVersion": {"href": "/mdr/cdashig/2-1/domains/EX/fields/EXTRTCMP", "title": "Completed Treatment", "type": "Data Collection Field"}, "rootItem": {"href": "/mdr/root/cdashig/domains/EX/fields/EXTRTCMP", "title": "Completed Treatment", "type": "Root Data Element"}, "sdtmigDatasetMappingTargets": [{"href": "/mdr/sdtmig/3-3/datasets/SUPPQUAL/variables/QVAL", "title": "Data Value", "type": "SDTM Dataset Variable"}], "self": {"href": "/mdr/cdashig/2-2/domains/EX/fields/EXTRTCMP", "title": "Completed Treatment", "type": "Data Collection Field"}}, "completionInstructions": "Select either Yes or No to indicate whether subject has completed the full course of treatment.", "core": "O", "definition": "Indication of whether the subject completed the intended regimen.", "implementationNotes": "Depending on how the study treatment details are collected via the CRF/eCRF, it may be possible to derive those data if the regimen data are collected.", "label": "Completed Treatment", "mappingInstructions": "This does not map directly to an SDTMIG variable. This information could be submitted in a SUPPEX dataset as the value of SUPPEX.QVAL where SUPPEX.QNAM = \"EXTRTCMP\" and SUPPEX.QLABEL=\" Completed Treatment\". Refer to the current SDTM and SDTMIG for instructions on placement of NSVs in SDTM domains.", "name": "EXTRTCMP", "ordinal": "33", "prompt": "Completed Treatment", "questionText": "Did the subject complete the full course of [study treatment/dose] ?", "simpleDatatype": "Char"}, {"_links": {"codelist": [{"href": "/mdr/root/ct/sdtmct/codelists/C99073", "title": "Version-agnostic anchor resource for codelist C99073", "type": "Root Value Domain"}], "implements": {"href": "/mdr/cdash/1-2/classes/Interventions/fields/--LAT", "title": "Laterality", "type": "Class Variable"}, "parentDomain": {"href": "/mdr/cdashig/2-2/domains/EX", "title": "Exposure", "type": "CDASH Domain"}, "parentProduct": {"href": "/mdr/cdashig/2-2", "title": "Clinical Data Acquisition Standards Harmonization Implementation Guide for Human Clinical Trials Version 2.2", "type": "Implementation Guide"}, "priorVersion": {"href": "/mdr/cdashig/2-1/domains/EX/fields/EXLAT", "title": "Exposure Laterality", "type": "Data Collection Field"}, "rootItem": {"href": "/mdr/root/cdashig/domains/EX/fields/EXLAT", "title": "Exposure Laterality", "type": "Root Data Element"}, "sdtmigDatasetMappingTargets": [{"href": "/mdr/sdtmig/3-3/datasets/EX/variables/EXLAT", "title": "Laterality", "type": "SDTM Dataset Variable"}], "self": {"href": "/mdr/cdashig/2-2/domains/EX/fields/EXLAT", "title": "Exposure Laterality", "type": "Data Collection Field"}}, "completionInstructions": "Record the side of the body location where the study treatment was administered (e.g., Left, Right).", "core": "O", "definition": "Qualifier for anatomical location, further detailing side of the body for the study treatment administration.", "implementationNotes": "Further details the laterality of the location where the study treatment was administered. This may be pre-printed or collected. Sponsors may collect the data using a subset list of controlled terminology on the CRF.", "label": "Exposure Laterality", "mappingInstructions": "Maps directly to the SDTMIG variable listed in the SDTMIG Target column.", "name": "EXLAT", "ordinal": "34", "prompt": "Side", "questionText": "What was the side of the anatomical location of the ([study treatment/dose] ) administration?", "simpleDatatype": "Char"}, {"_links": {"codelist": [{"href": "/mdr/root/ct/sdtmct/codelists/C99074", "title": "Version-agnostic anchor resource for codelist C99074", "type": "Root Value Domain"}], "implements": {"href": "/mdr/cdash/1-2/classes/Interventions/fields/--DIR", "title": "Directionality", "type": "Class Variable"}, "parentDomain": {"href": "/mdr/cdashig/2-2/domains/EX", "title": "Exposure", "type": "CDASH Domain"}, "parentProduct": {"href": "/mdr/cdashig/2-2", "title": "Clinical Data Acquisition Standards Harmonization Implementation Guide for Human Clinical Trials Version 2.2", "type": "Implementation Guide"}, "priorVersion": {"href": "/mdr/cdashig/2-1/domains/EX/fields/EXDIR", "title": "Exposure Directionality", "type": "Data Collection Field"}, "rootItem": {"href": "/mdr/root/cdashig/domains/EX/fields/EXDIR", "title": "Exposure Directionality", "type": "Root Data Element"}, "sdtmigDatasetMappingTargets": [{"href": "/mdr/sdtmig/3-3/datasets/EX/variables/EXDIR", "title": "Directionality", "type": "SDTM Dataset Variable"}], "self": {"href": "/mdr/cdashig/2-2/domains/EX/fields/EXDIR", "title": "Exposure Directionality", "type": "Data Collection Field"}}, "completionInstructions": "Record the directionality of the body location where the study treatment was administered (e.g., Anterior, Lower, Proximal, Upper).", "core": "O", "definition": "Qualifier further detailing the position of the anatomical location, relative to the center of the body, organ, or specimen.", "implementationNotes": "May be pre-printed or collected when the sponsor needs to identify the directionality of the anatomical location. Sponsors may collect the data using a subset list of controlled terminology on the CRF.", "label": "Exposure Directionality", "mappingInstructions": "Maps directly to the SDTMIG variable listed in the SDTMIG Target column.", "name": "EXDIR", "ordinal": "35", "prompt": "Directionality", "questionText": "What was the directionality of the anatomical location of the ([study treatment/dose] ) administration?", "simpleDatatype": "Char"}], "label": "Exposure", "name": "EX", "ordinal": "13"}
