{"_links": {"parentClass": {"href": "/mdr/cdashig/2-2/classes/FindingsAbout", "title": "Findings About Events or Interventions", "type": "Class"}, "parentProduct": {"href": "/mdr/cdashig/2-2", "title": "Clinical Data Acquisition Standards Harmonization Implementation Guide for Human Clinical Trials Version 2.2", "type": "Implementation Guide"}, "priorVersion": {"href": "/mdr/cdashig/2-1/domains/FA", "title": "Findings About Events or Interventions", "type": "CDASH Domain"}, "self": {"href": "/mdr/cdashig/2-2/domains/FA", "title": "Findings About Events or Interventions", "type": "CDASH Domain"}}, "description": "A findings domain that contains the findings about an event or intervention that cannot be represented within an events or interventions domain record or as a supplemental qualifier. (Source: CDISC Controlled Terminology, DOMAIN, C85442, 2021-06-25)", "fields": [{"_links": {"implements": {"href": "/mdr/cdash/1-2/classes/Identifiers/fields/STUDYID", "title": "Study Identifier", "type": "Class Variable"}, "parentDomain": {"href": "/mdr/cdashig/2-2/domains/FA", "title": "Findings About Events or Interventions", "type": "CDASH Domain"}, "parentProduct": {"href": "/mdr/cdashig/2-2", "title": "Clinical Data Acquisition Standards Harmonization Implementation Guide for Human Clinical Trials Version 2.2", "type": "Implementation Guide"}, "priorVersion": {"href": "/mdr/cdashig/2-1/domains/FA/fields/STUDYID", "title": "Study Identifier", "type": "Data Collection Field"}, "rootItem": {"href": "/mdr/root/cdashig/domains/FA/fields/STUDYID", "title": "Study Identifier", "type": "Root Data Element"}, "sdtmigDatasetMappingTargets": [{"href": "/mdr/sdtmig/3-3/datasets/FA/variables/STUDYID", "title": "Study Identifier", "type": "SDTM Dataset Variable"}], "self": {"href": "/mdr/cdashig/2-2/domains/FA/fields/STUDYID", "title": "Study Identifier", "type": "Data Collection Field"}}, "core": "HR", "definition": "A unique identifier for a study.", "implementationNotes": "Although this field is not typically captured on a CRF, it should be displayed clearly on the CRF and/or in the EDC system. This field can be included in the database or populated during SDTM-based dataset creation before submission.", "label": "Study Identifier", "mappingInstructions": "Maps directly to the SDTMIG variable listed in the SDTMIG Target column.", "name": "STUDYID", "ordinal": "1", "prompt": "[Protocol/Study]", "questionText": "What is the study identifier?", "simpleDatatype": "Char"}, {"_links": {"implements": {"href": "/mdr/cdash/1-2/classes/Identifiers/fields/SITEID", "title": "Study Site Identifier", "type": "Class Variable"}, "parentDomain": {"href": "/mdr/cdashig/2-2/domains/FA", "title": "Findings About Events or Interventions", "type": "CDASH Domain"}, "parentProduct": {"href": "/mdr/cdashig/2-2", "title": "Clinical Data Acquisition Standards Harmonization Implementation Guide for Human Clinical Trials Version 2.2", "type": "Implementation Guide"}, "priorVersion": {"href": "/mdr/cdashig/2-1/domains/FA/fields/SITEID", "title": "Study Site Identifier", "type": "Data Collection Field"}, "rootItem": {"href": "/mdr/root/cdashig/domains/FA/fields/SITEID", "title": "Study Site Identifier", "type": "Root Data Element"}, "sdtmigDatasetMappingTargets": [{"href": "/mdr/sdtmig/3-3/datasets/DM/variables/SITEID", "title": "Study Site Identifier", "type": "SDTM Dataset Variable"}], "self": {"href": "/mdr/cdashig/2-2/domains/FA/fields/SITEID", "title": "Study Site Identifier", "type": "Data Collection Field"}}, "core": "HR", "definition": "A unique identifier for a site within a study.", "implementationNotes": "Paper: This is typically pre-printed in the header of each CRF page for single-site studies. For studies with multiple sites, this field may be left blank so that the number can be recorded by the site, or it may be pre-printed on the CRFs that are shipped to each site. \\n EDC: This should be pre-populated.", "label": "Study Site Identifier", "mappingInstructions": "Maps directly to the SDTMIG variable listed in the SDTMIG Target column.", "name": "SITEID", "ordinal": "2", "prompt": "Site (Identifier)", "questionText": "What is the site identifier?", "simpleDatatype": "Char"}, {"_links": {"implements": {"href": "/mdr/cdash/1-2/classes/Identifiers/fields/SUBJID", "title": "Subject Identifier for the Study", "type": "Class Variable"}, "parentDomain": {"href": "/mdr/cdashig/2-2/domains/FA", "title": "Findings About Events or Interventions", "type": "CDASH Domain"}, "parentProduct": {"href": "/mdr/cdashig/2-2", "title": "Clinical Data Acquisition Standards Harmonization Implementation Guide for Human Clinical Trials Version 2.2", "type": "Implementation Guide"}, "priorVersion": {"href": "/mdr/cdashig/2-1/domains/FA/fields/SUBJID", "title": "Subject Identifier for the Study", "type": "Data Collection Field"}, "rootItem": {"href": "/mdr/root/cdashig/domains/FA/fields/SUBJID", "title": "Subject Identifier for the Study", "type": "Root Data Element"}, "sdtmigDatasetMappingTargets": [{"href": "/mdr/sdtmig/3-3/datasets/DM/variables/SUBJID", "title": "Subject Identifier for the Study", "type": "SDTM Dataset Variable"}], "self": {"href": "/mdr/cdashig/2-2/domains/FA/fields/SUBJID", "title": "Subject Identifier for the Study", "type": "Data Collection Field"}}, "completionInstructions": "Record the identifier for the subject.", "core": "HR", "definition": "A unique subject identifier within a site and a study.", "implementationNotes": "Paper: This is typically recorded in the header of each CRF page. EDC: The subject identifiers may be system-generated. This CDASH variable is typically collected in all CDASH domains. However, this CDASH variable is populated only in the SDTMIG DM domain. For more information, refer to the SDTMIG.", "label": "Subject Identifier for the Study", "mappingInstructions": "Maps directly to the SDTMIG variable listed in the SDTMIG Target column.", "name": "SUBJID", "ordinal": "3", "prompt": "[Subject/Participant] (Identifier)", "questionText": "What [is/was] the (study) [subject/participant] identifier?", "simpleDatatype": "Char"}, {"_links": {"implements": {"href": "/mdr/cdash/1-2/classes/Timing/fields/VISIT", "title": "Visit Name", "type": "Class Variable"}, "parentDomain": {"href": "/mdr/cdashig/2-2/domains/FA", "title": "Findings About Events or Interventions", "type": "CDASH Domain"}, "parentProduct": {"href": "/mdr/cdashig/2-2", "title": "Clinical Data Acquisition Standards Harmonization Implementation Guide for Human Clinical Trials Version 2.2", "type": "Implementation Guide"}, "rootItem": {"href": "/mdr/root/cdashig/domains/FA/fields/VISIT", "title": "Visit Name", "type": "Root Data Element"}, "sdtmigDatasetMappingTargets": [{"href": "/mdr/sdtmig/3-3/datasets/FA/variables/VISIT", "title": "Visit Name", "type": "SDTM Dataset Variable"}], "self": {"href": "/mdr/cdashig/2-2/domains/FA/fields/VISIT", "title": "Visit Name", "type": "Data Collection Field"}}, "core": "R/C", "definition": "The name of a clinical encounter that encompasses planned and unplanned trial interventions, procedures, and assessments that may be performed on a subject.", "implementationNotes": "The name of the clinical encounter is typically pre-printed or displayed within the EDC for any visit-based data collection, most often in Findings domains. This Visit text description is then available in any EDC data extract for that Findings domain.", "label": "Visit Name", "mappingInstructions": "Maps directly to the SDTMIG variable listed in the SDTMIG Target column.", "name": "VISIT", "ordinal": "4", "prompt": "[Visit]", "questionText": "What is the visit name?", "simpleDatatype": "Char"}, {"_links": {"implements": {"href": "/mdr/cdash/1-2/classes/Timing/fields/VISDAT", "title": "Visit Date", "type": "Class Variable"}, "parentDomain": {"href": "/mdr/cdashig/2-2/domains/FA", "title": "Findings About Events or Interventions", "type": "CDASH Domain"}, "parentProduct": {"href": "/mdr/cdashig/2-2", "title": "Clinical Data Acquisition Standards Harmonization Implementation Guide for Human Clinical Trials Version 2.2", "type": "Implementation Guide"}, "rootItem": {"href": "/mdr/root/cdashig/domains/FA/fields/VISDAT", "title": "Visit Date", "type": "Root Data Element"}, "self": {"href": "/mdr/cdashig/2-2/domains/FA/fields/VISDAT", "title": "Visit Date", "type": "Data Collection Field"}}, "completionInstructions": "Record the [date/start date] of the visit using this format (DD-MON-YYYY).", "core": "R/C", "definition": "Date the clinical encounter occurred (or started).", "implementationNotes": "The date the finding about measurements were collected can be determined from the visit date variable (VISDAT) and applying that date to all of the observations at that visit, or the collection date can be included on the FA CRF using the Findings About Date (FADAT) field.", "label": "Visit Date", "mappingInstructions": "This field is not an SDTM variable. The date of a measurement, test, observation, or specimen collection can be determined from the date/time of visit (VISDAT/VISTIM) and then concatenating the CDASH VISDAT/VISTIM components and populating the SDTMIG variable FADTC in ISO 8601 format.", "name": "VISDAT", "ordinal": "5", "prompt": "(Visit) Date", "questionText": "What [is/was] the date of the visit?", "simpleDatatype": "Char"}, {"_links": {"implements": {"href": "/mdr/cdash/1-2/classes/FindingsAbout/fields/--OBJ", "title": "Object of the Observation", "type": "Class Variable"}, "parentDomain": {"href": "/mdr/cdashig/2-2/domains/FA", "title": "Findings About Events or Interventions", "type": "CDASH Domain"}, "parentProduct": {"href": "/mdr/cdashig/2-2", "title": "Clinical Data Acquisition Standards Harmonization Implementation Guide for Human Clinical Trials Version 2.2", "type": "Implementation Guide"}, "priorVersion": {"href": "/mdr/cdashig/2-1/domains/FA/fields/FAOBJ", "title": "Findings About Object of the Observation", "type": "Data Collection Field"}, "rootItem": {"href": "/mdr/root/cdashig/domains/FA/fields/FAOBJ", "title": "Findings About Object of the Observation", "type": "Root Data Element"}, "sdtmigDatasetMappingTargets": [{"href": "/mdr/sdtmig/3-3/datasets/FA/variables/FAOBJ", "title": "Object of the Observation", "type": "SDTM Dataset Variable"}], "self": {"href": "/mdr/cdashig/2-2/domains/FA/fields/FAOBJ", "title": "Findings About Object of the Observation", "type": "Data Collection Field"}}, "completionInstructions": "[Protocol-specific]", "core": "HR", "definition": "A description of the object or focal point of the findings observation that is represented by FATEST.", "implementationNotes": "The FAOBJ will usually be pre-printed or hidden, not solicited as an actual question. These FA domains are usually created by the sponsor.", "label": "Findings About Object of the Observation", "mappingInstructions": "Maps directly to the SDTMIG variable listed in the SDTMIG Target column.", "name": "FAOBJ", "ordinal": "6", "prompt": "[Sponsored-defined phrase]", "questionText": "[Sponsored-defined phrase]", "simpleDatatype": "Char"}, {"_links": {"codelist": [{"href": "/mdr/root/ct/sdtmct/codelists/C66742", "title": "Version-agnostic anchor resource for codelist C66742", "type": "Root Value Domain"}], "implements": {"href": "/mdr/cdash/1-2/classes/Findings/fields/--YN", "title": "Any [Finding]", "type": "Class Variable"}, "parentDomain": {"href": "/mdr/cdashig/2-2/domains/FA", "title": "Findings About Events or Interventions", "type": "CDASH Domain"}, "parentProduct": {"href": "/mdr/cdashig/2-2", "title": "Clinical Data Acquisition Standards Harmonization Implementation Guide for Human Clinical Trials Version 2.2", "type": "Implementation Guide"}, "priorVersion": {"href": "/mdr/cdashig/2-1/domains/FA/fields/FAYN", "title": "Findings About Collected", "type": "Data Collection Field"}, "rootItem": {"href": "/mdr/root/cdashig/domains/FA/fields/FAYN", "title": "Findings About Collected", "type": "Root Data Element"}, "self": {"href": "/mdr/cdashig/2-2/domains/FA/fields/FAYN", "title": "Findings About Collected", "type": "Data Collection Field"}}, "completionInstructions": "Indicate if the there are findings. If Yes, include the appropriate details where indicated on the CRF.", "core": "O", "definition": "An indication of whether data was collected for the finding topic.", "implementationNotes": "This is a field that can be used in any CRF to indicate whether there is data to record. Used primarily as a data cleaning field, it provides verification that all other fields on the CRF were deliberately left blank. FAPERF should be used to capture a response about whether planned measurements, tests, or observations were done.", "label": "Findings About Collected", "mappingInstructions": "Does not map to an SDTM variable. The SDTM annotated CRF indicates that this field is NOT SUBMITTED.", "name": "FAYN", "ordinal": "7", "prompt": "Any [Finding Topic]", "questionText": "Has the subject had any [Findings topic(s)] (after/before [study specific time frame])?; [Was/Were] (there) any [Findings topic(s)] (reported) (after/before [study specific time frame])?; Were all eligibility criteria met?", "simpleDatatype": "Char"}, {"_links": {"codelist": [{"href": "/mdr/root/ct/sdtmct/codelists/C66742", "title": "Version-agnostic anchor resource for codelist C66742", "type": "Root Value Domain"}], "implements": {"href": "/mdr/cdash/1-2/classes/Findings/fields/--PERF", "title": "[Observation] Performed", "type": "Class Variable"}, "parentDomain": {"href": "/mdr/cdashig/2-2/domains/FA", "title": "Findings About Events or Interventions", "type": "CDASH Domain"}, "parentProduct": {"href": "/mdr/cdashig/2-2", "title": "Clinical Data Acquisition Standards Harmonization Implementation Guide for Human Clinical Trials Version 2.2", "type": "Implementation Guide"}, "priorVersion": {"href": "/mdr/cdashig/2-1/domains/FA/fields/FAPERF", "title": "Findings About Performed", "type": "Data Collection Field"}, "rootItem": {"href": "/mdr/root/cdashig/domains/FA/fields/FAPERF", "title": "Findings About Performed", "type": "Root Data Element"}, "sdtmigDatasetMappingTargets": [{"href": "/mdr/sdtmig/3-3/datasets/FA/variables/FASTAT", "title": "Completion Status", "type": "SDTM Dataset Variable"}], "self": {"href": "/mdr/cdashig/2-2/domains/FA/fields/FAPERF", "title": "Findings About Performed", "type": "Data Collection Field"}}, "completionInstructions": "Indicate if the [FATESTs] was/were collected. If Yes, include the appropriate details where indicated on the CRF.", "core": "O", "definition": "An indication of whether a planned measurement, series of measurements, test, observation or specimen was performed or collected.", "implementationNotes": "This field is used to capture a response to whether a planned measurement, test or observation was performed. A negative response can be collected as \"N\" and mapped to the FASTAT variable in SDTM as \"NOT DONE\".", "label": "Findings About Performed", "mappingInstructions": "This field does not map directly to an SDTM variable. May be used to populate a value into the SDTM variable FASTAT. If the CDASH variable FAPERF=\"N\", the value of the STDM variable FASTAT is \"OT DONE\". If FAPERF=\"Y\", FASTAT is null. A combination of SDTM variables (e.g., FACAT and FASCAT, FATPT) is used to indicate that multiple tests were not done. In this situation, the SDTM variable FATESTCD would be populated with FAALL and an appropriate test name (FATEST) provided. See SDTMIG for additional information.", "name": "FAPERF", "ordinal": "8", "prompt": "([FATEST/ topic] ([Measurement (s)/Test(s)/Examination(s)/Specimen(s)/Sample(s)]) [Performed/Collected]?", "questionText": "[Were any/Was the] [FATEST/topic] ([measurement(s)/test(s)/examination(s)/specimen(s)/sample(s))] [performed/collected]?", "simpleDatatype": "Char"}, {"_links": {"implements": {"href": "/mdr/cdash/1-2/classes/Timing/fields/--DAT", "title": "Collection Date", "type": "Class Variable"}, "parentDomain": {"href": "/mdr/cdashig/2-2/domains/FA", "title": "Findings About Events or Interventions", "type": "CDASH Domain"}, "parentProduct": {"href": "/mdr/cdashig/2-2", "title": "Clinical Data Acquisition Standards Harmonization Implementation Guide for Human Clinical Trials Version 2.2", "type": "Implementation Guide"}, "rootItem": {"href": "/mdr/root/cdashig/domains/FA/fields/FADAT", "title": "Findings About Assessment Date", "type": "Root Data Element"}, "sdtmigDatasetMappingTargets": [{"href": "/mdr/sdtmig/3-3/datasets/FA/variables/FADTC", "title": "Date/Time of Collection", "type": "SDTM Dataset Variable"}], "self": {"href": "/mdr/cdashig/2-2/domains/FA/fields/FADAT", "title": "Findings About Assessment Date", "type": "Data Collection Field"}}, "completionInstructions": "Record date of measurements using this format (DD-MON-YYYY).", "core": "R/C", "definition": "The date when the findings about assessment was performed, represented in an unambiguous date format (e.g., DD-MON-YYYY).", "implementationNotes": "The date the FA measurements were collected can be determined from the visit date variable (VISDAT) and applying that date to all of the observations at that visit, or the collection date can be included on the FA CRF using the Date of Collection (FADAT) field.", "label": "Findings About Assessment Date", "mappingInstructions": "This field does not map directly to an SDTM variable. For the SDTM submission dataset, concatenate all collected CDASH DATE and TIME components and populate the SDTM variable FADTC in ISO 8601 format.", "name": "FADAT", "ordinal": "9", "prompt": "Date", "questionText": "What was the date the findings about assessment was performed?", "simpleDatatype": "Char"}, {"_links": {"implements": {"href": "/mdr/cdash/1-2/classes/Timing/fields/--TIM", "title": "Collection Time", "type": "Class Variable"}, "parentDomain": {"href": "/mdr/cdashig/2-2/domains/FA", "title": "Findings About Events or Interventions", "type": "CDASH Domain"}, "parentProduct": {"href": "/mdr/cdashig/2-2", "title": "Clinical Data Acquisition Standards Harmonization Implementation Guide for Human Clinical Trials Version 2.2", "type": "Implementation Guide"}, "rootItem": {"href": "/mdr/root/cdashig/domains/FA/fields/FATIM", "title": "Findings About Assessment Time", "type": "Root Data Element"}, "sdtmigDatasetMappingTargets": [{"href": "/mdr/sdtmig/3-3/datasets/FA/variables/FADTC", "title": "Date/Time of Collection", "type": "SDTM Dataset Variable"}], "self": {"href": "/mdr/cdashig/2-2/domains/FA/fields/FATIM", "title": "Findings About Assessment Time", "type": "Data Collection Field"}}, "completionInstructions": "Record time of measurement (as complete as possible).", "core": "R/C", "definition": "The time of measurement, represented in an unambiguous time format (e.g., hh:mm:ss).", "implementationNotes": "Collect time if it is relevant for the analysis.", "label": "Findings About Assessment Time", "mappingInstructions": "This does not map directly to an SDTMIG variable. For the SDTM submission dataset, concatenate all collected CDASH DATE and TIME components and populate the SDTMIG variable VSDTC in ISO 8601 format.", "name": "FATIM", "ordinal": "10", "prompt": "Time", "questionText": "What was the time of the findings about assessment?", "simpleDatatype": "Char"}, {"_links": {"implements": {"href": "/mdr/cdash/1-2/classes/Findings/fields/--TEST", "title": "Name of Measurement, Test, or Exam", "type": "Class Variable"}, "parentDomain": {"href": "/mdr/cdashig/2-2/domains/FA", "title": "Findings About Events or Interventions", "type": "CDASH Domain"}, "parentProduct": {"href": "/mdr/cdashig/2-2", "title": "Clinical Data Acquisition Standards Harmonization Implementation Guide for Human Clinical Trials Version 2.2", "type": "Implementation Guide"}, "priorVersion": {"href": "/mdr/cdashig/2-1/domains/FA/fields/FATEST", "title": "Findings About Test Name", "type": "Data Collection Field"}, "rootItem": {"href": "/mdr/root/cdashig/domains/FA/fields/FATEST", "title": "Findings About Test Name", "type": "Root Data Element"}, "sdtmigDatasetMappingTargets": [{"href": "/mdr/sdtmig/3-3/datasets/FA/variables/FATEST", "title": "Findings About Test Name", "type": "SDTM Dataset Variable"}, {"href": "/mdr/sdtmig/3-3/datasets/FA/variables/FATESTCD", "title": "Findings About Test Short Name", "type": "SDTM Dataset Variable"}], "self": {"href": "/mdr/cdashig/2-2/domains/FA/fields/FATEST", "title": "Findings About Test Name", "type": "Data Collection Field"}}, "completionInstructions": "Record the name of the FATEST if not pre-printed on the CRF. If collected on the CRF, the sponsor may provide additional instructions to ensure the data is entered as intended.", "core": "HR", "definition": "Descriptive name for the test being performed.", "implementationNotes": "Required to identify which test the result is for. It is recommended that the test names be pre-printed on the CRF rather than collected in a free-text field. If the form is laid out as a grid, then words such as \"Test\" can be included in the column heading.", "label": "Findings About Test Name", "mappingInstructions": "Maps directly to the SDTMIG variable listed in the SDTMIG Target column. The SDTM variable FATESTCD may be determined from the value collected in FATEST. The SDTMIG variables FATESTCD and FATEST are required in SDTM.", "name": "FATEST", "ordinal": "11", "prompt": "[Measurement/Test/Examination/] (Name)", "questionText": "What [is/was] the name (of the [measurement/test/examination])?", "simpleDatatype": "Char"}, {"_links": {"implements": {"href": "/mdr/cdash/1-2/classes/Findings/fields/--TSTDTL", "title": "Measurement, Test or Examination Detail", "type": "Class Variable"}, "parentDomain": {"href": "/mdr/cdashig/2-2/domains/FA", "title": "Findings About Events or Interventions", "type": "CDASH Domain"}, "parentProduct": {"href": "/mdr/cdashig/2-2", "title": "Clinical Data Acquisition Standards Harmonization Implementation Guide for Human Clinical Trials Version 2.2", "type": "Implementation Guide"}, "priorVersion": {"href": "/mdr/cdashig/2-1/domains/FA/fields/FATSTDTL", "title": "Findings About Test Detail", "type": "Data Collection Field"}, "rootItem": {"href": "/mdr/root/cdashig/domains/FA/fields/FATSTDTL", "title": "Findings About Test Detail", "type": "Root Data Element"}, "self": {"href": "/mdr/cdashig/2-2/domains/FA/fields/FATSTDTL", "title": "Findings About Test Detail", "type": "Data Collection Field"}}, "completionInstructions": "Record the detail of the [FATEST], if not pre-printed on the CRF.", "core": "O", "definition": "A further description of FATESTCD and FATEST.", "implementationNotes": "It is recommended that the test detail name be pre-printed on the CRF. If the form is laid out as a grid, then words such as \"Test,\" \"Test Name\" can be included in the column heading.", "label": "Findings About Test Detail", "mappingInstructions": "Maps directly to the SDTMIG variable listed in the SDTMIG Target column.", "name": "FATSTDTL", "ordinal": "12", "prompt": "[Measurement/Test/Examination] Detail (Name)", "questionText": "What [is/was] the [measurement/test/examination] detail name?", "simpleDatatype": "Char"}, {"_links": {"implements": {"href": "/mdr/cdash/1-2/classes/Findings/fields/--CAT", "title": "Category", "type": "Class Variable"}, "parentDomain": {"href": "/mdr/cdashig/2-2/domains/FA", "title": "Findings About Events or Interventions", "type": "CDASH Domain"}, "parentProduct": {"href": "/mdr/cdashig/2-2", "title": "Clinical Data Acquisition Standards Harmonization Implementation Guide for Human Clinical Trials Version 2.2", "type": "Implementation Guide"}, "priorVersion": {"href": "/mdr/cdashig/2-1/domains/FA/fields/FACAT", "title": "Category for Findings About", "type": "Data Collection Field"}, "rootItem": {"href": "/mdr/root/cdashig/domains/FA/fields/FACAT", "title": "Category for Findings About", "type": "Root Data Element"}, "sdtmigDatasetMappingTargets": [{"href": "/mdr/sdtmig/3-3/datasets/FA/variables/FACAT", "title": "Category for Findings About", "type": "SDTM Dataset Variable"}], "self": {"href": "/mdr/cdashig/2-2/domains/FA/fields/FACAT", "title": "Category for Findings About", "type": "Data Collection Field"}}, "completionInstructions": "Record the FA category, if not pre-printed on the CRF.", "core": "O", "definition": "A grouping of topic-variable values based on user-defined characteristics.", "implementationNotes": "Sponsor-defined controlled terminology. This is most commonly either a heading or a pre-printed category value on the CRF, not a question to which the site would provide an answer. If a question is asked, the response would typically be a sponsor-defined codelist. If the form is laid out as a grid, then words such as \"Category\" can be included in the column heading.", "label": "Category for Findings About", "mappingInstructions": "Maps directly to the SDTMIG variable listed in the SDTMIG Target column.", "name": "FACAT", "ordinal": "13", "prompt": "[Category/Category Value]; NULL", "questionText": "What [is/was] the [type/category/name] (of the [measurement/test/examination/specimen/sample])?", "simpleDatatype": "Char"}, {"_links": {"implements": {"href": "/mdr/cdash/1-2/classes/Findings/fields/--SCAT", "title": "Subcategory", "type": "Class Variable"}, "parentDomain": {"href": "/mdr/cdashig/2-2/domains/FA", "title": "Findings About Events or Interventions", "type": "CDASH Domain"}, "parentProduct": {"href": "/mdr/cdashig/2-2", "title": "Clinical Data Acquisition Standards Harmonization Implementation Guide for Human Clinical Trials Version 2.2", "type": "Implementation Guide"}, "priorVersion": {"href": "/mdr/cdashig/2-1/domains/FA/fields/FASCAT", "title": "Subcategory for Findings About", "type": "Data Collection Field"}, "rootItem": {"href": "/mdr/root/cdashig/domains/FA/fields/FASCAT", "title": "Subcategory for Findings About", "type": "Root Data Element"}, "sdtmigDatasetMappingTargets": [{"href": "/mdr/sdtmig/3-3/datasets/FA/variables/FASCAT", "title": "Subcategory for Findings About", "type": "SDTM Dataset Variable"}], "self": {"href": "/mdr/cdashig/2-2/domains/FA/fields/FASCAT", "title": "Subcategory for Findings About", "type": "Data Collection Field"}}, "completionInstructions": "Record the FA subcategory, if not pre-printed on the CRF.", "core": "O", "definition": "A sub-division of the FACAT values based on user-defined characteristics.", "implementationNotes": "Sponsor-defined controlled terminology. This is most commonly either a heading or a pre-printed category value on the CRF, not a question to which the site would provide an answer. If a question is asked, the response would typically be a sponsor-defined codelist. If the form is laid out as a grid, then words such as \"Subcategory\" can be included in the column heading. FASCAT can only be used if there is an FACAT, and it must be a subcategorization of FACAT.", "label": "Subcategory for Findings About", "mappingInstructions": "Maps directly to the SDTMIG variable listed in the SDTMIG Target column.", "name": "FASCAT", "ordinal": "14", "prompt": "[FA Subcategory/FA Subcategory Value]; NULL", "questionText": "What [is/was] the [type/subcategory/name] (of the [measurement/test/examination/specimen/sample])?", "simpleDatatype": "Char"}, {"_links": {"codelist": [{"href": "/mdr/root/ct/sdtmct/codelists/C71148", "title": "Version-agnostic anchor resource for codelist C71148", "type": "Root Value Domain"}], "implements": {"href": "/mdr/cdash/1-2/classes/Findings/fields/--POS", "title": "Position of Subject During Observation", "type": "Class Variable"}, "parentDomain": {"href": "/mdr/cdashig/2-2/domains/FA", "title": "Findings About Events or Interventions", "type": "CDASH Domain"}, "parentProduct": {"href": "/mdr/cdashig/2-2", "title": "Clinical Data Acquisition Standards Harmonization Implementation Guide for Human Clinical Trials Version 2.2", "type": "Implementation Guide"}, "priorVersion": {"href": "/mdr/cdashig/2-1/domains/FA/fields/FAPOS", "title": "Findings About Position of Subject", "type": "Data Collection Field"}, "rootItem": {"href": "/mdr/root/cdashig/domains/FA/fields/FAPOS", "title": "Findings About Position of Subject", "type": "Root Data Element"}, "self": {"href": "/mdr/cdashig/2-2/domains/FA/fields/FAPOS", "title": "Findings About Position of Subject", "type": "Data Collection Field"}}, "completionInstructions": "Record the position of the subject during the FA test.", "core": "O", "definition": "The position of the subject during a measurement or examination.", "label": "Findings About Position of Subject", "mappingInstructions": "Maps directly to the SDTMIG variable listed in the SDTMIG Target column.", "name": "FAPOS", "ordinal": "15", "prompt": "Position", "questionText": "In what position was the subject during the [measurement/ test/examination/specimen collection/sample collection]?; What was the position of the subject (during the [measurement/test/examination/specimen collection/sample collection])?", "simpleDatatype": "Char"}, {"_links": {"implements": {"href": "/mdr/cdash/1-2/classes/Findings/fields/--ORRES", "title": "Result or Finding in Original Units", "type": "Class Variable"}, "parentDomain": {"href": "/mdr/cdashig/2-2/domains/FA", "title": "Findings About Events or Interventions", "type": "CDASH Domain"}, "parentProduct": {"href": "/mdr/cdashig/2-2", "title": "Clinical Data Acquisition Standards Harmonization Implementation Guide for Human Clinical Trials Version 2.2", "type": "Implementation Guide"}, "priorVersion": {"href": "/mdr/cdashig/2-1/domains/FA/fields/FAORRES", "title": "FA Result or Finding in Original Units", "type": "Data Collection Field"}, "rootItem": {"href": "/mdr/root/cdashig/domains/FA/fields/FAORRES", "title": "FA Result or Finding in Original Units", "type": "Root Data Element"}, "sdtmigDatasetMappingTargets": [{"href": "/mdr/sdtmig/3-3/datasets/FA/variables/FAORRES", "title": "Result or Finding in Original Units", "type": "SDTM Dataset Variable"}], "self": {"href": "/mdr/cdashig/2-2/domains/FA/fields/FAORRES", "title": "FA Result or Finding in Original Units", "type": "Data Collection Field"}}, "completionInstructions": "Record the FATEST result.", "core": "HR", "definition": "Result of the measurement or finding as originally received or collected.", "implementationNotes": "Both quantitative results and interpretive findings or summaries may be recorded here.", "label": "FA Result or Finding in Original Units", "mappingInstructions": "Maps directly to the SDTMIG variable listed in the SDTMIG Target column.", "name": "FAORRES", "ordinal": "16", "prompt": "([Result/Amount] of) [value from FATEST]", "questionText": "What [is/was] the [result/amount/(subject's) characteristic] (of the [measurement/test/examination/question/assessment])?", "simpleDatatype": "Char"}, {"_links": {"codelist": [{"href": "/mdr/root/ct/sdtmct/codelists/C71620", "title": "Version-agnostic anchor resource for codelist C71620", "type": "Root Value Domain"}], "implements": {"href": "/mdr/cdash/1-2/classes/Findings/fields/--ORRESU", "title": "Original Units", "type": "Class Variable"}, "parentDomain": {"href": "/mdr/cdashig/2-2/domains/FA", "title": "Findings About Events or Interventions", "type": "CDASH Domain"}, "parentProduct": {"href": "/mdr/cdashig/2-2", "title": "Clinical Data Acquisition Standards Harmonization Implementation Guide for Human Clinical Trials Version 2.2", "type": "Implementation Guide"}, "priorVersion": {"href": "/mdr/cdashig/2-1/domains/FA/fields/FAORRESU", "title": "FA Original Units", "type": "Data Collection Field"}, "rootItem": {"href": "/mdr/root/cdashig/domains/FA/fields/FAORRESU", "title": "FA Original Units", "type": "Root Data Element"}, "sdtmigDatasetMappingTargets": [{"href": "/mdr/sdtmig/3-3/datasets/FA/variables/FAORRESU", "title": "Original Units", "type": "SDTM Dataset Variable"}], "self": {"href": "/mdr/cdashig/2-2/domains/FA/fields/FAORRESU", "title": "FA Original Units", "type": "Data Collection Field"}}, "completionInstructions": "Select the unit of measure associated with the test, or record if not pre-printed on the CRF.", "core": "R/C", "definition": "The unit of the result as originally received or collected.", "implementationNotes": "Should be pre-printed on the CRF with the associated test when possible, rather than collected in a free-text field. Should be included if applicable and not available elsewhere.", "label": "FA Original Units", "mappingInstructions": "Maps directly to the SDTMIG variable listed in the SDTMIG Target column.", "name": "FAORRESU", "ordinal": "17", "prompt": "Unit", "questionText": "What [is/was] the unit (of the [measurement/test/examination])?", "simpleDatatype": "Char"}, {"_links": {"implements": {"href": "/mdr/cdash/1-2/classes/Findings/fields/--ORNRLO", "title": "Normal Range Lower Limit- Original Units", "type": "Class Variable"}, "parentDomain": {"href": "/mdr/cdashig/2-2/domains/FA", "title": "Findings About Events or Interventions", "type": "CDASH Domain"}, "parentProduct": {"href": "/mdr/cdashig/2-2", "title": "Clinical Data Acquisition Standards Harmonization Implementation Guide for Human Clinical Trials Version 2.2", "type": "Implementation Guide"}, "priorVersion": {"href": "/mdr/cdashig/2-1/domains/FA/fields/FAORNRLO", "title": "FA Normal Range Lower Limit- Orig Unit", "type": "Data Collection Field"}, "rootItem": {"href": "/mdr/root/cdashig/domains/FA/fields/FAORNRLO", "title": "FA Normal Range Lower Limit- Orig Unit", "type": "Root Data Element"}, "self": {"href": "/mdr/cdashig/2-2/domains/FA/fields/FAORNRLO", "title": "FA Normal Range Lower Limit- Orig Unit", "type": "Data Collection Field"}}, "completionInstructions": "Record the lower limit of the reference range of the FA test.", "core": "O", "definition": "The lower end of normal range or reference range for continuous results stored in FAORRES.", "implementationNotes": "--ORNRLO should be populated only for continuous findings. The SDTM variable --STNRC should be populated only for noncontinuous results. These data may be obtained from the lab or the electronic equipment, or could be derived from a site- or lab-specific set of normal ranges stored in a look-up table.", "label": "FA Normal Range Lower Limit- Orig Unit", "mappingInstructions": "Maps directly to the SDTMIG variable listed in the SDTMIG Target column.", "name": "FAORNRLO", "ordinal": "18", "prompt": "Normal Range Lower Limit", "questionText": "What [is/was] the lower limit of the reference range (for the [measurement/test/examination])?", "simpleDatatype": "Char"}, {"_links": {"implements": {"href": "/mdr/cdash/1-2/classes/Findings/fields/--ORNRHI", "title": "Normal Range Upper Limit-Original Units", "type": "Class Variable"}, "parentDomain": {"href": "/mdr/cdashig/2-2/domains/FA", "title": "Findings About Events or Interventions", "type": "CDASH Domain"}, "parentProduct": {"href": "/mdr/cdashig/2-2", "title": "Clinical Data Acquisition Standards Harmonization Implementation Guide for Human Clinical Trials Version 2.2", "type": "Implementation Guide"}, "priorVersion": {"href": "/mdr/cdashig/2-1/domains/FA/fields/FAORNRHI", "title": "FA Normal Range Upper Limit- Orig Unit", "type": "Data Collection Field"}, "rootItem": {"href": "/mdr/root/cdashig/domains/FA/fields/FAORNRHI", "title": "FA Normal Range Upper Limit- Orig Unit", "type": "Root Data Element"}, "self": {"href": "/mdr/cdashig/2-2/domains/FA/fields/FAORNRHI", "title": "FA Normal Range Upper Limit- Orig Unit", "type": "Data Collection Field"}}, "completionInstructions": "Record the upper limit of the reference range of the FA test.", "core": "O", "definition": "The upper end of normal range or reference range for continuous results stored in FAORRES.", "implementationNotes": "--ORNRHI should be populated only for continuous findings. The SDTM variable --STNRC should be populated only for noncontinuous results. These data may be obtained from the lab or the electronic equipment, or could be derived from a site- or lab-specific set of normal ranges stored in a look-up table.", "label": "FA Normal Range Upper Limit- Orig Unit", "mappingInstructions": "Maps directly to the SDTMIG variable listed in the SDTMIG Target column.", "name": "FAORNRHI", "ordinal": "19", "prompt": "Normal Range Upper Limit", "questionText": "What [is/was] the upper limit of the reference range (for the [measurement/test/examination])?", "simpleDatatype": "Char"}, {"_links": {"codelist": [{"href": "/mdr/root/ct/sdtmct/codelists/C78736", "title": "Version-agnostic anchor resource for codelist C78736", "type": "Root Value Domain"}], "implements": {"href": "/mdr/cdash/1-2/classes/Findings/fields/--NRIND", "title": "Normal/Reference Range Indicator", "type": "Class Variable"}, "parentDomain": {"href": "/mdr/cdashig/2-2/domains/FA", "title": "Findings About Events or Interventions", "type": "CDASH Domain"}, "parentProduct": {"href": "/mdr/cdashig/2-2", "title": "Clinical Data Acquisition Standards Harmonization Implementation Guide for Human Clinical Trials Version 2.2", "type": "Implementation Guide"}, "priorVersion": {"href": "/mdr/cdashig/2-1/domains/FA/fields/FANRIND", "title": "Findings About Reference Range Indicator", "type": "Data Collection Field"}, "rootItem": {"href": "/mdr/root/cdashig/domains/FA/fields/FANRIND", "title": "Findings About Reference Range Indicator", "type": "Root Data Element"}, "self": {"href": "/mdr/cdashig/2-2/domains/FA/fields/FANRIND", "title": "Findings About Reference Range Indicator", "type": "Data Collection Field"}}, "completionInstructions": "Record where the test results were categorized within the respective reference range (e.g. HIGH, LOW, ABNORMAL).", "core": "O", "definition": "An indication or description about how the value compares to the normal range or reference range.", "implementationNotes": "Reference ranges may be defined by FAORNRLO, FAORNRHI, FASTNRC or other objective criteria. Reference Range Indicator may be included if not derived or determined programmatically after data collection. Should not be used to indicate clinical significance.", "label": "Findings About Reference Range Indicator", "mappingInstructions": "Maps directly to the SDTMIG variable listed in the SDTMIG Target column.", "name": "FANRIND", "ordinal": "20", "prompt": "Comparison to [Reference/Expected/Normal] Range", "questionText": "How [did/do] the reported values compare within the [reference/normal/expected] range?", "simpleDatatype": "Char"}, {"_links": {"codelist": [{"href": "/mdr/root/ct/sdtmct/codelists/C66789", "title": "Version-agnostic anchor resource for codelist C66789", "type": "Root Value Domain"}], "implements": {"href": "/mdr/cdash/1-2/classes/Findings/fields/--STAT", "title": "Completion Status", "type": "Class Variable"}, "parentDomain": {"href": "/mdr/cdashig/2-2/domains/FA", "title": "Findings About Events or Interventions", "type": "CDASH Domain"}, "parentProduct": {"href": "/mdr/cdashig/2-2", "title": "Clinical Data Acquisition Standards Harmonization Implementation Guide for Human Clinical Trials Version 2.2", "type": "Implementation Guide"}, "priorVersion": {"href": "/mdr/cdashig/2-1/domains/FA/fields/FASTAT", "title": "Findings About Completion Status", "type": "Data Collection Field"}, "rootItem": {"href": "/mdr/root/cdashig/domains/FA/fields/FASTAT", "title": "Findings About Completion Status", "type": "Root Data Element"}, "sdtmigDatasetMappingTargets": [{"href": "/mdr/sdtmig/3-3/datasets/FA/variables/FASTAT", "title": "Completion Status", "type": "SDTM Dataset Variable"}], "self": {"href": "/mdr/cdashig/2-2/domains/FA/fields/FASTAT", "title": "Findings About Completion Status", "type": "Data Collection Field"}}, "completionInstructions": "Indicate if the [FATEST] measurement was not done.", "core": "O", "definition": "This variable is used to indicate that data are not available, by having the site recording the value as \"Not Done\".", "implementationNotes": "Used only when the response value is collected as NOT DONE or NULL in lieu of or in addition to the CDASH FAPERF field. Typically a checkbox which indicates the test was NOT DONE. This field can be useful when multiple questions are asked to confirm that a blank result field is meant to be blank.", "label": "Findings About Completion Status", "mappingInstructions": "Maps directly to the SDTMIG variable listed in the SDTMIG Target column. If collected, the Origin (a column in the Define-XML) =\"CRF\", if populated from other sources such as a free text or sponsor-defined listing for FAREASND, the Origin =\"DERIVED\".", "name": "FASTAT", "ordinal": "21", "prompt": "Not Done", "questionText": "Was the [--TEST ] not [completed/answered/done/assessed/evaluated ]?; Indicate if the([--TEST] was) not [answered/assessed/done/evaluated/performed].", "simpleDatatype": "Char"}, {"_links": {"implements": {"href": "/mdr/cdash/1-2/classes/Findings/fields/--REASND", "title": "Reason Not Done", "type": "Class Variable"}, "parentDomain": {"href": "/mdr/cdashig/2-2/domains/FA", "title": "Findings About Events or Interventions", "type": "CDASH Domain"}, "parentProduct": {"href": "/mdr/cdashig/2-2", "title": "Clinical Data Acquisition Standards Harmonization Implementation Guide for Human Clinical Trials Version 2.2", "type": "Implementation Guide"}, "priorVersion": {"href": "/mdr/cdashig/2-1/domains/FA/fields/FAREASND", "title": "Findings About Reason Not Performed", "type": "Data Collection Field"}, "rootItem": {"href": "/mdr/root/cdashig/domains/FA/fields/FAREASND", "title": "Findings About Reason Not Performed", "type": "Root Data Element"}, "sdtmigDatasetMappingTargets": [{"href": "/mdr/sdtmig/3-3/datasets/FA/variables/FAREASND", "title": "Reason Not Performed", "type": "SDTM Dataset Variable"}], "self": {"href": "/mdr/cdashig/2-2/domains/FA/fields/FAREASND", "title": "Findings About Reason Not Performed", "type": "Data Collection Field"}}, "completionInstructions": "Provide the reason why an FA test was not collected.", "core": "O", "definition": "An explanation of why data are not available.", "implementationNotes": "Sponsor-defined controlled terminology may be used. The reason the data are not available may be chosen from a sponsor-defined codelist (e.g., broken equipment, subject refused, etc.) or entered as free text. When --REASND is used, --STAT should also be populated in the SDTM-based dataset.", "label": "Findings About Reason Not Performed", "mappingInstructions": "Maps directly to the SDTMIG variable listed in the SDTMIG Target column.", "name": "FAREASND", "ordinal": "22", "prompt": "Reason Not [Answered/Collected/Done/Evaluated/Assessed/Available]", "questionText": "Was the [is/was] the reason that the [Findings topic/data/information/sponsor-defined phrase] was not [collected/answered/done/assessed/evaluated]?", "simpleDatatype": "Char"}, {"_links": {"codelist": [{"href": "/mdr/root/ct/sdtmct/codelists/C78734", "title": "Version-agnostic anchor resource for codelist C78734", "type": "Root Value Domain"}], "implements": {"href": "/mdr/cdash/1-2/classes/Findings/fields/--SPEC", "title": "Specimen Material Type", "type": "Class Variable"}, "parentDomain": {"href": "/mdr/cdashig/2-2/domains/FA", "title": "Findings About Events or Interventions", "type": "CDASH Domain"}, "parentProduct": {"href": "/mdr/cdashig/2-2", "title": "Clinical Data Acquisition Standards Harmonization Implementation Guide for Human Clinical Trials Version 2.2", "type": "Implementation Guide"}, "priorVersion": {"href": "/mdr/cdashig/2-1/domains/FA/fields/FASPEC", "title": "Findings About Specimen Type", "type": "Data Collection Field"}, "rootItem": {"href": "/mdr/root/cdashig/domains/FA/fields/FASPEC", "title": "Findings About Specimen Type", "type": "Root Data Element"}, "self": {"href": "/mdr/cdashig/2-2/domains/FA/fields/FASPEC", "title": "Findings About Specimen Type", "type": "Data Collection Field"}}, "completionInstructions": "Record the specimen material type.", "core": "O", "definition": "The type of specimen used for a measurement.", "implementationNotes": "The type of specimen used for a measure. Should be collected if not available elsewhere, or if required to differentiate multiple specimens.", "label": "Findings About Specimen Type", "mappingInstructions": "Maps directly to the SDTMIG variable listed in the SDTMIG Target column.", "name": "FASPEC", "ordinal": "23", "prompt": "Specimen Type", "questionText": "What [is/was] the specimen type?", "simpleDatatype": "Char"}, {"_links": {"codelist": [{"href": "/mdr/root/ct/sdtmct/codelists/C78733", "title": "Version-agnostic anchor resource for codelist C78733", "type": "Root Value Domain"}], "implements": {"href": "/mdr/cdash/1-2/classes/Findings/fields/--SPCCND", "title": "Specimen Condition", "type": "Class Variable"}, "parentDomain": {"href": "/mdr/cdashig/2-2/domains/FA", "title": "Findings About Events or Interventions", "type": "CDASH Domain"}, "parentProduct": {"href": "/mdr/cdashig/2-2", "title": "Clinical Data Acquisition Standards Harmonization Implementation Guide for Human Clinical Trials Version 2.2", "type": "Implementation Guide"}, "priorVersion": {"href": "/mdr/cdashig/2-1/domains/FA/fields/FASPCCND", "title": "Findings About Specimen Condition", "type": "Data Collection Field"}, "rootItem": {"href": "/mdr/root/cdashig/domains/FA/fields/FASPCCND", "title": "Findings About Specimen Condition", "type": "Root Data Element"}, "self": {"href": "/mdr/cdashig/2-2/domains/FA/fields/FASPCCND", "title": "Findings About Specimen Condition", "type": "Data Collection Field"}}, "completionInstructions": "Record the condition of the specimen.", "core": "O", "definition": "Description of the condition of the specimen.", "implementationNotes": "May be collected using free or standardized text. Results may be affected by whether conditions for specimen were properly met. When local processing is used, sponsors may not routinely collect specimen condition.", "label": "Findings About Specimen Condition", "mappingInstructions": "Maps directly to the SDTMIG variable listed in the SDTMIG Target column.", "name": "FASPCCND", "ordinal": "24", "prompt": "Specimen Condition", "questionText": "What [is/was] the condition of the specimen?", "simpleDatatype": "Char"}, {"_links": {"codelist": [{"href": "/mdr/root/ct/sdtmct/codelists/C74456", "title": "Version-agnostic anchor resource for codelist C74456", "type": "Root Value Domain"}], "implements": {"href": "/mdr/cdash/1-2/classes/Findings/fields/--LOC", "title": "Location Used for the Measurement", "type": "Class Variable"}, "parentDomain": {"href": "/mdr/cdashig/2-2/domains/FA", "title": "Findings About Events or Interventions", "type": "CDASH Domain"}, "parentProduct": {"href": "/mdr/cdashig/2-2", "title": "Clinical Data Acquisition Standards Harmonization Implementation Guide for Human Clinical Trials Version 2.2", "type": "Implementation Guide"}, "priorVersion": {"href": "/mdr/cdashig/2-1/domains/FA/fields/FALOC", "title": "Location of the Finding About", "type": "Data Collection Field"}, "rootItem": {"href": "/mdr/root/cdashig/domains/FA/fields/FALOC", "title": "Location of the Finding About", "type": "Root Data Element"}, "sdtmigDatasetMappingTargets": [{"href": "/mdr/sdtmig/3-3/datasets/FA/variables/FALOC", "title": "Location of the Finding About", "type": "SDTM Dataset Variable"}], "self": {"href": "/mdr/cdashig/2-2/domains/FA/fields/FALOC", "title": "Location of the Finding About", "type": "Data Collection Field"}}, "completionInstructions": "Record or select location on body where the measurement was performed, if not pre-printed on CRF.", "core": "O", "definition": "The anatomical location of the subject, relevant to the collection of the measurement.", "implementationNotes": "Collected or pre-printed when the sponsor needs to identify the specific anatomical location (e.g., ARM for blood pressure). Sponsors may collect the data using a subset list of controlled terminology on the CRF. LAT, DIR, and PORTOT are used to further describe the anatomical location.", "label": "Location of the Finding About", "mappingInstructions": "Maps directly to the SDTMIG variable listed in the SDTMIG Target column.", "name": "FALOC", "ordinal": "25", "prompt": "Anatomical Location", "questionText": "What [is/was] the anatomical location (of the [measurement/test/examination]) or What [is/was] the anatomical location where the [measurement/specimen] was taken/collected)?", "simpleDatatype": "Char"}, {"_links": {"codelist": [{"href": "/mdr/root/ct/sdtmct/codelists/C99073", "title": "Version-agnostic anchor resource for codelist C99073", "type": "Root Value Domain"}], "implements": {"href": "/mdr/cdash/1-2/classes/Findings/fields/--LAT", "title": "Laterality", "type": "Class Variable"}, "parentDomain": {"href": "/mdr/cdashig/2-2/domains/FA", "title": "Findings About Events or Interventions", "type": "CDASH Domain"}, "parentProduct": {"href": "/mdr/cdashig/2-2", "title": "Clinical Data Acquisition Standards Harmonization Implementation Guide for Human Clinical Trials Version 2.2", "type": "Implementation Guide"}, "priorVersion": {"href": "/mdr/cdashig/2-1/domains/FA/fields/FALAT", "title": "Laterality of Location of Finding About", "type": "Data Collection Field"}, "rootItem": {"href": "/mdr/root/cdashig/domains/FA/fields/FALAT", "title": "Laterality of Location of Finding About", "type": "Root Data Element"}, "sdtmigDatasetMappingTargets": [{"href": "/mdr/sdtmig/3-3/datasets/FA/variables/FALAT", "title": "Laterality", "type": "SDTM Dataset Variable"}], "self": {"href": "/mdr/cdashig/2-2/domains/FA/fields/FALAT", "title": "Laterality of Location of Finding About", "type": "Data Collection Field"}}, "completionInstructions": "Record the side of the anatomical location of the [FATEST] measurement.", "core": "O", "definition": "Qualifier for anatomical location, further detailing the side of the body.", "implementationNotes": "May be pre-printed or collected when the sponsor needs to identify the specific side of the anatomical location. Sponsors may collect the data using a subset list of controlled terminology on the CRF.", "label": "Laterality of Location of Finding About", "mappingInstructions": "Maps directly to the SDTMIG variable listed in the SDTMIG Target column.", "name": "FALAT", "ordinal": "26", "prompt": "Side", "questionText": "What [is/was] the side (of the anatomical location of the [measurement/test/examination])?", "simpleDatatype": "Char"}, {"_links": {"codelist": [{"href": "/mdr/root/ct/sdtmct/codelists/C99074", "title": "Version-agnostic anchor resource for codelist C99074", "type": "Root Value Domain"}], "implements": {"href": "/mdr/cdash/1-2/classes/Findings/fields/--DIR", "title": "Directionality", "type": "Class Variable"}, "parentDomain": {"href": "/mdr/cdashig/2-2/domains/FA", "title": "Findings About Events or Interventions", "type": "CDASH Domain"}, "parentProduct": {"href": "/mdr/cdashig/2-2", "title": "Clinical Data Acquisition Standards Harmonization Implementation Guide for Human Clinical Trials Version 2.2", "type": "Implementation Guide"}, "priorVersion": {"href": "/mdr/cdashig/2-1/domains/FA/fields/FADIR", "title": "Findings About Directionality", "type": "Data Collection Field"}, "rootItem": {"href": "/mdr/root/cdashig/domains/FA/fields/FADIR", "title": "Findings About Directionality", "type": "Root Data Element"}, "self": {"href": "/mdr/cdashig/2-2/domains/FA/fields/FADIR", "title": "Findings About Directionality", "type": "Data Collection Field"}}, "completionInstructions": "Record the directionality.", "core": "O", "definition": "Qualifier further detailing the position of the anatomical location, relative to the center of the body, organ, or specimen.", "implementationNotes": "May be pre-printed or collected when the sponsor needs to identify the directionality of the anatomical location. Sponsors may collect the data using a subset list of controlled terminology on the CRF.", "label": "Findings About Directionality", "mappingInstructions": "Maps directly to the SDTMIG variable listed in the SDTMIG Target column.", "name": "FADIR", "ordinal": "27", "prompt": "Directionality", "questionText": "What [is/was] the directionality (of the anatomical location of the [measurement/test/examination])?", "simpleDatatype": "Char"}, {"_links": {"codelist": [{"href": "/mdr/root/ct/sdtmct/codelists/C99075", "title": "Version-agnostic anchor resource for codelist C99075", "type": "Root Value Domain"}], "implements": {"href": "/mdr/cdash/1-2/classes/Findings/fields/--PORTOT", "title": "Portion or Totality", "type": "Class Variable"}, "parentDomain": {"href": "/mdr/cdashig/2-2/domains/FA", "title": "Findings About Events or Interventions", "type": "CDASH Domain"}, "parentProduct": {"href": "/mdr/cdashig/2-2", "title": "Clinical Data Acquisition Standards Harmonization Implementation Guide for Human Clinical Trials Version 2.2", "type": "Implementation Guide"}, "priorVersion": {"href": "/mdr/cdashig/2-1/domains/FA/fields/FAPORTOT", "title": "FA Location Portion or Totality", "type": "Data Collection Field"}, "rootItem": {"href": "/mdr/root/cdashig/domains/FA/fields/FAPORTOT", "title": "FA Location Portion or Totality", "type": "Root Data Element"}, "self": {"href": "/mdr/cdashig/2-2/domains/FA/fields/FAPORTOT", "title": "FA Location Portion or Totality", "type": "Data Collection Field"}}, "completionInstructions": "Indicate the portion or totality anatomical location.", "core": "O", "definition": "Qualifier for anatomical location, further detailing the distribution (i.e.,arrangement of, apportioning of).", "implementationNotes": "Collected when the sponsor needs to identify the specific portionality for the anatomical locations of the location of the FATEST. Sponsors may collect the data using a subset list of controlled terminology on the CRF.", "label": "FA Location Portion or Totality", "mappingInstructions": "Maps directly to the SDTMIG variable listed in the SDTMIG Target column.", "name": "FAPORTOT", "ordinal": "28", "prompt": "Portion or Totality", "questionText": "What [is/was] the portion or totality (of the anatomical location of the [measurement/test/examination])?", "simpleDatatype": "Char"}, {"_links": {"codelist": [{"href": "/mdr/root/ct/sdtmct/codelists/C85492", "title": "Version-agnostic anchor resource for codelist C85492", "type": "Root Value Domain"}], "implements": {"href": "/mdr/cdash/1-2/classes/Findings/fields/--METHOD", "title": "Method of Test or Examination", "type": "Class Variable"}, "parentDomain": {"href": "/mdr/cdashig/2-2/domains/FA", "title": "Findings About Events or Interventions", "type": "CDASH Domain"}, "parentProduct": {"href": "/mdr/cdashig/2-2", "title": "Clinical Data Acquisition Standards Harmonization Implementation Guide for Human Clinical Trials Version 2.2", "type": "Implementation Guide"}, "priorVersion": {"href": "/mdr/cdashig/2-1/domains/FA/fields/FAMETHOD", "title": "Findings About Method", "type": "Data Collection Field"}, "rootItem": {"href": "/mdr/root/cdashig/domains/FA/fields/FAMETHOD", "title": "Findings About Method", "type": "Root Data Element"}, "self": {"href": "/mdr/cdashig/2-2/domains/FA/fields/FAMETHOD", "title": "Findings About Method", "type": "Data Collection Field"}}, "completionInstructions": "Record the method used for the measurement, test, or examination.", "core": "O", "definition": "Method of the test or examination.", "label": "Findings About Method", "mappingInstructions": "Maps directly to the SDTMIG variable listed in the SDTMIG Target column.", "name": "FAMETHOD", "ordinal": "29", "prompt": "Method", "questionText": "What was the method (used for the [measurement/test/examination])?", "simpleDatatype": "Char"}, {"_links": {"implements": {"href": "/mdr/cdash/1-2/classes/Findings/fields/--LEAD", "title": "Lead Identified to Collect Measurements", "type": "Class Variable"}, "parentDomain": {"href": "/mdr/cdashig/2-2/domains/FA", "title": "Findings About Events or Interventions", "type": "CDASH Domain"}, "parentProduct": {"href": "/mdr/cdashig/2-2", "title": "Clinical Data Acquisition Standards Harmonization Implementation Guide for Human Clinical Trials Version 2.2", "type": "Implementation Guide"}, "priorVersion": {"href": "/mdr/cdashig/2-1/domains/FA/fields/FALEAD", "title": "Findings About Lead", "type": "Data Collection Field"}, "rootItem": {"href": "/mdr/root/cdashig/domains/FA/fields/FALEAD", "title": "Findings About Lead", "type": "Root Data Element"}, "self": {"href": "/mdr/cdashig/2-2/domains/FA/fields/FALEAD", "title": "Findings About Lead", "type": "Data Collection Field"}}, "completionInstructions": "Record the lead used for measurement.", "core": "O", "definition": "The lead or leads identified to capture the measurement for a test from an instrument.", "label": "Findings About Lead", "mappingInstructions": "Maps directly to the SDTMIG variable listed in the SDTMIG Target column.", "name": "FALEAD", "ordinal": "30", "prompt": "Lead", "questionText": "What [is/was] the lead (used to measure [measurement/test/examination])?", "simpleDatatype": "Char"}, {"_links": {"codelist": [{"href": "/mdr/root/ct/sdtmct/codelists/C66742", "title": "Version-agnostic anchor resource for codelist C66742", "type": "Root Value Domain"}], "implements": {"href": "/mdr/cdash/1-2/classes/Findings/fields/--FAST", "title": "Fasting Status", "type": "Class Variable"}, "parentDomain": {"href": "/mdr/cdashig/2-2/domains/FA", "title": "Findings About Events or Interventions", "type": "CDASH Domain"}, "parentProduct": {"href": "/mdr/cdashig/2-2", "title": "Clinical Data Acquisition Standards Harmonization Implementation Guide for Human Clinical Trials Version 2.2", "type": "Implementation Guide"}, "priorVersion": {"href": "/mdr/cdashig/2-1/domains/FA/fields/FAFAST", "title": "Findings About Fasting Status", "type": "Data Collection Field"}, "rootItem": {"href": "/mdr/root/cdashig/domains/FA/fields/FAFAST", "title": "Findings About Fasting Status", "type": "Root Data Element"}, "self": {"href": "/mdr/cdashig/2-2/domains/FA/fields/FAFAST", "title": "Findings About Fasting Status", "type": "Data Collection Field"}}, "completionInstructions": "Record whether the subject was fasting prior to the test being performed.", "core": "O", "definition": "An indication that the subject has abstained from food/water for the specified amount of time.", "implementationNotes": "Results may be affected by whether the subject was fasting. This may not be relevant for all tests.", "label": "Findings About Fasting Status", "mappingInstructions": "Maps directly to the SDTMIG variable listed in the SDTMIG Target column.", "name": "FAFAST", "ordinal": "31", "prompt": "Fasting", "questionText": "[Is/Was] the subject fasting (prior to the [test being performed/sample being collected])?", "simpleDatatype": "Char"}, {"_links": {"codelist": [{"href": "/mdr/root/ct/sdtmct/codelists/C78735", "title": "Version-agnostic anchor resource for codelist C78735", "type": "Root Value Domain"}], "implements": {"href": "/mdr/cdash/1-2/classes/Findings/fields/--EVAL", "title": "Evaluator", "type": "Class Variable"}, "parentDomain": {"href": "/mdr/cdashig/2-2/domains/FA", "title": "Findings About Events or Interventions", "type": "CDASH Domain"}, "parentProduct": {"href": "/mdr/cdashig/2-2", "title": "Clinical Data Acquisition Standards Harmonization Implementation Guide for Human Clinical Trials Version 2.2", "type": "Implementation Guide"}, "priorVersion": {"href": "/mdr/cdashig/2-1/domains/FA/fields/FAEVAL", "title": "Findings About Evaluator", "type": "Data Collection Field"}, "rootItem": {"href": "/mdr/root/cdashig/domains/FA/fields/FAEVAL", "title": "Findings About Evaluator", "type": "Root Data Element"}, "sdtmigDatasetMappingTargets": [{"href": "/mdr/sdtmig/3-3/datasets/FA/variables/FAEVAL", "title": "Evaluator", "type": "SDTM Dataset Variable"}], "self": {"href": "/mdr/cdashig/2-2/domains/FA/fields/FAEVAL", "title": "Findings About Evaluator", "type": "Data Collection Field"}}, "completionInstructions": "Select the role of the person who provided the evaluation (e.g., INVESTIGATOR, ADJUDICATION COMMITTEE, VENDOR).", "core": "O", "definition": "The role of the person providing the evaluation.", "implementationNotes": "Used only for results that are subjective (e.g., assigned by a person or a group). May be a pre-printed, or collected. Sponsors may collect the data using a subset list of controlled terminology on the CRF.", "label": "Findings About Evaluator", "mappingInstructions": "Maps directly to the SDTMIG variable listed in the SDTMIG Target column.", "name": "FAEVAL", "ordinal": "32", "prompt": "[Evaluator/Reporter]", "questionText": "Who provided the (sponsor-defined phrase) information?; Who was the evaluator?", "simpleDatatype": "Char"}, {"_links": {"codelist": [{"href": "/mdr/root/ct/sdtmct/codelists/C96777", "title": "Version-agnostic anchor resource for codelist C96777", "type": "Root Value Domain"}], "implements": {"href": "/mdr/cdash/1-2/classes/Findings/fields/--EVALID", "title": "Evaluator Identifier", "type": "Class Variable"}, "parentDomain": {"href": "/mdr/cdashig/2-2/domains/FA", "title": "Findings About Events or Interventions", "type": "CDASH Domain"}, "parentProduct": {"href": "/mdr/cdashig/2-2", "title": "Clinical Data Acquisition Standards Harmonization Implementation Guide for Human Clinical Trials Version 2.2", "type": "Implementation Guide"}, "priorVersion": {"href": "/mdr/cdashig/2-1/domains/FA/fields/FAEVALID", "title": "Findings About Evaluator Identifier", "type": "Data Collection Field"}, "rootItem": {"href": "/mdr/root/cdashig/domains/FA/fields/FAEVALID", "title": "Findings About Evaluator Identifier", "type": "Root Data Element"}, "self": {"href": "/mdr/cdashig/2-2/domains/FA/fields/FAEVALID", "title": "Findings About Evaluator Identifier", "type": "Data Collection Field"}}, "completionInstructions": "Record the unique identifier assigned to the person making the evaluation.", "core": "O", "definition": "An identifier used to distinguish multiple evaluators with the same role recorded in FAEVAL.", "implementationNotes": "This variable is used in conjunction with FAEVAL to provide an additional level of detail.", "label": "Findings About Evaluator Identifier", "mappingInstructions": "Maps directly to the SDTMIG variable listed in the SDTMIG Target column.", "name": "FAEVALID", "ordinal": "33", "prompt": "[Evaluator/Reporter] Identifier", "questionText": "What [is/was] the identifier of the [evaluator name/reporter name] (providing the-sponsor-defined phrase-information)?", "simpleDatatype": "Char"}, {"_links": {"codelist": [{"href": "/mdr/root/ct/sdtmct/codelists/C66742", "title": "Version-agnostic anchor resource for codelist C66742", "type": "Root Value Domain"}], "implements": {"href": "/mdr/cdash/1-2/classes/Findings/fields/--CLSIG", "title": "Clinical Significance", "type": "Class Variable"}, "parentDomain": {"href": "/mdr/cdashig/2-2/domains/FA", "title": "Findings About Events or Interventions", "type": "CDASH Domain"}, "parentProduct": {"href": "/mdr/cdashig/2-2", "title": "Clinical Data Acquisition Standards Harmonization Implementation Guide for Human Clinical Trials Version 2.2", "type": "Implementation Guide"}, "priorVersion": {"href": "/mdr/cdashig/2-1/domains/FA/fields/FACLSIG", "title": "Findings About Clinical Significance", "type": "Data Collection Field"}, "rootItem": {"href": "/mdr/root/cdashig/domains/FA/fields/FACLSIG", "title": "Findings About Clinical Significance", "type": "Root Data Element"}, "sdtmigDatasetMappingTargets": [{"href": "/mdr/sdtmig/3-3/datasets/SUPPQUAL/variables/QVAL", "title": "Data Value", "type": "SDTM Dataset Variable"}], "self": {"href": "/mdr/cdashig/2-2/domains/FA/fields/FACLSIG", "title": "Findings About Clinical Significance", "type": "Data Collection Field"}}, "completionInstructions": "Record whether the [FATEST] result was clinically significant.", "core": "O", "definition": "An indication whether the test results were clinically significant.", "label": "Findings About Clinical Significance", "mappingInstructions": "This does not map directly to an SDTMIG variable. This information could be submitted in a SUPPFA dataset as the value of SUPPFA.QVAL when SUPPFA.QNAM = \"CLSIG\" and SUPPFA.QLABEL = \"Clinical Significance\". Refer to the current SDTM and SDTMIG for instructions on placement of non-standard variables in SDTM domains.", "name": "FACLSIG", "ordinal": "34", "prompt": "([Measurement/Test/Examination/])/Clinically Significant", "questionText": "[Is/Was] the ([measurement/test/examination]) result clinically significant?", "simpleDatatype": "Char"}], "label": "Findings About Events or Interventions", "name": "FA", "ordinal": "14"}
