{"_links": {"parentClass": {"href": "/mdr/cdashig/2-2/classes/Events", "title": "Events", "type": "Class"}, "parentProduct": {"href": "/mdr/cdashig/2-2", "title": "Clinical Data Acquisition Standards Harmonization Implementation Guide for Human Clinical Trials Version 2.2", "type": "Implementation Guide"}, "priorVersion": {"href": "/mdr/cdashig/2-1/domains/MH", "title": "Medical History", "type": "CDASH Domain"}, "self": {"href": "/mdr/cdashig/2-2/domains/MH", "title": "Medical History", "type": "CDASH Domain"}}, "description": "An events domain that contains data that includes the subject's prior medical history at the start of the trial. (Source: CDISC Controlled Terminology, DOMAIN, C49603, 2021-06-25)", "fields": [{"_links": {"implements": {"href": "/mdr/cdash/1-2/classes/Identifiers/fields/STUDYID", "title": "Study Identifier", "type": "Class Variable"}, "parentDomain": {"href": "/mdr/cdashig/2-2/domains/MH", "title": "Medical History", "type": "CDASH Domain"}, "parentProduct": {"href": "/mdr/cdashig/2-2", "title": "Clinical Data Acquisition Standards Harmonization Implementation Guide for Human Clinical Trials Version 2.2", "type": "Implementation Guide"}, "priorVersion": {"href": "/mdr/cdashig/2-1/domains/MH/fields/STUDYID", "title": "Study Identifier", "type": "Data Collection Field"}, "rootItem": {"href": "/mdr/root/cdashig/domains/MH/fields/STUDYID", "title": "Study Identifier", "type": "Root Data Element"}, "sdtmigDatasetMappingTargets": [{"href": "/mdr/sdtmig/3-3/datasets/MH/variables/STUDYID", "title": "Study Identifier", "type": "SDTM Dataset Variable"}], "self": {"href": "/mdr/cdashig/2-2/domains/MH/fields/STUDYID", "title": "Study Identifier", "type": "Data Collection Field"}}, "core": "HR", "definition": "A unique identifier for a study.", "implementationNotes": "Although this field is not typically captured on a CRF, it should be displayed clearly on the CRF and/or in the EDC system. This field can be included into the database or populated during SDTM- based dataset creation before submission.", "label": "Study Identifier", "mappingInstructions": "Maps directly to the SDTMIG variable listed in the SDTMIG Target column.", "name": "STUDYID", "ordinal": "1", "prompt": "[Protocol/Study]", "questionText": "What is the study identifier?", "simpleDatatype": "Char"}, {"_links": {"implements": {"href": "/mdr/cdash/1-2/classes/Identifiers/fields/SITEID", "title": "Study Site Identifier", "type": "Class Variable"}, "parentDomain": {"href": "/mdr/cdashig/2-2/domains/MH", "title": "Medical History", "type": "CDASH Domain"}, "parentProduct": {"href": "/mdr/cdashig/2-2", "title": "Clinical Data Acquisition Standards Harmonization Implementation Guide for Human Clinical Trials Version 2.2", "type": "Implementation Guide"}, "priorVersion": {"href": "/mdr/cdashig/2-1/domains/MH/fields/SITEID", "title": "Study Site Identifier", "type": "Data Collection Field"}, "rootItem": {"href": "/mdr/root/cdashig/domains/MH/fields/SITEID", "title": "Study Site Identifier", "type": "Root Data Element"}, "sdtmigDatasetMappingTargets": [{"href": "/mdr/sdtmig/3-3/datasets/DM/variables/SITEID", "title": "Study Site Identifier", "type": "SDTM Dataset Variable"}], "self": {"href": "/mdr/cdashig/2-2/domains/MH/fields/SITEID", "title": "Study Site Identifier", "type": "Data Collection Field"}}, "core": "HR", "definition": "A unique identifier for a site within a study.", "implementationNotes": "Paper: This is typically pre-printed in the header of each CRF page for single-site studies. For studies with multiple sites, this field may be left blank so that the number can be recorded by the site, or it may be pre-printed on the CRFs that are shipped to each site. \\n EDC: This should be pre-populated.", "label": "Study Site Identifier", "mappingInstructions": "Maps directly to the SDTMIG variable listed in the SDTMIG Target column.", "name": "SITEID", "ordinal": "2", "prompt": "Site (Identifier)", "questionText": "What is the site identifier?", "simpleDatatype": "Char"}, {"_links": {"implements": {"href": "/mdr/cdash/1-2/classes/Identifiers/fields/SUBJID", "title": "Subject Identifier for the Study", "type": "Class Variable"}, "parentDomain": {"href": "/mdr/cdashig/2-2/domains/MH", "title": "Medical History", "type": "CDASH Domain"}, "parentProduct": {"href": "/mdr/cdashig/2-2", "title": "Clinical Data Acquisition Standards Harmonization Implementation Guide for Human Clinical Trials Version 2.2", "type": "Implementation Guide"}, "priorVersion": {"href": "/mdr/cdashig/2-1/domains/MH/fields/SUBJID", "title": "Subject Identifier for the Study", "type": "Data Collection Field"}, "rootItem": {"href": "/mdr/root/cdashig/domains/MH/fields/SUBJID", "title": "Subject Identifier for the Study", "type": "Root Data Element"}, "sdtmigDatasetMappingTargets": [{"href": "/mdr/sdtmig/3-3/datasets/DM/variables/SUBJID", "title": "Subject Identifier for the Study", "type": "SDTM Dataset Variable"}], "self": {"href": "/mdr/cdashig/2-2/domains/MH/fields/SUBJID", "title": "Subject Identifier for the Study", "type": "Data Collection Field"}}, "completionInstructions": "Record the identifier for the subject.", "core": "HR", "definition": "A unique subject identifier within a site and a study.", "implementationNotes": "Paper: This is typically recorded in the header of each CRF page. EDC: The subject identifiers may be system-generated. This CDASH variable is typically collected in all CDASH domains. However, this CDASH variable is populated only in the SDTMIG DM domain. For more information, refer to the SDTMIG.", "label": "Subject Identifier for the Study", "mappingInstructions": "Maps directly to the SDTMIG variable listed in the SDTMIG Target column.", "name": "SUBJID", "ordinal": "3", "prompt": "[Subject/Participant] (Identifier)", "questionText": "What [is/was] the (study) [subject/participant] identifier?", "simpleDatatype": "Char"}, {"_links": {"codelist": [{"href": "/mdr/root/ct/sdtmct/codelists/C66742", "title": "Version-agnostic anchor resource for codelist C66742", "type": "Root Value Domain"}], "implements": {"href": "/mdr/cdash/1-2/classes/Events/fields/--YN", "title": "Any [Event]", "type": "Class Variable"}, "parentDomain": {"href": "/mdr/cdashig/2-2/domains/MH", "title": "Medical History", "type": "CDASH Domain"}, "parentProduct": {"href": "/mdr/cdashig/2-2", "title": "Clinical Data Acquisition Standards Harmonization Implementation Guide for Human Clinical Trials Version 2.2", "type": "Implementation Guide"}, "priorVersion": {"href": "/mdr/cdashig/2-1/domains/MH/fields/MHYN", "title": "Any Medical History Event", "type": "Data Collection Field"}, "rootItem": {"href": "/mdr/root/cdashig/domains/MH/fields/MHYN", "title": "Any Medical History Event", "type": "Root Data Element"}, "self": {"href": "/mdr/cdashig/2-2/domains/MH/fields/MHYN", "title": "Any Medical History Event", "type": "Data Collection Field"}}, "completionInstructions": "Indicate if the subject experienced any medical conditions or events. If Yes, include the appropriate details where indicated on the CRF.", "core": "O", "definition": "An indication of whether there was any medical history to report.", "implementationNotes": "The intent/purpose of collecting this field is to help with data cleaning and monitoring. It provides verification that all other fields on the CRF were deliberately left blank.", "label": "Any Medical History Event", "mappingInstructions": "Does not map to an SDTMIG variable. The SDTM annotated CRF indicates that this field is NOT SUBMITTED.", "name": "MHYN", "ordinal": "4", "prompt": "Any Medical History", "questionText": "Were any medical conditions or events reported?; Has the subject had any medical conditions or events?", "simpleDatatype": "Char"}, {"_links": {"implements": {"href": "/mdr/cdash/1-2/classes/Events/fields/--CAT", "title": "Category", "type": "Class Variable"}, "parentDomain": {"href": "/mdr/cdashig/2-2/domains/MH", "title": "Medical History", "type": "CDASH Domain"}, "parentProduct": {"href": "/mdr/cdashig/2-2", "title": "Clinical Data Acquisition Standards Harmonization Implementation Guide for Human Clinical Trials Version 2.2", "type": "Implementation Guide"}, "priorVersion": {"href": "/mdr/cdashig/2-1/domains/MH/fields/MHCAT", "title": "Category for Medical History", "type": "Data Collection Field"}, "rootItem": {"href": "/mdr/root/cdashig/domains/MH/fields/MHCAT", "title": "Category for Medical History", "type": "Root Data Element"}, "sdtmigDatasetMappingTargets": [{"href": "/mdr/sdtmig/3-3/datasets/MH/variables/MHCAT", "title": "Category for Medical History", "type": "SDTM Dataset Variable"}], "self": {"href": "/mdr/cdashig/2-2/domains/MH/fields/MHCAT", "title": "Category for Medical History", "type": "Data Collection Field"}}, "completionInstructions": "If collected on the CRF, the sponsor provides instructions to ensure the data is entered as intended.", "core": "R/C", "definition": "A grouping of topic-variable values based on user-defined characteristics.", "implementationNotes": "Sponsor-defined controlled terminology (e.g., CARDIAC, GENERAL). This would most commonly be either a heading or a pre-printed category value on the CRF, not a question to which the site would provide an answer. If a question is asked, the response would typically be a sponsor-defined codelist. If the form is laid out as a grid, then words such as \"Category\" can be included as the column header. This would be used when specific medical history (e.g., disease under study details) is captured, in addition to the general medical history.", "label": "Category for Medical History", "mappingInstructions": "Maps directly to the SDTMIG variable listed in the SDTMIG Target column.", "name": "MHCAT", "ordinal": "5", "prompt": "[Medical History Category]; NULL", "questionText": "What was the category of the medical history?", "simpleDatatype": "Char"}, {"_links": {"implements": {"href": "/mdr/cdash/1-2/classes/Events/fields/--SCAT", "title": "Subcategory", "type": "Class Variable"}, "parentDomain": {"href": "/mdr/cdashig/2-2/domains/MH", "title": "Medical History", "type": "CDASH Domain"}, "parentProduct": {"href": "/mdr/cdashig/2-2", "title": "Clinical Data Acquisition Standards Harmonization Implementation Guide for Human Clinical Trials Version 2.2", "type": "Implementation Guide"}, "priorVersion": {"href": "/mdr/cdashig/2-1/domains/MH/fields/MHSCAT", "title": "Subcategory for Medical History", "type": "Data Collection Field"}, "rootItem": {"href": "/mdr/root/cdashig/domains/MH/fields/MHSCAT", "title": "Subcategory for Medical History", "type": "Root Data Element"}, "sdtmigDatasetMappingTargets": [{"href": "/mdr/sdtmig/3-3/datasets/MH/variables/MHSCAT", "title": "Subcategory for Medical History", "type": "SDTM Dataset Variable"}], "self": {"href": "/mdr/cdashig/2-2/domains/MH/fields/MHSCAT", "title": "Subcategory for Medical History", "type": "Data Collection Field"}}, "completionInstructions": "If collected on the CRF, the sponsor provides instructions to ensure the data is entered as intended.", "core": "O", "definition": "A sub-division of the MHCAT values based on user-defined characteristics.", "implementationNotes": "Sponsor-defined controlled terminology. This would most commonly be pre-printed on the CRF or screen and pre-populated in the data management system. This is not typically a question to which the site would provide an answer. Typically would be used when specific medical history (e.g., disease diagnosis) is captured, in addition to the general medical history. MHSCAT can only be used if there is an MHCAT, and it must be a subcategorization of MHCAT.", "label": "Subcategory for Medical History", "mappingInstructions": "Maps directly to the SDTMIG variable listed in the SDTMIG Target column.", "name": "MHSCAT", "ordinal": "6", "prompt": "[Medical History Subcategory]; NULL", "questionText": "What was the subcategory of the medical history?", "simpleDatatype": "Char"}, {"_links": {"implements": {"href": "/mdr/cdash/1-2/classes/Timing/fields/--DAT", "title": "Collection Date", "type": "Class Variable"}, "parentDomain": {"href": "/mdr/cdashig/2-2/domains/MH", "title": "Medical History", "type": "CDASH Domain"}, "parentProduct": {"href": "/mdr/cdashig/2-2", "title": "Clinical Data Acquisition Standards Harmonization Implementation Guide for Human Clinical Trials Version 2.2", "type": "Implementation Guide"}, "priorVersion": {"href": "/mdr/cdashig/2-1/domains/MH/fields/MHDAT", "title": "Medical History Collection Date", "type": "Data Collection Field"}, "rootItem": {"href": "/mdr/root/cdashig/domains/MH/fields/MHDAT", "title": "Medical History Collection Date", "type": "Root Data Element"}, "sdtmigDatasetMappingTargets": [{"href": "/mdr/sdtmig/3-3/datasets/MH/variables/MHDTC", "title": "Date/Time of History Collection", "type": "SDTM Dataset Variable"}], "self": {"href": "/mdr/cdashig/2-2/domains/MH/fields/MHDAT", "title": "Medical History Collection Date", "type": "Data Collection Field"}}, "completionInstructions": "Record the date on which the medical history was collected using this format (DD-MON-YYYY).", "core": "O", "definition": "The date on which the medical history was collected, represented in an unambiguous date format (e.g., DD-MON-YYYY).", "implementationNotes": "This should be a complete date. The date of collection may be determined from a collected visit date.", "label": "Medical History Collection Date", "mappingInstructions": "This does not map directly to an SDTMIG variable. For the SDTM submission dataset, concatenate all collected CDASH DATE and TIME components and populate the SDTMIG variable MHDTC in ISO 8601 format.", "name": "MHDAT", "ordinal": "7", "prompt": "Collection Date", "questionText": "What was the date the medical history was collected?", "simpleDatatype": "Char"}, {"_links": {"implements": {"href": "/mdr/cdash/1-2/classes/Identifiers/fields/--SPID", "title": "Sponsor-Defined Identifier", "type": "Class Variable"}, "parentDomain": {"href": "/mdr/cdashig/2-2/domains/MH", "title": "Medical History", "type": "CDASH Domain"}, "parentProduct": {"href": "/mdr/cdashig/2-2", "title": "Clinical Data Acquisition Standards Harmonization Implementation Guide for Human Clinical Trials Version 2.2", "type": "Implementation Guide"}, "priorVersion": {"href": "/mdr/cdashig/2-1/domains/MH/fields/MHSPID", "title": "MH Sponsor-Defined Identifier", "type": "Data Collection Field"}, "rootItem": {"href": "/mdr/root/cdashig/domains/MH/fields/MHSPID", "title": "MH Sponsor-Defined Identifier", "type": "Root Data Element"}, "sdtmigDatasetMappingTargets": [{"href": "/mdr/sdtmig/3-3/datasets/MH/variables/MHSPID", "title": "Sponsor-Defined Identifier", "type": "SDTM Dataset Variable"}], "self": {"href": "/mdr/cdashig/2-2/domains/MH/fields/MHSPID", "title": "MH Sponsor-Defined Identifier", "type": "Data Collection Field"}}, "completionInstructions": "If collected on the CRF, sponsor may insert instructions to ensure each record has a unique identifier.", "core": "O", "definition": "A sponsor-defined identifier. In CDASH, this is typically used for pre-printed or auto-generated numbers on the CRF, or any other type of identifier that does not already have a defined CDASH identifier field.", "implementationNotes": "Because SPID is a sponsor-defined identifier, conformance to Question Text or Item Prompt is not applicable. Typically used as an identifier in a data query to communicate clearly to the site the specific record in question or to reconcile concomitant medications and/or procedure records with MH. May be used to record pre-printed number (e.g. line number, record number) on the CRF. This field may be populated by the sponsor's data collection system. If CMMHNO or PRMHNO is used, this is the identifier to which CMMHNO or PRMHNO refers.", "label": "MH Sponsor-Defined Identifier", "mappingInstructions": "Maps directly to the SDTMIG variable listed in the SDTMIG Target column. May be used to create RELREC to link this record with a record in another domain.", "name": "MHSPID", "ordinal": "8", "prompt": "[Sponsor defined]", "questionText": "[Sponsor-defined question]", "simpleDatatype": "Char"}, {"_links": {"codelist": [{"href": "/mdr/root/ct/sdtmct/codelists/C124301", "title": "Version-agnostic anchor resource for codelist C124301", "type": "Root Value Domain"}], "parentDomain": {"href": "/mdr/cdashig/2-2/domains/MH", "title": "Medical History", "type": "CDASH Domain"}, "parentProduct": {"href": "/mdr/cdashig/2-2", "title": "Clinical Data Acquisition Standards Harmonization Implementation Guide for Human Clinical Trials Version 2.2", "type": "Implementation Guide"}, "priorVersion": {"href": "/mdr/cdashig/2-1/domains/MH/fields/MHEVDTYP", "title": "Medical History Event Date Type", "type": "Data Collection Field"}, "rootItem": {"href": "/mdr/root/cdashig/domains/MH/fields/MHEVDTYP", "title": "Medical History Event Date Type", "type": "Root Data Element"}, "sdtmigDatasetMappingTargets": [{"href": "/mdr/sdtmig/3-3/datasets/MH/variables/MHEVDTYP", "title": "Medical History Event Date Type", "type": "SDTM Dataset Variable"}], "self": {"href": "/mdr/cdashig/2-2/domains/MH/fields/MHEVDTYP", "title": "Medical History Event Date Type", "type": "Data Collection Field"}}, "completionInstructions": "The instructions depend upon the format of the CRF. Sponsors may print these values on the CRF or use them as defaulted or hidden text.", "core": "O", "definition": "Specifies the aspect of the medical condition or event by which MHSTDTC and/or MHENDTC is defined.", "implementationNotes": "The type of start/ and or end date (e.g.,, DIAGNOSIS, SYMPTOMS, RELAPSE, INFECTION). It is not related to the trial's condition. This date type cannot be a PRIMARY DIAGNOSIS, SECONDARY DIAGNOSIS because these terms do not define the date type.", "label": "Medical History Event Date Type", "mappingInstructions": "Maps directly to the SDTMIG variable listed in the SDTMIG Target column.", "name": "MHEVDTYP", "ordinal": "9", "prompt": "Medical History Event Date Type", "questionText": "What was the medical history event date type?", "simpleDatatype": "Char"}, {"_links": {"implements": {"href": "/mdr/cdash/1-2/classes/Events/fields/--TERM", "title": "Reported Term", "type": "Class Variable"}, "parentDomain": {"href": "/mdr/cdashig/2-2/domains/MH", "title": "Medical History", "type": "CDASH Domain"}, "parentProduct": {"href": "/mdr/cdashig/2-2", "title": "Clinical Data Acquisition Standards Harmonization Implementation Guide for Human Clinical Trials Version 2.2", "type": "Implementation Guide"}, "priorVersion": {"href": "/mdr/cdashig/2-1/domains/MH/fields/MHTERM", "title": "Reported Term for the Medical History", "type": "Data Collection Field"}, "rootItem": {"href": "/mdr/root/cdashig/domains/MH/fields/MHTERM", "title": "Reported Term for the Medical History", "type": "Root Data Element"}, "sdtmigDatasetMappingTargets": [{"href": "/mdr/sdtmig/3-3/datasets/MH/variables/MHTERM", "title": "Reported Term for the Medical History", "type": "SDTM Dataset Variable"}], "self": {"href": "/mdr/cdashig/2-2/domains/MH/fields/MHTERM", "title": "Reported Term for the Medical History", "type": "Data Collection Field"}}, "completionInstructions": "Record all relevant medical conditions or events, as defined in the protocol. Record only 1 medical condition or event per line. Ensure that the medical conditions or events listed on the Medical History page do not meet any of the exclusion criteria.", "core": "HR", "definition": "The reported or pre-specified name of the medical condition or event.", "implementationNotes": "Sponsors should collect all relevant medical conditions or events, as defined in the protocol. It is a best practice for sponsors to collect all relevant history of surgeries or procedures using the associated diagnosis in the MH domain, while reporting relevant surgeries and procedures in the SDTM PR domain. Sponsors should provide instructions on how surgeries and procedures will be handled based on the protocol requirements. Information on specified surgeries or procedures should be collected in the PR domain.", "label": "Reported Term for the Medical History", "mappingInstructions": "Maps directly to the SDTMIG variable listed in the SDTMIG Target column.", "name": "MHTERM", "ordinal": "10", "prompt": "Medical History Term", "questionText": "What is the medical condition or event term?", "simpleDatatype": "Char"}, {"_links": {"codelist": [{"href": "/mdr/root/ct/sdtmct/codelists/C66742", "title": "Version-agnostic anchor resource for codelist C66742", "type": "Root Value Domain"}], "implements": {"href": "/mdr/cdash/1-2/classes/Events/fields/--OCCUR", "title": "Occurrence", "type": "Class Variable"}, "parentDomain": {"href": "/mdr/cdashig/2-2/domains/MH", "title": "Medical History", "type": "CDASH Domain"}, "parentProduct": {"href": "/mdr/cdashig/2-2", "title": "Clinical Data Acquisition Standards Harmonization Implementation Guide for Human Clinical Trials Version 2.2", "type": "Implementation Guide"}, "priorVersion": {"href": "/mdr/cdashig/2-1/domains/MH/fields/MHOCCUR", "title": "Medical History Occurrence", "type": "Data Collection Field"}, "rootItem": {"href": "/mdr/root/cdashig/domains/MH/fields/MHOCCUR", "title": "Medical History Occurrence", "type": "Root Data Element"}, "sdtmigDatasetMappingTargets": [{"href": "/mdr/sdtmig/3-3/datasets/MH/variables/MHOCCUR", "title": "Medical History Occurrence", "type": "SDTM Dataset Variable"}], "self": {"href": "/mdr/cdashig/2-2/domains/MH/fields/MHOCCUR", "title": "Medical History Occurrence", "type": "Data Collection Field"}}, "completionInstructions": "Indicate if [specific medical condition/event] has occurred/is occurring by checking Yes or No.", "core": "O", "definition": "An indication of whether a pre-specified medical condition/event or a group of medical conditions/events occurred when information about the occurrence of a specific event is solicited.", "implementationNotes": "MHOCCUR is used to report the occurrence of specified medical conditions or events. MHOCCUR is not used if the medical conditions or events are collected on the CRF in a manner that requires spontaneously free-text response. The site should be able to indicate that the question was not asked or answered.", "label": "Medical History Occurrence", "mappingInstructions": "Maps directly to the SDTMIG variable listed in the SDTMIG Target column.", "name": "MHOCCUR", "ordinal": "11", "prompt": "[Medical condition/Event]", "questionText": "Did the subject have [prespecified medical condition/event/group of medical conditions]; Is the [prespecified medical occurring]?", "simpleDatatype": "Char"}, {"_links": {"codelist": [{"href": "/mdr/root/ct/sdtmct/codelists/C66742", "title": "Version-agnostic anchor resource for codelist C66742", "type": "Root Value Domain"}], "implements": {"href": "/mdr/cdash/1-2/classes/Events/fields/--PRESP", "title": "Pre-Specified", "type": "Class Variable"}, "parentDomain": {"href": "/mdr/cdashig/2-2/domains/MH", "title": "Medical History", "type": "CDASH Domain"}, "parentProduct": {"href": "/mdr/cdashig/2-2", "title": "Clinical Data Acquisition Standards Harmonization Implementation Guide for Human Clinical Trials Version 2.2", "type": "Implementation Guide"}, "priorVersion": {"href": "/mdr/cdashig/2-1/domains/MH/fields/MHPRESP", "title": "Medical History Event prespecified", "type": "Data Collection Field"}, "rootItem": {"href": "/mdr/root/cdashig/domains/MH/fields/MHPRESP", "title": "Medical History Event Prespecified", "type": "Root Data Element"}, "sdtmigDatasetMappingTargets": [{"href": "/mdr/sdtmig/3-3/datasets/MH/variables/MHPRESP", "title": "Medical History Event Pre-Specified", "type": "SDTM Dataset Variable"}], "self": {"href": "/mdr/cdashig/2-2/domains/MH/fields/MHPRESP", "title": "Medical History Event Prespecified", "type": "Data Collection Field"}}, "core": "O", "definition": "An indication that a specific event, or group of events, are pre-specified on a CRF.", "implementationNotes": "A hidden field on a CRF defaulted to \"Y\", or added during the SDTM-based dataset creation when the medical condition or event is prespecified. Null for spontaneously reported events. If a study collects both pre-specified medical history and free-text events, the value of MHPRESP should be \"Y\" for all pre-specified events and null for medical conditions or events reported as free text. MHPRESP is a permissible field in SDTM and may be omitted from the SDTM-based dataset if all events were collected as free text.", "label": "Medical History Event Prespecified", "mappingInstructions": "Maps directly to the SDTMIG variable listed in the SDTMIG Target column.", "name": "MHPRESP", "ordinal": "12", "simpleDatatype": "Char"}, {"_links": {"codelist": [{"href": "/mdr/root/ct/sdtmct/codelists/C66742", "title": "Version-agnostic anchor resource for codelist C66742", "type": "Root Value Domain"}], "implements": {"href": "/mdr/cdash/1-2/classes/Timing/fields/--PRIOR", "title": "Prior", "type": "Class Variable"}, "parentDomain": {"href": "/mdr/cdashig/2-2/domains/MH", "title": "Medical History", "type": "CDASH Domain"}, "parentProduct": {"href": "/mdr/cdashig/2-2", "title": "Clinical Data Acquisition Standards Harmonization Implementation Guide for Human Clinical Trials Version 2.2", "type": "Implementation Guide"}, "priorVersion": {"href": "/mdr/cdashig/2-1/domains/MH/fields/MHPRIOR", "title": "Prior Medical History Event", "type": "Data Collection Field"}, "rootItem": {"href": "/mdr/root/cdashig/domains/MH/fields/MHPRIOR", "title": "Prior Medical History Event", "type": "Root Data Element"}, "self": {"href": "/mdr/cdashig/2-2/domains/MH/fields/MHPRIOR", "title": "Prior Medical History Event", "type": "Data Collection Field"}}, "completionInstructions": "Check if the medical condition or event started [before the study].", "core": "O", "definition": "An indication of whether the event occurred prior to study start.", "implementationNotes": "Sponsors may collect this information rather than start dates. See Section 3.7, Mapping Relative Times from Collection to Submissions, and SDTMIG v3.2 Section 4.1.4.7 for more information.", "label": "Prior Medical History Event", "mappingInstructions": "This does not map directly to an SDTM variable. May be used to populate a value into an SDTMIG relative timing variable such as MHSTRF or MHSTRTPT. When populating MHSTRF, or MHSTRTPT, if the value of the CDASH field MHPRIOR is \"Y\" a value from the CDISC CT (STENRF) may be used. When MHPRIOR refers to the Study Reference Period (defined in DM.RFSTDTC to DM.RFENDTC) the SDTMIG variable MHSTRF should be populated. When MHPRIOR is compared to another time point, the SDTMIG variables MHSTRTPT and MHSTTPT should be used. Note: MHSTRTPT must refer to the time-point anchor described in MHSTTPT.", "name": "MHPRIOR", "ordinal": "13", "prompt": "Prior to [MHSTTPT]; Prior to Study", "questionText": "Did the medical condition or event start prior to [MHSTTPT]?; Did the medical condition or event start prior to study start?", "simpleDatatype": "Char"}, {"_links": {"codelist": [{"href": "/mdr/root/ct/sdtmct/codelists/C66742", "title": "Version-agnostic anchor resource for codelist C66742", "type": "Root Value Domain"}], "implements": {"href": "/mdr/cdash/1-2/classes/Events/fields/--ONGO", "title": "Ongoing Event", "type": "Class Variable"}, "parentDomain": {"href": "/mdr/cdashig/2-2/domains/MH", "title": "Medical History", "type": "CDASH Domain"}, "parentProduct": {"href": "/mdr/cdashig/2-2", "title": "Clinical Data Acquisition Standards Harmonization Implementation Guide for Human Clinical Trials Version 2.2", "type": "Implementation Guide"}, "priorVersion": {"href": "/mdr/cdashig/2-1/domains/MH/fields/MHONGO", "title": "Ongoing Medical History Event", "type": "Data Collection Field"}, "rootItem": {"href": "/mdr/root/cdashig/domains/MH/fields/MHONGO", "title": "Ongoing Medical History Event", "type": "Root Data Element"}, "sdtmigDatasetMappingTargets": [{"href": "/mdr/sdtmig/3-3/datasets/MH/variables/MHENRF", "title": "End Relative to Reference Period", "type": "SDTM Dataset Variable"}, {"href": "/mdr/sdtmig/3-3/datasets/MH/variables/MHENRTPT", "title": "End Relative to Reference Time Point", "type": "SDTM Dataset Variable"}], "self": {"href": "/mdr/cdashig/2-2/domains/MH/fields/MHONGO", "title": "Ongoing Medical History Event", "type": "Data Collection Field"}}, "completionInstructions": "Record the medical condition or event as ongoing (\"Y\") if it has not ended at the time of data collection. If the medical condition or event is ongoing, the end date should be left blank.", "core": "O", "definition": "Indication the medical condition or event is ongoing when no end date is provided.", "implementationNotes": "Completed to indicate that the condition has not resolved at the time of data collection. It is expected that every reported condition has either an end date or the Ongoing field is populated, but not both. See Section 3.7, Mapping Relative Times from Collection to Submissions, and SDTMIG v3.2 Section 4.1.4.7 for more information.", "label": "Ongoing Medical History Event", "mappingInstructions": "This does not map directly to an SDTM variable. May be used to populate a value into an SDTMIG relative timing variable such as MHENRF or MHENRTPT. When populating MHENRF, if the value of MHONGO is \"Y\", the value of \"DURING\", \"AFTER\" or \"DURING/AFTER\" may be used. When populating MHENRTPT, if the value of MHONGO is \"Y\", the value of \"ONGOING\" may be used. When MHONGO refers to the Study Reference Period (defined in DM.RFSTDTC to DM.RFENDTC) the SDTMIG variable MHENRF should be populated. When MHONGO is compared to another time point, the SDTMIG variables MHENRTPT and MHENTPT should be used. \\n Note: MHENRTPT must refer to a time-point anchor described in MHENTPT.", "name": "MHONGO", "ordinal": "14", "prompt": "Ongoing (as of the [study-specific timepoint or period])", "questionText": "Is the medical condition or event ongoing (as of the [study-specific timepoint or period])?", "simpleDatatype": "Char"}, {"_links": {"codelist": [{"href": "/mdr/root/ct/sdtmct/codelists/C66742", "title": "Version-agnostic anchor resource for codelist C66742", "type": "Root Value Domain"}], "implements": {"href": "/mdr/cdash/1-2/classes/Events/fields/--CTRL", "title": "Disease or Symptom Under Control", "type": "Class Variable"}, "parentDomain": {"href": "/mdr/cdashig/2-2/domains/MH", "title": "Medical History", "type": "CDASH Domain"}, "parentProduct": {"href": "/mdr/cdashig/2-2", "title": "Clinical Data Acquisition Standards Harmonization Implementation Guide for Human Clinical Trials Version 2.2", "type": "Implementation Guide"}, "priorVersion": {"href": "/mdr/cdashig/2-1/domains/MH/fields/MHCTRL", "title": "MH Disease or Symptom Under Control", "type": "Data Collection Field"}, "rootItem": {"href": "/mdr/root/cdashig/domains/MH/fields/MHCTRL", "title": "MH Disease or Symptom Under Control", "type": "Root Data Element"}, "sdtmigDatasetMappingTargets": [{"href": "/mdr/sdtmig/3-3/datasets/SUPPQUAL/variables/QVAL", "title": "Data Value", "type": "SDTM Dataset Variable"}], "self": {"href": "/mdr/cdashig/2-2/domains/MH/fields/MHCTRL", "title": "MH Disease or Symptom Under Control", "type": "Data Collection Field"}}, "completionInstructions": "Select the most appropriate response.", "core": "O", "definition": "Indication of whether the medical condition or event is under control at the time of data collection.", "implementationNotes": "MHCTRL is not defined in the SDTMIG MH domain. If collected, it should be submitted in the SUPPMH dataset. If MHCTRL is collected, the sponsor must provide information on the relative timeframe. Generally, MHDAT is collected or determined using the visit date of the collection to indicate this is the subject's status at the time of data collection.", "label": "MH Disease or Symptom Under Control", "mappingInstructions": "This does not map directly to an SDTMIG variable. This information could be submitted in a SUPPMH dataset as the value of SUPPMH.QVAL where SUPPMH.QNAM =\"MHCTRL\" and SUPPMH.LABEL=\"Medical Condition Under Control\". Refer to the current SDTM and SDTMIG for instructions on placement of non-standard variables in SDTM domains.", "name": "MHCTRL", "ordinal": "15", "prompt": "Medical Condition Under Control", "questionText": "Is the medical condition or event under control?", "simpleDatatype": "Char"}, {"_links": {"implements": {"href": "/mdr/cdash/1-2/classes/Timing/fields/--STDAT", "title": "Observation Start Date", "type": "Class Variable"}, "parentDomain": {"href": "/mdr/cdashig/2-2/domains/MH", "title": "Medical History", "type": "CDASH Domain"}, "parentProduct": {"href": "/mdr/cdashig/2-2", "title": "Clinical Data Acquisition Standards Harmonization Implementation Guide for Human Clinical Trials Version 2.2", "type": "Implementation Guide"}, "priorVersion": {"href": "/mdr/cdashig/2-1/domains/MH/fields/MHSTDAT", "title": "Medical History Event Start Date", "type": "Data Collection Field"}, "rootItem": {"href": "/mdr/root/cdashig/domains/MH/fields/MHSTDAT", "title": "Medical History Event Start Date", "type": "Root Data Element"}, "sdtmigDatasetMappingTargets": [{"href": "/mdr/sdtmig/3-3/datasets/MH/variables/MHSTDTC", "title": "Start Date/Time of Medical History Event", "type": "SDTM Dataset Variable"}], "self": {"href": "/mdr/cdashig/2-2/domains/MH/fields/MHSTDAT", "title": "Medical History Event Start Date", "type": "Data Collection Field"}}, "completionInstructions": "Record the start date of the medical event or condition using this format (DD-MON-YYYY).", "core": "O", "definition": "The start date of medical history event or condition, represented in an unambiguous date format (e.g., DD-MON-YYYY).", "implementationNotes": "The sponsor may choose to capture a complete date or any variation thereof (e.g., month and year, year).", "label": "Medical History Event Start Date", "mappingInstructions": "This does not map directly to an SDTMIG variable. For the SDTM submission dataset, concatenate all collected CDASH START DATE and TIME components and populate the SDTMIG variable MHSTDTC in ISO 8601 format.", "name": "MHSTDAT", "ordinal": "16", "prompt": "Start Date", "questionText": "What [is/was] the [medical event or condition/category of the event] start date?", "simpleDatatype": "Char"}, {"_links": {"implements": {"href": "/mdr/cdash/1-2/classes/Timing/fields/--ENDAT", "title": "Observation End Date", "type": "Class Variable"}, "parentDomain": {"href": "/mdr/cdashig/2-2/domains/MH", "title": "Medical History", "type": "CDASH Domain"}, "parentProduct": {"href": "/mdr/cdashig/2-2", "title": "Clinical Data Acquisition Standards Harmonization Implementation Guide for Human Clinical Trials Version 2.2", "type": "Implementation Guide"}, "priorVersion": {"href": "/mdr/cdashig/2-1/domains/MH/fields/MHENDAT", "title": "Medical History Event End Date", "type": "Data Collection Field"}, "rootItem": {"href": "/mdr/root/cdashig/domains/MH/fields/MHENDAT", "title": "Medical History Event End Date", "type": "Root Data Element"}, "sdtmigDatasetMappingTargets": [{"href": "/mdr/sdtmig/3-3/datasets/MH/variables/MHENDTC", "title": "End Date/Time of Medical History Event", "type": "SDTM Dataset Variable"}], "self": {"href": "/mdr/cdashig/2-2/domains/MH/fields/MHENDAT", "title": "Medical History Event End Date", "type": "Data Collection Field"}}, "completionInstructions": "Record the end date of the medical event or condition using this format (DD-MON-YYYY).", "core": "O", "definition": "The end date of medical history event or condition, represented in an unambiguous date format (e.g., DD-MON-YYYY).", "implementationNotes": "The sponsor may choose to capture a complete date or any variation thereof (e.g., month and year, year).", "label": "Medical History Event End Date", "mappingInstructions": "This does not map directly to an SDTMIG variable. For the SDTM submission dataset, concatenate all collected CDASH END DATE and TIME components and populate the SDTMIG variable MHENDTC in ISO 8601 format.", "name": "MHENDAT", "ordinal": "17", "prompt": "End Date", "questionText": "What[is/was] the[medical event or condition/category of the event] end date?", "simpleDatatype": "Char"}, {"_links": {"codelist": [{"href": "/mdr/root/ct/sdtmct/codelists/C74456", "title": "Version-agnostic anchor resource for codelist C74456", "type": "Root Value Domain"}], "implements": {"href": "/mdr/cdash/1-2/classes/Events/fields/--LOC", "title": "Location of Event", "type": "Class Variable"}, "parentDomain": {"href": "/mdr/cdashig/2-2/domains/MH", "title": "Medical History", "type": "CDASH Domain"}, "parentProduct": {"href": "/mdr/cdashig/2-2", "title": "Clinical Data Acquisition Standards Harmonization Implementation Guide for Human Clinical Trials Version 2.2", "type": "Implementation Guide"}, "priorVersion": {"href": "/mdr/cdashig/2-1/domains/MH/fields/MHLOC", "title": "Medical History Event Location", "type": "Data Collection Field"}, "rootItem": {"href": "/mdr/root/cdashig/domains/MH/fields/MHLOC", "title": "Medical History Event Location", "type": "Root Data Element"}, "self": {"href": "/mdr/cdashig/2-2/domains/MH/fields/MHLOC", "title": "Medical History Event Location", "type": "Data Collection Field"}}, "completionInstructions": "Indicate the anatomical location of the medical event or condition.", "core": "O", "definition": "A description of the anatomical location relevant for the medical condition or event.", "implementationNotes": "Collected or pre-printed when the sponsor needs to identify the specific anatomical location (e.g., ARM for skin rash). Could be a defaulted or hidden field on the CRF for prespecified [MHTERM/Event Topic]. Sponsors may collect the data using a subset list of controlled terminology on the CRF. LAT, DIR, PORTOT are used to further describe the anatomical location.", "label": "Medical History Event Location", "mappingInstructions": "Maps directly to the SDTMIG variable listed in the SDTMIG Target column.", "name": "MHLOC", "ordinal": "18", "prompt": "Anatomical Location", "questionText": "What was the anatomical location of the medical condition or event?", "simpleDatatype": "Char"}, {"_links": {"codelist": [{"href": "/mdr/root/ct/sdtmct/codelists/C99073", "title": "Version-agnostic anchor resource for codelist C99073", "type": "Root Value Domain"}], "implements": {"href": "/mdr/cdash/1-2/classes/Events/fields/--LAT", "title": "Laterality", "type": "Class Variable"}, "parentDomain": {"href": "/mdr/cdashig/2-2/domains/MH", "title": "Medical History", "type": "CDASH Domain"}, "parentProduct": {"href": "/mdr/cdashig/2-2", "title": "Clinical Data Acquisition Standards Harmonization Implementation Guide for Human Clinical Trials Version 2.2", "type": "Implementation Guide"}, "priorVersion": {"href": "/mdr/cdashig/2-1/domains/MH/fields/MHLAT", "title": "Medical History Event Laterality", "type": "Data Collection Field"}, "rootItem": {"href": "/mdr/root/cdashig/domains/MH/fields/MHLAT", "title": "Medical History Event Laterality", "type": "Root Data Element"}, "self": {"href": "/mdr/cdashig/2-2/domains/MH/fields/MHLAT", "title": "Medical History Event Laterality", "type": "Data Collection Field"}}, "completionInstructions": "Record the side of the anatomical location of the medical event.", "core": "O", "definition": "Qualifier for anatomical location, further detailing the side of the body relevant for the event.", "implementationNotes": "May be pre-printed or collected when the sponsor needs to identify the specific side of the anatomical location. Sponsors may collect the data using a subset list of controlled terminology on the CRF.", "label": "Medical History Event Laterality", "mappingInstructions": "Maps directly to the SDTMIG variable listed in the SDTMIG Target column.", "name": "MHLAT", "ordinal": "19", "prompt": "Side", "questionText": "What was the side of the anatomical location of the medical condition or event?", "simpleDatatype": "Char"}, {"_links": {"codelist": [{"href": "/mdr/root/ct/sdtmct/codelists/C99074", "title": "Version-agnostic anchor resource for codelist C99074", "type": "Root Value Domain"}], "implements": {"href": "/mdr/cdash/1-2/classes/Events/fields/--DIR", "title": "Directionality", "type": "Class Variable"}, "parentDomain": {"href": "/mdr/cdashig/2-2/domains/MH", "title": "Medical History", "type": "CDASH Domain"}, "parentProduct": {"href": "/mdr/cdashig/2-2", "title": "Clinical Data Acquisition Standards Harmonization Implementation Guide for Human Clinical Trials Version 2.2", "type": "Implementation Guide"}, "priorVersion": {"href": "/mdr/cdashig/2-1/domains/MH/fields/MHDIR", "title": "Medical History Directionality", "type": "Data Collection Field"}, "rootItem": {"href": "/mdr/root/cdashig/domains/MH/fields/MHDIR", "title": "Medical History Directionality", "type": "Root Data Element"}, "self": {"href": "/mdr/cdashig/2-2/domains/MH/fields/MHDIR", "title": "Medical History Directionality", "type": "Data Collection Field"}}, "completionInstructions": "Record the directionality of the anatomical location of the medical event.", "core": "O", "definition": "Qualifier further detailing the position of the anatomical location, relative to the center of the body, organ, or specimen.", "implementationNotes": "May be pre-printed or collected when the sponsor needs to identify the directionality of the anatomical location. Sponsors may collect the data using a subset list of controlled terminology on the CRF.", "label": "Medical History Directionality", "mappingInstructions": "Maps directly to the SDTMIG variable listed in the SDTMIG Target column.", "name": "MHDIR", "ordinal": "20", "prompt": "Directionality", "questionText": "What was the directionality of the anatomical location of the medical condition or event?", "simpleDatatype": "Char"}, {"_links": {"codelist": [{"href": "/mdr/root/ct/sdtmct/codelists/C99075", "title": "Version-agnostic anchor resource for codelist C99075", "type": "Root Value Domain"}], "implements": {"href": "/mdr/cdash/1-2/classes/Events/fields/--PORTOT", "title": "Portion or Totality", "type": "Class Variable"}, "parentDomain": {"href": "/mdr/cdashig/2-2/domains/MH", "title": "Medical History", "type": "CDASH Domain"}, "parentProduct": {"href": "/mdr/cdashig/2-2", "title": "Clinical Data Acquisition Standards Harmonization Implementation Guide for Human Clinical Trials Version 2.2", "type": "Implementation Guide"}, "priorVersion": {"href": "/mdr/cdashig/2-1/domains/MH/fields/MHPORTOT", "title": "MH Event Location Portion or Totality", "type": "Data Collection Field"}, "rootItem": {"href": "/mdr/root/cdashig/domains/MH/fields/MHPORTOT", "title": "MH Event Location Portion or Totality", "type": "Root Data Element"}, "self": {"href": "/mdr/cdashig/2-2/domains/MH/fields/MHPORTOT", "title": "MH Event Location Portion or Totality", "type": "Data Collection Field"}}, "completionInstructions": "Indicate the portion or totality anatomical location of the medical event.", "core": "O", "definition": "Qualifier for anatomical location, further detailing the distribution (i.e., arrangement of, apportioning of).", "implementationNotes": "Collected when the sponsor needs to identify the specific portionality for the anatomical locations. Sponsors may collect the data using a subset list of controlled terminology on the CRF.", "label": "MH Event Location Portion or Totality", "mappingInstructions": "Maps directly to the SDTMIG variable listed in the SDTMIG Target column.", "name": "MHPORTOT", "ordinal": "21", "prompt": "Portion or Totality", "questionText": "What was the portion or totality of the anatomical location of the of the medical condition or event?", "simpleDatatype": "Char"}, {"_links": {"implements": {"href": "/mdr/cdash/1-2/classes/Events/fields/--MODIFY", "title": "Modified Reported Term", "type": "Class Variable"}, "parentDomain": {"href": "/mdr/cdashig/2-2/domains/MH", "title": "Medical History", "type": "CDASH Domain"}, "parentProduct": {"href": "/mdr/cdashig/2-2", "title": "Clinical Data Acquisition Standards Harmonization Implementation Guide for Human Clinical Trials Version 2.2", "type": "Implementation Guide"}, "priorVersion": {"href": "/mdr/cdashig/2-1/domains/MH/fields/MHMODIFY", "title": "MH Modified Reported Term", "type": "Data Collection Field"}, "rootItem": {"href": "/mdr/root/cdashig/domains/MH/fields/MHMODIFY", "title": "MH Modified Reported Term", "type": "Root Data Element"}, "sdtmigDatasetMappingTargets": [{"href": "/mdr/sdtmig/3-3/datasets/MH/variables/MHMODIFY", "title": "Modified Reported Term", "type": "SDTM Dataset Variable"}], "self": {"href": "/mdr/cdashig/2-2/domains/MH/fields/MHMODIFY", "title": "MH Modified Reported Term", "type": "Data Collection Field"}}, "core": "O", "definition": "If the value for MHTERM is modified to facilitate coding, then MHMODIFY will contain the modified text.", "implementationNotes": "This is not a data collection field that would appear on the CRF. Sponsors will populate this through the coding process.", "label": "MH Modified Reported Term", "mappingInstructions": "Maps directly to the SDTMIG variable listed in the SDTMIG Target column.", "name": "MHMODIFY", "ordinal": "22", "simpleDatatype": "Char"}, {"_links": {"implements": {"href": "/mdr/cdash/1-2/classes/Events/fields/--DECOD", "title": "Dictionary-Derived Term", "type": "Class Variable"}, "parentDomain": {"href": "/mdr/cdashig/2-2/domains/MH", "title": "Medical History", "type": "CDASH Domain"}, "parentProduct": {"href": "/mdr/cdashig/2-2", "title": "Clinical Data Acquisition Standards Harmonization Implementation Guide for Human Clinical Trials Version 2.2", "type": "Implementation Guide"}, "priorVersion": {"href": "/mdr/cdashig/2-1/domains/MH/fields/MHDECOD", "title": "MH Dictionary-Derived Term", "type": "Data Collection Field"}, "rootItem": {"href": "/mdr/root/cdashig/domains/MH/fields/MHDECOD", "title": "MH Dictionary-Derived Term", "type": "Root Data Element"}, "sdtmigDatasetMappingTargets": [{"href": "/mdr/sdtmig/3-3/datasets/MH/variables/MHDECOD", "title": "Dictionary-Derived Term", "type": "SDTM Dataset Variable"}], "self": {"href": "/mdr/cdashig/2-2/domains/MH/fields/MHDECOD", "title": "MH Dictionary-Derived Term", "type": "Data Collection Field"}}, "core": "O", "definition": "The dictionary text description of MHTERM or the modified topic variable (MH MODIFY), if applicable.", "implementationNotes": "This is typically not a data collection field that will appear on the CRF. Sponsors will populate this through the coding process. Equivalent to the Preferred Term (PT in MedDRA).", "label": "MH Dictionary-Derived Term", "mappingInstructions": "Maps directly to the SDTMIG variable listed in the SDTMIG Target column. The sponsor is expected to provide the dictionary name and version used to map the terms utilizing the Define-XML external codelist attributes. Sponsors should include an Origin in the define metadata document to indicate that the data was \"ASSIGNED\".", "name": "MHDECOD", "ordinal": "23", "simpleDatatype": "Char"}, {"_links": {"implements": {"href": "/mdr/cdash/1-2/classes/Events/fields/--LLT", "title": "Lowest Level Term", "type": "Class Variable"}, "parentDomain": {"href": "/mdr/cdashig/2-2/domains/MH", "title": "Medical History", "type": "CDASH Domain"}, "parentProduct": {"href": "/mdr/cdashig/2-2", "title": "Clinical Data Acquisition Standards Harmonization Implementation Guide for Human Clinical Trials Version 2.2", "type": "Implementation Guide"}, "priorVersion": {"href": "/mdr/cdashig/2-1/domains/MH/fields/MHLLT", "title": "Medical History Event Lowest Level Term", "type": "Data Collection Field"}, "rootItem": {"href": "/mdr/root/cdashig/domains/MH/fields/MHLLT", "title": "Medical History Event Lowest Level Term", "type": "Root Data Element"}, "self": {"href": "/mdr/cdashig/2-2/domains/MH/fields/MHLLT", "title": "Medical History Event Lowest Level Term", "type": "Data Collection Field"}}, "core": "O", "definition": "The dictionary-derived text description of the lowest level term.", "implementationNotes": "This field does not typically appear on the CRF. Sponsors will populate this through the coding process. This is applicable to items using MedDRA coding.", "label": "Medical History Event Lowest Level Term", "mappingInstructions": "Maps directly to the SDTMIG variable listed in the SDTMIG Target column. The sponsor is expected to provide the dictionary name and version used to code utilizing the Define-XML external codelist attributes. Sponsors should include an Origin in the define metadata document to indicate that the data was \"ASSIGNED\".", "name": "MHLLT", "ordinal": "24", "simpleDatatype": "Char"}, {"_links": {"implements": {"href": "/mdr/cdash/1-2/classes/Events/fields/--LLTCD", "title": "Lowest Level Term Code", "type": "Class Variable"}, "parentDomain": {"href": "/mdr/cdashig/2-2/domains/MH", "title": "Medical History", "type": "CDASH Domain"}, "parentProduct": {"href": "/mdr/cdashig/2-2", "title": "Clinical Data Acquisition Standards Harmonization Implementation Guide for Human Clinical Trials Version 2.2", "type": "Implementation Guide"}, "priorVersion": {"href": "/mdr/cdashig/2-1/domains/MH/fields/MHLLTCD", "title": "MH Event Lowest Level Term Code", "type": "Data Collection Field"}, "rootItem": {"href": "/mdr/root/cdashig/domains/MH/fields/MHLLTCD", "title": "MH Event Lowest Level Term Code", "type": "Root Data Element"}, "self": {"href": "/mdr/cdashig/2-2/domains/MH/fields/MHLLTCD", "title": "MH Event Lowest Level Term Code", "type": "Data Collection Field"}}, "core": "O", "definition": "The dictionary-derived code for the lowest level term.", "implementationNotes": "This field does not typically appear on the CRF. Sponsors will populate this through the coding process. This is applicable to items using MedDRA coding.", "label": "MH Event Lowest Level Term Code", "mappingInstructions": "Maps directly to the SDTMIG variable listed in the SDTMIG Target column. The sponsor is expected to provide the dictionary name and version used to code utilizing the Define-XML external codelist attributes. Sponsors should include an Origin in the define metadata document to indicate that the data was \"ASSIGNED\".", "name": "MHLLTCD", "ordinal": "25", "simpleDatatype": "Num"}, {"_links": {"implements": {"href": "/mdr/cdash/1-2/classes/Events/fields/--PTCD", "title": "Preferred Term Code", "type": "Class Variable"}, "parentDomain": {"href": "/mdr/cdashig/2-2/domains/MH", "title": "Medical History", "type": "CDASH Domain"}, "parentProduct": {"href": "/mdr/cdashig/2-2", "title": "Clinical Data Acquisition Standards Harmonization Implementation Guide for Human Clinical Trials Version 2.2", "type": "Implementation Guide"}, "priorVersion": {"href": "/mdr/cdashig/2-1/domains/MH/fields/MHPTCD", "title": "MH Event Preferred Term Code", "type": "Data Collection Field"}, "rootItem": {"href": "/mdr/root/cdashig/domains/MH/fields/MHPTCD", "title": "MH Event Preferred Term Code", "type": "Root Data Element"}, "self": {"href": "/mdr/cdashig/2-2/domains/MH/fields/MHPTCD", "title": "MH Event Preferred Term Code", "type": "Data Collection Field"}}, "core": "O", "definition": "The dictionary-derived code for the preferred term.", "implementationNotes": "This field does not typically appear on the CRF. Sponsors will populate this through the coding process. This is applicable to items using MedDRA coding.", "label": "MH Event Preferred Term Code", "mappingInstructions": "Maps directly to the SDTMIG variable listed in the SDTMIG Target column. The sponsor is expected to provide the dictionary name and version used to code utilizing the Define-XML external codelist attributes. Sponsors should include an Origin in the define metadata document to indicate that the data was \"ASSIGNED\".", "name": "MHPTCD", "ordinal": "26", "simpleDatatype": "Num"}, {"_links": {"implements": {"href": "/mdr/cdash/1-2/classes/Events/fields/--HLT", "title": "High Level Term", "type": "Class Variable"}, "parentDomain": {"href": "/mdr/cdashig/2-2/domains/MH", "title": "Medical History", "type": "CDASH Domain"}, "parentProduct": {"href": "/mdr/cdashig/2-2", "title": "Clinical Data Acquisition Standards Harmonization Implementation Guide for Human Clinical Trials Version 2.2", "type": "Implementation Guide"}, "priorVersion": {"href": "/mdr/cdashig/2-1/domains/MH/fields/MHHLT", "title": "Medical History Event High Level Term", "type": "Data Collection Field"}, "rootItem": {"href": "/mdr/root/cdashig/domains/MH/fields/MHHLT", "title": "Medical History Event High Level Term", "type": "Root Data Element"}, "self": {"href": "/mdr/cdashig/2-2/domains/MH/fields/MHHLT", "title": "Medical History Event High Level Term", "type": "Data Collection Field"}}, "core": "O", "definition": "The dictionary-derived text description of the high level term for the primary system organ class (SOC).", "implementationNotes": "This field does not typically appear on the CRF. Sponsors will populate this through the coding process. This is applicable to items using MedDRA coding.", "label": "Medical History Event High Level Term", "mappingInstructions": "Maps directly to the SDTMIG variable listed in the SDTMIG Target column. The sponsor is expected to provide the dictionary name and version used to code utilizing the Define-XML external codelist attributes. Sponsors should include an Origin in the define metadata document to indicate that the data was \"ASSIGNED\".", "name": "MHHLT", "ordinal": "27", "simpleDatatype": "Char"}, {"_links": {"implements": {"href": "/mdr/cdash/1-2/classes/Events/fields/--HLTCD", "title": "High Level Term Code", "type": "Class Variable"}, "parentDomain": {"href": "/mdr/cdashig/2-2/domains/MH", "title": "Medical History", "type": "CDASH Domain"}, "parentProduct": {"href": "/mdr/cdashig/2-2", "title": "Clinical Data Acquisition Standards Harmonization Implementation Guide for Human Clinical Trials Version 2.2", "type": "Implementation Guide"}, "priorVersion": {"href": "/mdr/cdashig/2-1/domains/MH/fields/MHHLTCD", "title": "MH Event High Level Term Code", "type": "Data Collection Field"}, "rootItem": {"href": "/mdr/root/cdashig/domains/MH/fields/MHHLTCD", "title": "MH Event High Level Term Code", "type": "Root Data Element"}, "self": {"href": "/mdr/cdashig/2-2/domains/MH/fields/MHHLTCD", "title": "MH Event High Level Term Code", "type": "Data Collection Field"}}, "core": "O", "definition": "The dictionary-derived code for the high level term for the primary system organ class (SOC).", "implementationNotes": "This field does not typically appear on the CRF. Sponsors will populate this through the coding process. This is applicable to items using MedDRA coding.", "label": "MH Event High Level Term Code", "mappingInstructions": "Maps directly to the SDTMIG variable listed in the SDTMIG Target column. The sponsor is expected to provide the dictionary name and version used to code utilizing the Define-XML external codelist attributes. Sponsors should include an Origin in the define metadata document to indicate that the data was \"ASSIGNED\".", "name": "MHHLTCD", "ordinal": "28", "simpleDatatype": "Num"}, {"_links": {"implements": {"href": "/mdr/cdash/1-2/classes/Events/fields/--HLGT", "title": "High Level Group Term", "type": "Class Variable"}, "parentDomain": {"href": "/mdr/cdashig/2-2/domains/MH", "title": "Medical History", "type": "CDASH Domain"}, "parentProduct": {"href": "/mdr/cdashig/2-2", "title": "Clinical Data Acquisition Standards Harmonization Implementation Guide for Human Clinical Trials Version 2.2", "type": "Implementation Guide"}, "priorVersion": {"href": "/mdr/cdashig/2-1/domains/MH/fields/MHHLGT", "title": "MH Event High Level Group Term", "type": "Data Collection Field"}, "rootItem": {"href": "/mdr/root/cdashig/domains/MH/fields/MHHLGT", "title": "MH Event High Level Group Term", "type": "Root Data Element"}, "self": {"href": "/mdr/cdashig/2-2/domains/MH/fields/MHHLGT", "title": "MH Event High Level Group Term", "type": "Data Collection Field"}}, "core": "O", "definition": "The dictionary-derived text description of the high level group term for the primary system organ class (SOC).", "implementationNotes": "This field does not typically appear on the CRF. Sponsors will populate this through the coding process. This is applicable to items using MedDRA coding.", "label": "MH Event High Level Group Term", "mappingInstructions": "Maps directly to the SDTMIG variable listed in the SDTMIG Target column. The sponsor is expected to provide the dictionary name and version used to code utilizing the Define-XML external codelist attributes. Sponsors should include an Origin in the define metadata document to indicate that the data was \"ASSIGNED\".", "name": "MHHLGT", "ordinal": "29", "simpleDatatype": "Char"}, {"_links": {"implements": {"href": "/mdr/cdash/1-2/classes/Events/fields/--HLGTCD", "title": "High Level Group Term Code", "type": "Class Variable"}, "parentDomain": {"href": "/mdr/cdashig/2-2/domains/MH", "title": "Medical History", "type": "CDASH Domain"}, "parentProduct": {"href": "/mdr/cdashig/2-2", "title": "Clinical Data Acquisition Standards Harmonization Implementation Guide for Human Clinical Trials Version 2.2", "type": "Implementation Guide"}, "priorVersion": {"href": "/mdr/cdashig/2-1/domains/MH/fields/MHHLGTCD", "title": "MH Event High Level Group Term Code", "type": "Data Collection Field"}, "rootItem": {"href": "/mdr/root/cdashig/domains/MH/fields/MHHLGTCD", "title": "MH Event High Level Group Term Code", "type": "Root Data Element"}, "self": {"href": "/mdr/cdashig/2-2/domains/MH/fields/MHHLGTCD", "title": "MH Event High Level Group Term Code", "type": "Data Collection Field"}}, "core": "O", "definition": "The dictionary-derived code for the high level group term for the primary system organ class (SOC).", "implementationNotes": "This field does not typically appear on the CRF. Sponsors will populate this through the coding process. This is applicable to items using MedDRA coding.", "label": "MH Event High Level Group Term Code", "mappingInstructions": "Maps directly to the SDTMIG variable listed in the SDTMIG Target column. The sponsor is expected to provide the dictionary name and version used to code utilizing the Define-XML external codelist attributes. Sponsors should include an Origin in the define metadata document to indicate that the data was \"ASSIGNED\".", "name": "MHHLGTCD", "ordinal": "30", "simpleDatatype": "Num"}, {"_links": {"implements": {"href": "/mdr/cdash/1-2/classes/Events/fields/--SOC", "title": "Primary System Organ Class", "type": "Class Variable"}, "parentDomain": {"href": "/mdr/cdashig/2-2/domains/MH", "title": "Medical History", "type": "CDASH Domain"}, "parentProduct": {"href": "/mdr/cdashig/2-2", "title": "Clinical Data Acquisition Standards Harmonization Implementation Guide for Human Clinical Trials Version 2.2", "type": "Implementation Guide"}, "priorVersion": {"href": "/mdr/cdashig/2-1/domains/MH/fields/MHSOC", "title": "MH Event Primary System Organ Class", "type": "Data Collection Field"}, "rootItem": {"href": "/mdr/root/cdashig/domains/MH/fields/MHSOC", "title": "MH Event Primary System Organ Class", "type": "Root Data Element"}, "self": {"href": "/mdr/cdashig/2-2/domains/MH/fields/MHSOC", "title": "MH Event Primary System Organ Class", "type": "Data Collection Field"}}, "core": "O", "definition": "The dictionary-derived text description of the primary system organ class (SOC).", "implementationNotes": "This field does not typically appear on the CRF. Sponsors will populate this through the coding process. This is applicable to items using MedDRA coding. Will be the same as MHBODSYS if the primary SOC was used for analysis.", "label": "MH Event Primary System Organ Class", "mappingInstructions": "Maps directly to the SDTMIG variable listed in the SDTMIG Target column. The sponsor is expected to provide the dictionary name and version used to code utilizing the Define-XML external codelist attributes. Sponsors should include an Origin in the define metadata document to indicate that the data was \"ASSIGNED\".", "name": "MHSOC", "ordinal": "31", "simpleDatatype": "Char"}, {"_links": {"implements": {"href": "/mdr/cdash/1-2/classes/Events/fields/--SOCCD", "title": "Primary System Organ Class Code", "type": "Class Variable"}, "parentDomain": {"href": "/mdr/cdashig/2-2/domains/MH", "title": "Medical History", "type": "CDASH Domain"}, "parentProduct": {"href": "/mdr/cdashig/2-2", "title": "Clinical Data Acquisition Standards Harmonization Implementation Guide for Human Clinical Trials Version 2.2", "type": "Implementation Guide"}, "priorVersion": {"href": "/mdr/cdashig/2-1/domains/MH/fields/MHSOCCD", "title": "MH Event Primary System Organ Class Code", "type": "Data Collection Field"}, "rootItem": {"href": "/mdr/root/cdashig/domains/MH/fields/MHSOCCD", "title": "MH Event Primary System Organ Class Code", "type": "Root Data Element"}, "self": {"href": "/mdr/cdashig/2-2/domains/MH/fields/MHSOCCD", "title": "MH Event Primary System Organ Class Code", "type": "Data Collection Field"}}, "core": "O", "definition": "The dictionary-derived code for the primary system organ class (SOC).", "implementationNotes": "This field does not typically appear on the CRF. Sponsors will populate this through the coding process. This is applicable to items using MedDRA coding. Will be the same as MHBDSYCD if the primary SOC was used for analysis.", "label": "MH Event Primary System Organ Class Code", "mappingInstructions": "Maps directly to the SDTMIG variable listed in the SDTMIG Target column. The sponsor is expected to provide the dictionary name and version used to code utilizing the Define-XML external codelist attributes. Sponsors should include an Origin in the define metadata document to indicate that the data was \"ASSIGNED\".", "name": "MHSOCCD", "ordinal": "32", "simpleDatatype": "Num"}], "label": "Medical History", "name": "MH", "ordinal": "19"}
