{"_links": {"parentClass": {"href": "/mdr/cdashig/2-2/classes/Findings", "title": "Findings", "type": "Class"}, "parentProduct": {"href": "/mdr/cdashig/2-2", "title": "Clinical Data Acquisition Standards Harmonization Implementation Guide for Human Clinical Trials Version 2.2", "type": "Implementation Guide"}, "self": {"href": "/mdr/cdashig/2-2/domains/OE", "title": "Ophthalmic Examinations", "type": "CDASH Domain"}}, "description": "A findings domain that contains tests that measure a person's ocular health and visual status, to detect abnormalities in the components of the visual system, and to determine how well the person can see. (Source: CDISC Controlled Terminology, DOMAIN, C147180, 2021-06-25)", "fields": [{"_links": {"implements": {"href": "/mdr/cdash/1-2/classes/Identifiers/fields/STUDYID", "title": "Study Identifier", "type": "Class Variable"}, "parentDomain": {"href": "/mdr/cdashig/2-2/domains/OE", "title": "Ophthalmic Examinations", "type": "CDASH Domain"}, "parentProduct": {"href": "/mdr/cdashig/2-2", "title": "Clinical Data Acquisition Standards Harmonization Implementation Guide for Human Clinical Trials Version 2.2", "type": "Implementation Guide"}, "rootItem": {"href": "/mdr/root/cdashig/domains/OE/fields/STUDYID", "title": "Study Identifier", "type": "Root Data Element"}, "sdtmigDatasetMappingTargets": [{"href": "/mdr/sdtmig/3-3/datasets/OE/variables/STUDYID", "title": "Study Identifier", "type": "SDTM Dataset Variable"}], "self": {"href": "/mdr/cdashig/2-2/domains/OE/fields/STUDYID", "title": "Study Identifier", "type": "Data Collection Field"}}, "core": "HR", "definition": "A unique identifier for a study.", "implementationNotes": "Although this field is not typically captured on a CRF, it should be displayed clearly on the CRF and/or in the EDC system. This field can be included in the database or populated during SDTM-based dataset creation before submission.", "label": "Study Identifier", "mappingInstructions": "Maps directly to the SDTMIG variable listed in the SDTMIG Target column.", "name": "STUDYID", "ordinal": "1", "prompt": "[Protocol/Study]", "questionText": "What is the study identifier?", "simpleDatatype": "Char"}, {"_links": {"implements": {"href": "/mdr/cdash/1-2/classes/Identifiers/fields/SITEID", "title": "Study Site Identifier", "type": "Class Variable"}, "parentDomain": {"href": "/mdr/cdashig/2-2/domains/OE", "title": "Ophthalmic Examinations", "type": "CDASH Domain"}, "parentProduct": {"href": "/mdr/cdashig/2-2", "title": "Clinical Data Acquisition Standards Harmonization Implementation Guide for Human Clinical Trials Version 2.2", "type": "Implementation Guide"}, "rootItem": {"href": "/mdr/root/cdashig/domains/OE/fields/SITEID", "title": "Study Site Identifier", "type": "Root Data Element"}, "sdtmigDatasetMappingTargets": [{"href": "/mdr/sdtmig/3-3/datasets/DM/variables/SITEID", "title": "Study Site Identifier", "type": "SDTM Dataset Variable"}], "self": {"href": "/mdr/cdashig/2-2/domains/OE/fields/SITEID", "title": "Study Site Identifier", "type": "Data Collection Field"}}, "core": "HR", "definition": "A unique identifier for a site within a study.", "implementationNotes": "Paper: This is typically pre-printed in the header of each CRF page for single-site studies. For studies with multiple sites, this field may be left blank so that the number can be recorded by the site, or it may be pre-printed on the CRFs that are shipped to each site. EDC: This should be prepopulated.", "label": "Study Site Identifier", "mappingInstructions": "Maps directly to the SDTMIG variable listed in the SDTMIG Target column.", "name": "SITEID", "ordinal": "2", "prompt": "Site (Identifier)", "questionText": "What is the site identifier?", "simpleDatatype": "Char"}, {"_links": {"implements": {"href": "/mdr/cdash/1-2/classes/Identifiers/fields/SUBJID", "title": "Subject Identifier for the Study", "type": "Class Variable"}, "parentDomain": {"href": "/mdr/cdashig/2-2/domains/OE", "title": "Ophthalmic Examinations", "type": "CDASH Domain"}, "parentProduct": {"href": "/mdr/cdashig/2-2", "title": "Clinical Data Acquisition Standards Harmonization Implementation Guide for Human Clinical Trials Version 2.2", "type": "Implementation Guide"}, "rootItem": {"href": "/mdr/root/cdashig/domains/OE/fields/SUBJID", "title": "Subject Identifier for the Study", "type": "Root Data Element"}, "sdtmigDatasetMappingTargets": [{"href": "/mdr/sdtmig/3-3/datasets/DM/variables/SUBJID", "title": "Subject Identifier for the Study", "type": "SDTM Dataset Variable"}], "self": {"href": "/mdr/cdashig/2-2/domains/OE/fields/SUBJID", "title": "Subject Identifier for the Study", "type": "Data Collection Field"}}, "completionInstructions": "Record the identifier for the subject.", "core": "HR", "definition": "A unique subject identifier within a site and a study.", "implementationNotes": "Paper: This is typically recorded in the header of each CRF page. EDC: The subject identifiers may be provided to the site using a pre-populated list in the system. This CDASH variable is typically collected in all CDASH domains. However, this CDASH variable is populated only in the SDTMIG DM domain. For more information, refer to the SDTM.", "label": "Subject Identifier for the Study", "mappingInstructions": "Maps directly to the SDTMIG variable listed in the SDTMIG Target column.", "name": "SUBJID", "ordinal": "3", "prompt": "Subject", "questionText": "What is the subject identifier?", "simpleDatatype": "Char"}, {"_links": {"implements": {"href": "/mdr/cdash/1-2/classes/Timing/fields/VISIT", "title": "Visit Name", "type": "Class Variable"}, "parentDomain": {"href": "/mdr/cdashig/2-2/domains/OE", "title": "Ophthalmic Examinations", "type": "CDASH Domain"}, "parentProduct": {"href": "/mdr/cdashig/2-2", "title": "Clinical Data Acquisition Standards Harmonization Implementation Guide for Human Clinical Trials Version 2.2", "type": "Implementation Guide"}, "rootItem": {"href": "/mdr/root/cdashig/domains/OE/fields/VISIT", "title": "Visit Name", "type": "Root Data Element"}, "sdtmigDatasetMappingTargets": [{"href": "/mdr/sdtmig/3-3/datasets/OE/variables/VISIT", "title": "Visit Name", "type": "SDTM Dataset Variable"}], "self": {"href": "/mdr/cdashig/2-2/domains/OE/fields/VISIT", "title": "Visit Name", "type": "Data Collection Field"}}, "core": "R/C", "definition": "The name of a clinical encounter that encompasses planned and unplanned trial interventions, procedures, and assessments that may be performed on a subject.", "implementationNotes": "The name of the clinical encounter is typically pre-printed or displayed within the EDC for any visit-based data collection, most often in Findings domains. This Visit text description is then available in any EDC data extract for that Findings domain.", "label": "Visit Name", "mappingInstructions": "Maps directly to the SDTMIG variable listed in the SDTMIG Target column.", "name": "VISIT", "ordinal": "4", "prompt": "[Visit]", "questionText": "What is the visit name?", "simpleDatatype": "Char"}, {"_links": {"implements": {"href": "/mdr/cdash/1-2/classes/Timing/fields/VISDAT", "title": "Visit Date", "type": "Class Variable"}, "parentDomain": {"href": "/mdr/cdashig/2-2/domains/OE", "title": "Ophthalmic Examinations", "type": "CDASH Domain"}, "parentProduct": {"href": "/mdr/cdashig/2-2", "title": "Clinical Data Acquisition Standards Harmonization Implementation Guide for Human Clinical Trials Version 2.2", "type": "Implementation Guide"}, "rootItem": {"href": "/mdr/root/cdashig/domains/OE/fields/VISDAT", "title": "Visit Date", "type": "Root Data Element"}, "self": {"href": "/mdr/cdashig/2-2/domains/OE/fields/VISDAT", "title": "Visit Date", "type": "Data Collection Field"}}, "completionInstructions": "Record the [date/start date] of the visit using this format (DD-MON-YYYY).", "core": "R/C", "definition": "Date the clinical encounter occurred (or started).", "implementationNotes": "The date the OE measurements were collected can be determined from the visit date variable (VISDAT) and applying that date to all of the observations at that visit, or the collection date can be included on the OE CRF using the Ophthalmic Examinations (OEDAT) field.", "label": "Visit Date", "mappingInstructions": "This field is not an SDTM variable. The date of a measurement, test, observation can be determined from the date/time of visit (VISDAT/VISTIM) and then concatenating the CDASH VISDAT/VISTIM components and populating the SDTMIG variable VSDTC in ISO 8601 format.", "name": "VISDAT", "ordinal": "5", "prompt": "(Visit) Date", "questionText": "What [is/was] the date of the visit?", "simpleDatatype": "Char"}, {"_links": {"codelist": [{"href": "/mdr/root/ct/sdtmct/codelists/C119013", "title": "Version-agnostic anchor resource for codelist C119013", "type": "Root Value Domain"}], "implements": {"href": "/mdr/cdash/1-2/classes/Identifiers/fields/FOCID", "title": "Focus of Study Specific Interest", "type": "Class Variable"}, "parentDomain": {"href": "/mdr/cdashig/2-2/domains/OE", "title": "Ophthalmic Examinations", "type": "CDASH Domain"}, "parentProduct": {"href": "/mdr/cdashig/2-2", "title": "Clinical Data Acquisition Standards Harmonization Implementation Guide for Human Clinical Trials Version 2.2", "type": "Implementation Guide"}, "rootItem": {"href": "/mdr/root/cdashig/domains/OE/fields/FOCID", "title": "Focus of Study-specific Interest", "type": "Root Data Element"}, "sdtmigDatasetMappingTargets": [{"href": "/mdr/sdtmig/3-3/datasets/OE/variables/FOCID", "title": "Focus of Study-Specific Interest", "type": "SDTM Dataset Variable"}], "self": {"href": "/mdr/cdashig/2-2/domains/OE/fields/FOCID", "title": "Focus of Study-specific Interest", "type": "Data Collection Field"}}, "completionInstructions": "Record which [eye was/eyes were] the focus of the finding or observation.", "core": "HR", "definition": "An identifier used for the identification of a focus of study-specific interest on or within a subject or specimen (as described in the protocol), for which a measurement, test, or examination was performed, such as a drug application site (e.g., \"Injection site 1\", \"Biopsy site 1\", \"Treated site 1\"), or a more specific focus (e.g., \"OD\" (right eye), \"Upper left quadrant of the back\"). The value in this variable should have inherent semantic meaning.", "implementationNotes": "This variable is expected to be populated for ophthalmic studies. It is used as the key identifying variable to denote the focus (which eye or eyes) of the test finding or observation.", "label": "Focus of Study-specific Interest", "mappingInstructions": "Maps directly to the SDTMIG variable listed in the SDTMIG Target column.", "name": "FOCID", "ordinal": "6", "prompt": "Eye/Eyes", "questionText": "Which eye/eyes?", "simpleDatatype": "Char"}, {"_links": {"codelist": [{"href": "/mdr/root/ct/sdtmct/codelists/C66742", "title": "Version-agnostic anchor resource for codelist C66742", "type": "Root Value Domain"}], "implements": {"href": "/mdr/cdash/1-2/classes/Findings/fields/--PERF", "title": "[Observation] Performed", "type": "Class Variable"}, "parentDomain": {"href": "/mdr/cdashig/2-2/domains/OE", "title": "Ophthalmic Examinations", "type": "CDASH Domain"}, "parentProduct": {"href": "/mdr/cdashig/2-2", "title": "Clinical Data Acquisition Standards Harmonization Implementation Guide for Human Clinical Trials Version 2.2", "type": "Implementation Guide"}, "rootItem": {"href": "/mdr/root/cdashig/domains/OE/fields/OEPERF", "title": "Ophthalmic Examination Performed", "type": "Root Data Element"}, "sdtmigDatasetMappingTargets": [{"href": "/mdr/sdtmig/3-3/datasets/OE/variables/OESTAT", "title": "Completion Status", "type": "SDTM Dataset Variable"}], "self": {"href": "/mdr/cdashig/2-2/domains/OE/fields/OEPERF", "title": "Ophthalmic Examination Performed", "type": "Data Collection Field"}}, "core": "O", "definition": "An indication of whether a planned measurement, test, observation or specimen was performed/collected.", "implementationNotes": "This field is used to capture a response regarding whether a planned measurement, test, or observation was performed. A negative response can be collected as \"N\" and mapped to the --STAT variable in SDTM as \"NOT DONE\".", "label": "Ophthalmic Examination Performed", "mappingInstructions": "This field does not map directly to an SDTM variable. May be used to populate a value into the SDTM variable OESTAT. If the CDASH variable OEPERF=\"N\", the value of the SDTM variable OESTAT is \"NOT DONE\". If OEPERF= \"Y\", OESTAT is null. A combination of SDTM variables (e.g., OECAT and OESCAT, OETPT ) is used to indicate that multiple tests were not done. In this situation, the SDTM variable OETESTCD would be populated with OEALL and an appropriate test name (OETEST) provided. See SDTMIG v3.3 Section 4.5.1.2.", "name": "OEPERF", "ordinal": "7", "prompt": "Ophthalmic Examination Performed", "questionText": "Was an ophthalmic examination performed?", "simpleDatatype": "Char"}, {"_links": {"implements": {"href": "/mdr/cdash/1-2/classes/Timing/fields/--DAT", "title": "Collection Date", "type": "Class Variable"}, "parentDomain": {"href": "/mdr/cdashig/2-2/domains/OE", "title": "Ophthalmic Examinations", "type": "CDASH Domain"}, "parentProduct": {"href": "/mdr/cdashig/2-2", "title": "Clinical Data Acquisition Standards Harmonization Implementation Guide for Human Clinical Trials Version 2.2", "type": "Implementation Guide"}, "rootItem": {"href": "/mdr/root/cdashig/domains/OE/fields/OEDAT", "title": "Ophthalmic Examination Date", "type": "Root Data Element"}, "sdtmigDatasetMappingTargets": [{"href": "/mdr/sdtmig/3-3/datasets/OE/variables/OEDTC", "title": "Date/Time of Collection", "type": "SDTM Dataset Variable"}], "self": {"href": "/mdr/cdashig/2-2/domains/OE/fields/OEDAT", "title": "Ophthalmic Examination Date", "type": "Data Collection Field"}}, "completionInstructions": "Record date of measurements using this format (DD-MON-YYYY).", "core": "R/C", "definition": "The date of the ophthalmic examination measurement, represented in an unambiguous date format (e.g., DD-MON-YYYY).", "implementationNotes": "The date of measurement can be determined from a collected date of visit (VISDAT); in such cases, a separate measurement date field is not required.", "label": "Ophthalmic Examination Date", "mappingInstructions": "This does not map directly to an SDTMIG variable. For the SDTM submission dataset, concatenate all collected CDASH DATE and TIME components and populate the SDTMIG variable OEDTC in ISO 8601 format.", "name": "OEDAT", "ordinal": "8", "prompt": "Date", "questionText": "What was the date of the ophthalmic examination measurement?", "simpleDatatype": "Char"}, {"_links": {"implements": {"href": "/mdr/cdash/1-2/classes/Timing/fields/--TIM", "title": "Collection Time", "type": "Class Variable"}, "parentDomain": {"href": "/mdr/cdashig/2-2/domains/OE", "title": "Ophthalmic Examinations", "type": "CDASH Domain"}, "parentProduct": {"href": "/mdr/cdashig/2-2", "title": "Clinical Data Acquisition Standards Harmonization Implementation Guide for Human Clinical Trials Version 2.2", "type": "Implementation Guide"}, "rootItem": {"href": "/mdr/root/cdashig/domains/OE/fields/OETIM", "title": "Ophthalmic Examination Time", "type": "Root Data Element"}, "sdtmigDatasetMappingTargets": [{"href": "/mdr/sdtmig/3-3/datasets/OE/variables/OEDTC", "title": "Date/Time of Collection", "type": "SDTM Dataset Variable"}], "self": {"href": "/mdr/cdashig/2-2/domains/OE/fields/OETIM", "title": "Ophthalmic Examination Time", "type": "Data Collection Field"}}, "completionInstructions": "Record time of measurement (as complete as possible).", "core": "R/C", "definition": "The time of the measurement, represented in an unambiguous time format (e.g., hh:mm:ss).", "implementationNotes": "Collect time if it is relevant for the analysis.", "label": "Ophthalmic Examination Time", "mappingInstructions": "This does not map directly to an SDTMIG variable. For the SDTM submission dataset, concatenate all collected CDASH DATE and TIME components and populate the SDTMIG variable VSDTC in ISO 8601 format.", "name": "OETIM", "ordinal": "9", "prompt": "Time", "questionText": "What was the time the ophthalmic examination measurement?", "simpleDatatype": "Char"}, {"_links": {"codelist": [{"href": "/mdr/root/ct/sdtmct/codelists/C117742", "title": "Version-agnostic anchor resource for codelist C117742", "type": "Root Value Domain"}], "implements": {"href": "/mdr/cdash/1-2/classes/Findings/fields/--TEST", "title": "Name of Measurement, Test, or Exam", "type": "Class Variable"}, "parentDomain": {"href": "/mdr/cdashig/2-2/domains/OE", "title": "Ophthalmic Examinations", "type": "CDASH Domain"}, "parentProduct": {"href": "/mdr/cdashig/2-2", "title": "Clinical Data Acquisition Standards Harmonization Implementation Guide for Human Clinical Trials Version 2.2", "type": "Implementation Guide"}, "rootItem": {"href": "/mdr/root/cdashig/domains/OE/fields/OETEST", "title": "Name of Measurement, Test or Examination", "type": "Root Data Element"}, "sdtmigDatasetMappingTargets": [{"href": "/mdr/sdtmig/3-3/datasets/OE/variables/OETEST", "title": "Name of Ophthalmic Test or Exam", "type": "SDTM Dataset Variable"}], "self": {"href": "/mdr/cdashig/2-2/domains/OE/fields/OETEST", "title": "Name of Measurement, Test or Examination", "type": "Data Collection Field"}}, "core": "HR", "definition": "Descriptive name for the test being performed.", "implementationNotes": "The test name will usually be pre-printed on the CRF, and not solicited as a question. If the form is laid out as a grid, then \"Test\" or \"Test Name\" can be included as the column heading. OETEST is most useful as the PROMPT on the field in which the RESULT for that test is collected. See CDASHIG metadata tables for domain-specific TEST codelist names (e.g. EGTEST, FATEST).", "label": "Name of Measurement, Test or Examination", "mappingInstructions": "Maps directly to the SDTM variable listed in the SDTM Target column. The SDTM variable OETESTCD may be determined from the value collected in OETEST. The SDTMIG variables OETESTCD and OETEST are required in SDTM.", "name": "OETEST", "ordinal": "10", "prompt": "[Ophthalmic Examination] Test Name", "questionText": "What was the name of the ophthalmic [measurement/test/examination]?", "simpleDatatype": "Char"}, {"_links": {"implements": {"href": "/mdr/cdash/1-2/classes/Findings/fields/--TSTDTL", "title": "Measurement, Test or Examination Detail", "type": "Class Variable"}, "parentDomain": {"href": "/mdr/cdashig/2-2/domains/OE", "title": "Ophthalmic Examinations", "type": "CDASH Domain"}, "parentProduct": {"href": "/mdr/cdashig/2-2", "title": "Clinical Data Acquisition Standards Harmonization Implementation Guide for Human Clinical Trials Version 2.2", "type": "Implementation Guide"}, "rootItem": {"href": "/mdr/root/cdashig/domains/OE/fields/OETSTDTL", "title": "Measurement, Test or Examination Detail", "type": "Root Data Element"}, "sdtmigDatasetMappingTargets": [{"href": "/mdr/sdtmig/3-3/datasets/OE/variables/OETSTDTL", "title": "Ophthalmic Test or Exam Detail", "type": "SDTM Dataset Variable"}], "self": {"href": "/mdr/cdashig/2-2/domains/OE/fields/OETSTDTL", "title": "Measurement, Test or Examination Detail", "type": "Data Collection Field"}}, "core": "O", "definition": "A further description of OETESTCD and OETEST.", "implementationNotes": "It is recommended that the test detail name be pre-printed on the CRF. If the form is laid out as a grid, then \"Test\" or \"Test Name\" can be included in the column heading.", "label": "Measurement, Test or Examination Detail", "mappingInstructions": "Maps directly to the SDTM variable listed in the SDTM Target column.", "name": "OETSTDTL", "ordinal": "11", "prompt": "[Measurement/Test/Examination] Detail (Name)", "questionText": "What was the [measurement/test/examination] detail name?", "simpleDatatype": "Char"}, {"_links": {"implements": {"href": "/mdr/cdash/1-2/classes/Findings/fields/--CAT", "title": "Category", "type": "Class Variable"}, "parentDomain": {"href": "/mdr/cdashig/2-2/domains/OE", "title": "Ophthalmic Examinations", "type": "CDASH Domain"}, "parentProduct": {"href": "/mdr/cdashig/2-2", "title": "Clinical Data Acquisition Standards Harmonization Implementation Guide for Human Clinical Trials Version 2.2", "type": "Implementation Guide"}, "rootItem": {"href": "/mdr/root/cdashig/domains/OE/fields/OECAT", "title": "Category", "type": "Root Data Element"}, "sdtmigDatasetMappingTargets": [{"href": "/mdr/sdtmig/3-3/datasets/OE/variables/OECAT", "title": "Category for Ophthalmic Test or Exam", "type": "SDTM Dataset Variable"}], "self": {"href": "/mdr/cdashig/2-2/domains/OE/fields/OECAT", "title": "Category", "type": "Data Collection Field"}}, "core": "O", "definition": "A grouping of topic-variable values based on user-defined characteristics.", "implementationNotes": "Sponsor-defined controlled terminology. This would most commonly be a heading on the CRF or screen, not a question to which the site would provide an answer. Examples are provided in the CDASHIG metadata tables and in the SDTMIG. If a question is asked, the response would typically be a sponsor-defined codelist. If the form is laid out as a grid, then words such as \"Category\" can be included as the column heading. Note: CDISC Controlled terminology (IECAT) is used for the IE domain.", "label": "Category", "mappingInstructions": "Maps directly to the SDTM variable listed in the SDTM Target column.", "name": "OECAT", "ordinal": "12", "prompt": "[Ophthalmic Examination Category]; NULL", "questionText": "What was the [type/category] of the ophthalmic examination?", "simpleDatatype": "Char"}, {"_links": {"implements": {"href": "/mdr/cdash/1-2/classes/Findings/fields/--SCAT", "title": "Subcategory", "type": "Class Variable"}, "parentDomain": {"href": "/mdr/cdashig/2-2/domains/OE", "title": "Ophthalmic Examinations", "type": "CDASH Domain"}, "parentProduct": {"href": "/mdr/cdashig/2-2", "title": "Clinical Data Acquisition Standards Harmonization Implementation Guide for Human Clinical Trials Version 2.2", "type": "Implementation Guide"}, "rootItem": {"href": "/mdr/root/cdashig/domains/OE/fields/OESCAT", "title": "Subcategory", "type": "Root Data Element"}, "sdtmigDatasetMappingTargets": [{"href": "/mdr/sdtmig/3-3/datasets/OE/variables/OESCAT", "title": "Subcategory for Ophthalmic Test or Exam", "type": "SDTM Dataset Variable"}], "self": {"href": "/mdr/cdashig/2-2/domains/OE/fields/OESCAT", "title": "Subcategory", "type": "Data Collection Field"}}, "core": "O", "definition": "A sub-division of the OECAT values based on user-defined characteristics.", "implementationNotes": "Sponsor-defined controlled terminology. This would most commonly be a heading on the CRF or screen, not a question to which the site would provide an answer. OESCAT can only be used if there is a OECAT. Examples are provided in the CDASHIG metadata table and in the SDTMIG. If a question is asked, the response would typically be a sponsor-defined codelist. If the form is laid out as a grid, then words such as \"Subcategory\" can be included in the column heading. OESCAT can only be used if there is a OECAT.", "label": "Subcategory", "mappingInstructions": "Maps directly to the SDTM variable listed in the SDTM Target column.", "name": "OESCAT", "ordinal": "13", "prompt": "[Ophthalmic Examination Subcategory]; NULL", "questionText": "What was the [subtype/subcategory] of the ophthalmic examination?", "simpleDatatype": "Char"}, {"_links": {"implements": {"href": "/mdr/cdash/1-2/classes/Findings/fields/--ORRES", "title": "Result or Finding in Original Units", "type": "Class Variable"}, "parentDomain": {"href": "/mdr/cdashig/2-2/domains/OE", "title": "Ophthalmic Examinations", "type": "CDASH Domain"}, "parentProduct": {"href": "/mdr/cdashig/2-2", "title": "Clinical Data Acquisition Standards Harmonization Implementation Guide for Human Clinical Trials Version 2.2", "type": "Implementation Guide"}, "rootItem": {"href": "/mdr/root/cdashig/domains/OE/fields/OEORRES", "title": "Result of Finding in Original Unit", "type": "Root Data Element"}, "sdtmigDatasetMappingTargets": [{"href": "/mdr/sdtmig/3-3/datasets/OE/variables/OEORRES", "title": "Result or Finding in Original Units", "type": "SDTM Dataset Variable"}], "self": {"href": "/mdr/cdashig/2-2/domains/OE/fields/OEORRES", "title": "Result of Finding in Original Unit", "type": "Data Collection Field"}}, "core": "HR", "definition": "Result of the measurement or finding as originally received or collected.", "implementationNotes": "Both quantitative results and interpretive findings or summaries may be recorded here.", "label": "Result of Finding in Original Unit", "mappingInstructions": "Maps directly to the SDTM variable listed in the SDTM Target column.", "name": "OEORRES", "ordinal": "14", "prompt": "([Result/Amount] of) [value from OETEST]; NULL", "questionText": "What was the result of the ophthalmic examination test?", "simpleDatatype": "Char"}, {"_links": {"codelist": [{"href": "/mdr/root/ct/sdtmct/codelists/C71620", "title": "Version-agnostic anchor resource for codelist C71620", "type": "Root Value Domain"}], "implements": {"href": "/mdr/cdash/1-2/classes/Findings/fields/--ORRESU", "title": "Original Units", "type": "Class Variable"}, "parentDomain": {"href": "/mdr/cdashig/2-2/domains/OE", "title": "Ophthalmic Examinations", "type": "CDASH Domain"}, "parentProduct": {"href": "/mdr/cdashig/2-2", "title": "Clinical Data Acquisition Standards Harmonization Implementation Guide for Human Clinical Trials Version 2.2", "type": "Implementation Guide"}, "rootItem": {"href": "/mdr/root/cdashig/domains/OE/fields/OEORRESU", "title": "Original Unit", "type": "Root Data Element"}, "sdtmigDatasetMappingTargets": [{"href": "/mdr/sdtmig/3-3/datasets/OE/variables/OEORRESU", "title": "Original Units", "type": "SDTM Dataset Variable"}], "self": {"href": "/mdr/cdashig/2-2/domains/OE/fields/OEORRESU", "title": "Original Unit", "type": "Data Collection Field"}}, "core": "R/C", "definition": "The unit of the result as originally received or collected.", "implementationNotes": "Should be pre-printed on the CRF with the associated test when possible, rather than collected in a free-text field. Should be included if applicable and not available elsewhere.", "label": "Original Unit", "mappingInstructions": "Maps directly to the SDTM variable listed in the SDTM Target column.", "name": "OEORRESU", "ordinal": "15", "prompt": "Unit", "questionText": "What was the unit (of the [measurement/test/examination])?", "simpleDatatype": "Char"}, {"_links": {"implements": {"href": "/mdr/cdash/1-2/classes/Findings/fields/--RES", "title": "Collected Result or Finding", "type": "Class Variable"}, "parentDomain": {"href": "/mdr/cdashig/2-2/domains/OE", "title": "Ophthalmic Examinations", "type": "CDASH Domain"}, "parentProduct": {"href": "/mdr/cdashig/2-2", "title": "Clinical Data Acquisition Standards Harmonization Implementation Guide for Human Clinical Trials Version 2.2", "type": "Implementation Guide"}, "rootItem": {"href": "/mdr/root/cdashig/domains/OE/fields/OERES", "title": "Collected Result or Finding", "type": "Root Data Element"}, "sdtmigDatasetMappingTargets": [{"href": "/mdr/sdtmig/3-3/datasets/OE/variables/OEORRES", "title": "Result or Finding in Original Units", "type": "SDTM Dataset Variable"}], "self": {"href": "/mdr/cdashig/2-2/domains/OE/fields/OERES", "title": "Collected Result or Finding", "type": "Data Collection Field"}}, "core": "O", "definition": "The result of the measurement or finding as originally received or collected.", "implementationNotes": "The CDASH field OERES is used when the collected results are not mapped directly to the SDTM variable OEORRES and must be mapped, for example: OERES is used to collect standardized values on the CRF and the value of \"OTHER\" is included and \"Specify Other\" is collected. OERES is collected using Normal, Abnormal and a description of the abnormality is collected.", "label": "Collected Result or Finding", "mappingInstructions": "This does not map directly to an SDTM variable. The mapping instructions depend on the implementation, for example: Where OERES Normal, Abnormal or other similar type classifications (e.g., Absent/Present) with a description of the abnormal result using the CDASH field OEDESC. For SDTM submission datasets, If the CDASH field OERES = \"NORMAL\", populate the SDTM variables OEORRES and OESTRESC with the value of the CDASH field OERES. If the CDASH field OERES is \"ABNORMAL\", populate the SDTM variable OEORRES with the CDASH field OEDESC. If the reported findings in OEDESC are coded using a dictionary, then the SDTM variable OESTRESC is populated with the dictionary preferred term and OEMODIFY is populated with the modified text used for coding. If the reported findings in OEDESC are not coded, then the SDTM variable OESTRESC is populated with the CDASH OEDESC field. The SDTM variable OENRIND may be populated with \"NORMAL\" or \"ABNORMAL\" if appropriate. Where OERES is used to collect standardized values (e.g., a codelist) on the CRF and the value of \"OTHER\" is included, the CDASH field OERESOTH can be used to collect free-text values for \"Specify Other\". When using this field, the \"OTHER\" value recorded in the CDASH field OERES field is mapped to the SDTM variable OESTRESC and the value in the CDASH field OERESOTH is mapped to the SDTM variable OEORRES. See SDTMIG for additional information.", "name": "OERES", "ordinal": "16", "prompt": "([Result/Amount] of) [value from OETEST]", "questionText": "What [is/was] the [result/amount] (of the [measurement/test/examination])?; [Is/Was] the result [normal/abnormal/absent/present/ sponsored defined response]?", "simpleDatatype": "Char"}, {"_links": {"implements": {"href": "/mdr/cdash/1-2/classes/Findings/fields/--RESOTH", "title": "Result Other", "type": "Class Variable"}, "parentDomain": {"href": "/mdr/cdashig/2-2/domains/OE", "title": "Ophthalmic Examinations", "type": "CDASH Domain"}, "parentProduct": {"href": "/mdr/cdashig/2-2", "title": "Clinical Data Acquisition Standards Harmonization Implementation Guide for Human Clinical Trials Version 2.2", "type": "Implementation Guide"}, "rootItem": {"href": "/mdr/root/cdashig/domains/OE/fields/OERESOTH", "title": "Result Other", "type": "Root Data Element"}, "sdtmigDatasetMappingTargets": [{"href": "/mdr/sdtmig/3-3/datasets/OE/variables/OEORRES", "title": "Result or Finding in Original Units", "type": "SDTM Dataset Variable"}], "self": {"href": "/mdr/cdashig/2-2/domains/OE/fields/OERESOTH", "title": "Result Other", "type": "Data Collection Field"}}, "core": "O", "definition": "A free-text result which provides further information about the original received or collected result.", "implementationNotes": "In a case where OERES is used to collect standardized values on the CRF and the value of \"OTHER\" is included, the CDASH field OERESOTH can be used to collect free-text values for \"Specify Other\".", "label": "Result Other", "mappingInstructions": "When using this CDASH field, the \"OTHER\" value collected in the CDASH field OERES is mapped to the SDTM variable OESTRESC and the value in the CDASH field OERESOTH is mapped to the SDTM variable OEORRES. See SDTMIG for additional information.", "name": "OERESOTH", "ordinal": "17", "prompt": "Specify ([Other/Details])", "questionText": "If other is selected, [explain/specify/provide more detail].", "simpleDatatype": "Char"}, {"_links": {"implements": {"href": "/mdr/cdash/1-2/classes/Findings/fields/--ORNRLO", "title": "Normal Range Lower Limit- Original Units", "type": "Class Variable"}, "parentDomain": {"href": "/mdr/cdashig/2-2/domains/OE", "title": "Ophthalmic Examinations", "type": "CDASH Domain"}, "parentProduct": {"href": "/mdr/cdashig/2-2", "title": "Clinical Data Acquisition Standards Harmonization Implementation Guide for Human Clinical Trials Version 2.2", "type": "Implementation Guide"}, "rootItem": {"href": "/mdr/root/cdashig/domains/OE/fields/OEORNRLO", "title": "Normal Range Lower Limit- Original Unit", "type": "Root Data Element"}, "sdtmigDatasetMappingTargets": [{"href": "/mdr/sdtmig/3-3/datasets/OE/variables/OEORNRLO", "title": "Normal Range Lower Limit-Original Units", "type": "SDTM Dataset Variable"}], "self": {"href": "/mdr/cdashig/2-2/domains/OE/fields/OEORNRLO", "title": "Normal Range Lower Limit- Original Unit", "type": "Data Collection Field"}}, "core": "O", "definition": "The lower end of normal range or reference range for continuous results stored in OEORRES.", "implementationNotes": "OEORNRLO should be populated only for continuous findings. The SDTM variable OESTNRC should be populated only for noncontinuous results. These data may be obtained from the lab or the electronic equipment. These data could be derived from a site- or lab-specific set of normal ranges stored in a look-up table.", "label": "Normal Range Lower Limit- Original Unit", "mappingInstructions": "Maps directly to the SDTM variable listed in the SDTM Target column.", "name": "OEORNRLO", "ordinal": "18", "prompt": "Normal Range Lower Limit", "questionText": "What was the lower limit of the reference range (for the [measurement/test/examination]?", "simpleDatatype": "Char"}, {"_links": {"implements": {"href": "/mdr/cdash/1-2/classes/Findings/fields/--ORNRHI", "title": "Normal Range Upper Limit-Original Units", "type": "Class Variable"}, "parentDomain": {"href": "/mdr/cdashig/2-2/domains/OE", "title": "Ophthalmic Examinations", "type": "CDASH Domain"}, "parentProduct": {"href": "/mdr/cdashig/2-2", "title": "Clinical Data Acquisition Standards Harmonization Implementation Guide for Human Clinical Trials Version 2.2", "type": "Implementation Guide"}, "rootItem": {"href": "/mdr/root/cdashig/domains/OE/fields/OEORNRHI", "title": "Normal Range Upper Limit- Original Unit", "type": "Root Data Element"}, "sdtmigDatasetMappingTargets": [{"href": "/mdr/sdtmig/3-3/datasets/OE/variables/OEORNRHI", "title": "Normal Range Upper Limit-Original Units", "type": "SDTM Dataset Variable"}], "self": {"href": "/mdr/cdashig/2-2/domains/OE/fields/OEORNRHI", "title": "Normal Range Upper Limit- Original Unit", "type": "Data Collection Field"}}, "core": "O", "definition": "The upper end of normal range or reference range for continuous results stored in OEORRES.", "implementationNotes": "OEORNRHI should be populated only for continuous findings. The SDTM variable OESTNRC should be populated only for noncontinuous results. These data may be obtained from the lab or the electronic equipment. These data could be derived from a site- or lab-specific set of normal ranges stored in a look-up table.", "label": "Normal Range Upper Limit- Original Unit", "mappingInstructions": "Maps directly to the SDTM variable listed in the SDTM Target column.", "name": "OEORNRHI", "ordinal": "19", "prompt": "Normal Range Upper Limit", "questionText": "What was the upper limit of the reference range (for the [measurement/test/examination])?", "simpleDatatype": "Char"}, {"_links": {"implements": {"href": "/mdr/cdash/1-2/classes/Findings/fields/--CSTNRC", "title": "Collected Character/Ordinal Normal Range", "type": "Class Variable"}, "parentDomain": {"href": "/mdr/cdashig/2-2/domains/OE", "title": "Ophthalmic Examinations", "type": "CDASH Domain"}, "parentProduct": {"href": "/mdr/cdashig/2-2", "title": "Clinical Data Acquisition Standards Harmonization Implementation Guide for Human Clinical Trials Version 2.2", "type": "Implementation Guide"}, "rootItem": {"href": "/mdr/root/cdashig/domains/OE/fields/OECSTNRC", "title": "Collected Character/Ordinal Normal Range", "type": "Root Data Element"}, "sdtmigDatasetMappingTargets": [{"href": "/mdr/sdtmig/3-3/datasets/OE/variables/OESTNRC", "title": "Normal Range for Character Results", "type": "SDTM Dataset Variable"}], "self": {"href": "/mdr/cdashig/2-2/domains/OE/fields/OECSTNRC", "title": "Collected Character/Ordinal Normal Range", "type": "Data Collection Field"}}, "core": "O", "definition": "Normal references ranges that are expressed as characters (\"Negative to Trace\") or ordinal (-1 to 1).", "implementationNotes": "Should be populated for normal ranges that are reported as character in ordinal scale or if categorical ranges were supplied. These data may be obtained from the lab or the electronic equipment. These data could be derived from a site- or lab-specific set of normal ranges stored in a look-up table.", "label": "Collected Character/Ordinal Normal Range", "mappingInstructions": "Maps directly to the SDTM variable listed in the SDTM Target column.", "name": "OECSTNRC", "ordinal": "20", "prompt": "Normal Reference Range", "questionText": "What was the normal reference range (for this [measurement/test/examination])?", "simpleDatatype": "Char"}, {"_links": {"codelist": [{"href": "/mdr/root/ct/sdtmct/codelists/C78736", "title": "Version-agnostic anchor resource for codelist C78736", "type": "Root Value Domain"}], "implements": {"href": "/mdr/cdash/1-2/classes/Findings/fields/--NRIND", "title": "Normal/Reference Range Indicator", "type": "Class Variable"}, "parentDomain": {"href": "/mdr/cdashig/2-2/domains/OE", "title": "Ophthalmic Examinations", "type": "CDASH Domain"}, "parentProduct": {"href": "/mdr/cdashig/2-2", "title": "Clinical Data Acquisition Standards Harmonization Implementation Guide for Human Clinical Trials Version 2.2", "type": "Implementation Guide"}, "rootItem": {"href": "/mdr/root/cdashig/domains/OE/fields/OENRIND", "title": "Normal/Reference Range Indicator", "type": "Root Data Element"}, "sdtmigDatasetMappingTargets": [{"href": "/mdr/sdtmig/3-3/datasets/OE/variables/OENRIND", "title": "Normal/Reference Range Indicator", "type": "SDTM Dataset Variable"}], "self": {"href": "/mdr/cdashig/2-2/domains/OE/fields/OENRIND", "title": "Normal/Reference Range Indicator", "type": "Data Collection Field"}}, "core": "O", "definition": "An indication or description about how the value compares to the normal range or reference range.", "implementationNotes": "Reference ranges may be defined by OEORNRLO, OEORNRHI, OESTNRC, or other objective criteria. Reference Range Indicator (e.g., Y, N; HIGH, LOW; NORMAL, ABNORMAL) may be included if not derived or determined programmatically after data collection. Should not be used to indicate clinical significance.", "label": "Normal/Reference Range Indicator", "mappingInstructions": "Maps directly to the SDTM variable listed in the SDTM Target column.", "name": "OENRIND", "ordinal": "21", "prompt": "Comparison to [Reference/Expected/Normal] Range", "questionText": "How do the reported values compare within the [reference/normal/expected] range?", "simpleDatatype": "Char"}, {"_links": {"implements": {"href": "/mdr/cdash/1-2/classes/Findings/fields/--RESCAT", "title": "Result Category", "type": "Class Variable"}, "parentDomain": {"href": "/mdr/cdashig/2-2/domains/OE", "title": "Ophthalmic Examinations", "type": "CDASH Domain"}, "parentProduct": {"href": "/mdr/cdashig/2-2", "title": "Clinical Data Acquisition Standards Harmonization Implementation Guide for Human Clinical Trials Version 2.2", "type": "Implementation Guide"}, "rootItem": {"href": "/mdr/root/cdashig/domains/OE/fields/OERESCAT", "title": "Result Category", "type": "Root Data Element"}, "sdtmigDatasetMappingTargets": [{"href": "/mdr/sdtmig/3-3/datasets/OE/variables/OESTRESC", "title": "Character Result/Finding in Std Format", "type": "SDTM Dataset Variable"}], "self": {"href": "/mdr/cdashig/2-2/domains/OE/fields/OERESCAT", "title": "Result Category", "type": "Data Collection Field"}}, "core": "O", "definition": "An indicator of the result of a finding or medical status per interpretation of test results.", "implementationNotes": "Used to categorize the result of a finding or medical status per interpretation of test results (e.g., \"POSITIVE\", \"NEGATIVE\"). The variable OERESCAT is not meant to replace the use of OENRIND for cases where normal ranges are provided.", "label": "Result Category", "mappingInstructions": "Maps directly to the SDTM variable listed in the SDTM Target column.", "name": "OERESCAT", "ordinal": "22", "prompt": "Result Category", "questionText": "What is the the category for the reported values?", "simpleDatatype": "Char"}, {"_links": {"implements": {"href": "/mdr/cdash/1-2/classes/Findings/fields/--REASND", "title": "Reason Not Done", "type": "Class Variable"}, "parentDomain": {"href": "/mdr/cdashig/2-2/domains/OE", "title": "Ophthalmic Examinations", "type": "CDASH Domain"}, "parentProduct": {"href": "/mdr/cdashig/2-2", "title": "Clinical Data Acquisition Standards Harmonization Implementation Guide for Human Clinical Trials Version 2.2", "type": "Implementation Guide"}, "rootItem": {"href": "/mdr/root/cdashig/domains/OE/fields/OEREASND", "title": "Reason Not Done", "type": "Root Data Element"}, "sdtmigDatasetMappingTargets": [{"href": "/mdr/sdtmig/3-3/datasets/OE/variables/OEREASND", "title": "Reason Not Done", "type": "SDTM Dataset Variable"}], "self": {"href": "/mdr/cdashig/2-2/domains/OE/fields/OEREASND", "title": "Reason Not Done", "type": "Data Collection Field"}}, "core": "O", "definition": "An explanation of why the data are not available.", "implementationNotes": "Sponsor-defined controlled terminology may be used. The reason data are not available may be chosen from a sponsor-defined codelist (e.g., broken equipment, subject refused) or entered as free text. When OEREASND is used, OESTAT should also be populated in the SDTM-based dataset.", "label": "Reason Not Done", "mappingInstructions": "Maps directly to the SDTM variable listed in the SDTM Target column.", "name": "OEREASND", "ordinal": "23", "prompt": "Reason Not [Answered/Collected/Done/Evaluated/Assessed/Available]", "questionText": "What was the reason that the [ophthalmic examination finding] was not [collected/answered/done/assessed/evaluated]?", "simpleDatatype": "Char"}, {"_links": {"codelist": [{"href": "/mdr/root/ct/sdtmct/codelists/C74456", "title": "Version-agnostic anchor resource for codelist C74456", "type": "Root Value Domain"}], "implements": {"href": "/mdr/cdash/1-2/classes/Findings/fields/--LOC", "title": "Location Used for the Measurement", "type": "Class Variable"}, "parentDomain": {"href": "/mdr/cdashig/2-2/domains/OE", "title": "Ophthalmic Examinations", "type": "CDASH Domain"}, "parentProduct": {"href": "/mdr/cdashig/2-2", "title": "Clinical Data Acquisition Standards Harmonization Implementation Guide for Human Clinical Trials Version 2.2", "type": "Implementation Guide"}, "rootItem": {"href": "/mdr/root/cdashig/domains/OE/fields/OELOC", "title": "Location", "type": "Root Data Element"}, "sdtmigDatasetMappingTargets": [{"href": "/mdr/sdtmig/3-3/datasets/OE/variables/OELOC", "title": "Location Used for the Measurement", "type": "SDTM Dataset Variable"}], "self": {"href": "/mdr/cdashig/2-2/domains/OE/fields/OELOC", "title": "Location", "type": "Data Collection Field"}}, "core": "O", "definition": "The anatomical location of the subject, relevant to the collection of the measurement.", "implementationNotes": "For the OE domain, this value is pre-populated as \"EYE\". It does not need to be pre-printed on the CRF or collected.", "label": "Location", "mappingInstructions": "Maps directly to the SDTM variable listed in the SDTM Target column.", "name": "OELOC", "ordinal": "24", "prompt": "Anatomical Location", "questionText": "What was the anatomical location of the ophthalmic examination?", "simpleDatatype": "Char"}, {"_links": {"codelist": [{"href": "/mdr/root/ct/sdtmct/codelists/C99073", "title": "Version-agnostic anchor resource for codelist C99073", "type": "Root Value Domain"}], "implements": {"href": "/mdr/cdash/1-2/classes/Findings/fields/--LAT", "title": "Laterality", "type": "Class Variable"}, "parentDomain": {"href": "/mdr/cdashig/2-2/domains/OE", "title": "Ophthalmic Examinations", "type": "CDASH Domain"}, "parentProduct": {"href": "/mdr/cdashig/2-2", "title": "Clinical Data Acquisition Standards Harmonization Implementation Guide for Human Clinical Trials Version 2.2", "type": "Implementation Guide"}, "rootItem": {"href": "/mdr/root/cdashig/domains/OE/fields/OELAT", "title": "Laterality", "type": "Root Data Element"}, "sdtmigDatasetMappingTargets": [{"href": "/mdr/sdtmig/3-3/datasets/OE/variables/OELAT", "title": "Laterality", "type": "SDTM Dataset Variable"}], "self": {"href": "/mdr/cdashig/2-2/domains/OE/fields/OELAT", "title": "Laterality", "type": "Data Collection Field"}}, "core": "O", "definition": "Qualifier for anatomical location, further detailing the side of the body.", "implementationNotes": "Further detailing the laterality of the location of the OETEST within a given eye. It should never be used to designate \"Right Eye\" versus \"Left Eye\". OEFOCID is used to denote which eye is the focus of the observation. This may be pre-printed or collected.", "label": "Laterality", "mappingInstructions": "Maps directly to the SDTM variable listed in the SDTM Target column.", "name": "OELAT", "ordinal": "25", "prompt": "Side", "questionText": "What was the side of the anatomical location of the [measurement/test/examination])?", "simpleDatatype": "Char"}, {"_links": {"codelist": [{"href": "/mdr/root/ct/sdtmct/codelists/C99074", "title": "Version-agnostic anchor resource for codelist C99074", "type": "Root Value Domain"}], "implements": {"href": "/mdr/cdash/1-2/classes/Findings/fields/--DIR", "title": "Directionality", "type": "Class Variable"}, "parentDomain": {"href": "/mdr/cdashig/2-2/domains/OE", "title": "Ophthalmic Examinations", "type": "CDASH Domain"}, "parentProduct": {"href": "/mdr/cdashig/2-2", "title": "Clinical Data Acquisition Standards Harmonization Implementation Guide for Human Clinical Trials Version 2.2", "type": "Implementation Guide"}, "rootItem": {"href": "/mdr/root/cdashig/domains/OE/fields/OEDIR", "title": "Directionality", "type": "Root Data Element"}, "sdtmigDatasetMappingTargets": [{"href": "/mdr/sdtmig/3-3/datasets/OE/variables/OEDIR", "title": "Directionality", "type": "SDTM Dataset Variable"}], "self": {"href": "/mdr/cdashig/2-2/domains/OE/fields/OEDIR", "title": "Directionality", "type": "Data Collection Field"}}, "core": "O", "definition": "Qualifier further detailing the position of the anatomical location, relative to the center of the body, organ, or specimen.", "implementationNotes": "Further detailing the directionality of the location of the OETEST (e.g., ANTERIOR, LOWER, PROXIMAL). This may be pre-printed or collected. Sponsors may collect the data using a subset list of CT on the CRF.", "label": "Directionality", "mappingInstructions": "Maps directly to the SDTM variable listed in the SDTM Target column.", "name": "OEDIR", "ordinal": "26", "prompt": "Directionality", "questionText": "What was the directionality (of the anatomical location of the [measurement/test/examination])?", "simpleDatatype": "Char"}, {"_links": {"codelist": [{"href": "/mdr/root/ct/sdtmct/codelists/C99075", "title": "Version-agnostic anchor resource for codelist C99075", "type": "Root Value Domain"}], "implements": {"href": "/mdr/cdash/1-2/classes/Findings/fields/--PORTOT", "title": "Portion or Totality", "type": "Class Variable"}, "parentDomain": {"href": "/mdr/cdashig/2-2/domains/OE", "title": "Ophthalmic Examinations", "type": "CDASH Domain"}, "parentProduct": {"href": "/mdr/cdashig/2-2", "title": "Clinical Data Acquisition Standards Harmonization Implementation Guide for Human Clinical Trials Version 2.2", "type": "Implementation Guide"}, "rootItem": {"href": "/mdr/root/cdashig/domains/OE/fields/OEPORTOT", "title": "Portion or Totality", "type": "Root Data Element"}, "sdtmigDatasetMappingTargets": [{"href": "/mdr/sdtmig/3-3/datasets/OE/variables/OEPORTOT", "title": "Portion or Totality", "type": "SDTM Dataset Variable"}], "self": {"href": "/mdr/cdashig/2-2/domains/OE/fields/OEPORTOT", "title": "Portion or Totality", "type": "Data Collection Field"}}, "core": "O", "definition": "Qualifier for anatomical location, further detailing the distribution (i.e., arrangement of, apportioning of).", "implementationNotes": "Further detailing the portion or totality of the location of the OETEST. This may be pre-printed or collected.", "label": "Portion or Totality", "mappingInstructions": "Maps directly to the SDTM variable listed in the SDTM Target column.", "name": "OEPORTOT", "ordinal": "27", "prompt": "Portion or Totality", "questionText": "What was the portion or totality (of the anatomical location of the [measurement/test/examination])?", "simpleDatatype": "Char"}, {"_links": {"codelist": [{"href": "/mdr/root/ct/sdtmct/codelists/C85492", "title": "Version-agnostic anchor resource for codelist C85492", "type": "Root Value Domain"}], "implements": {"href": "/mdr/cdash/1-2/classes/Findings/fields/--METHOD", "title": "Method of Test or Examination", "type": "Class Variable"}, "parentDomain": {"href": "/mdr/cdashig/2-2/domains/OE", "title": "Ophthalmic Examinations", "type": "CDASH Domain"}, "parentProduct": {"href": "/mdr/cdashig/2-2", "title": "Clinical Data Acquisition Standards Harmonization Implementation Guide for Human Clinical Trials Version 2.2", "type": "Implementation Guide"}, "rootItem": {"href": "/mdr/root/cdashig/domains/OE/fields/OEMETHOD", "title": "Method of Test or Examination", "type": "Root Data Element"}, "sdtmigDatasetMappingTargets": [{"href": "/mdr/sdtmig/3-3/datasets/OE/variables/OEMETHOD", "title": "Method of Test or Examination", "type": "SDTM Dataset Variable"}], "self": {"href": "/mdr/cdashig/2-2/domains/OE/fields/OEMETHOD", "title": "Method of Test or Examination", "type": "Data Collection Field"}}, "core": "R/C", "definition": "The method of the test or examination.", "label": "Method of Test or Examination", "mappingInstructions": "Maps directly to the SDTM variable listed in the SDTM Target column.", "name": "OEMETHOD", "ordinal": "28", "prompt": "Method", "questionText": "What was the method (used for the [measurement/test/examination])?", "simpleDatatype": "Char"}, {"_links": {"codelist": [{"href": "/mdr/root/ct/sdtmct/codelists/C78735", "title": "Version-agnostic anchor resource for codelist C78735", "type": "Root Value Domain"}], "implements": {"href": "/mdr/cdash/1-2/classes/Findings/fields/--EVAL", "title": "Evaluator", "type": "Class Variable"}, "parentDomain": {"href": "/mdr/cdashig/2-2/domains/OE", "title": "Ophthalmic Examinations", "type": "CDASH Domain"}, "parentProduct": {"href": "/mdr/cdashig/2-2", "title": "Clinical Data Acquisition Standards Harmonization Implementation Guide for Human Clinical Trials Version 2.2", "type": "Implementation Guide"}, "rootItem": {"href": "/mdr/root/cdashig/domains/OE/fields/OEEVAL", "title": "Evaluator", "type": "Root Data Element"}, "sdtmigDatasetMappingTargets": [{"href": "/mdr/sdtmig/3-3/datasets/OE/variables/OEEVAL", "title": "Evaluator", "type": "SDTM Dataset Variable"}], "self": {"href": "/mdr/cdashig/2-2/domains/OE/fields/OEEVAL", "title": "Evaluator", "type": "Data Collection Field"}}, "core": "O", "definition": "The role of the person who provided the evaluation.", "implementationNotes": "Used only for results that are subjective (e.g., assigned by a person or a group). May be a pre-printed, or collected. Sponsors may collect the data using a subset list of CT on the CRF.", "label": "Evaluator", "mappingInstructions": "Maps directly to the SDTM variable listed in the SDTM Target column.", "name": "OEEVAL", "ordinal": "29", "prompt": "Evaluator", "questionText": "Who was the evaluator?", "simpleDatatype": "Char"}, {"_links": {"codelist": [{"href": "/mdr/root/ct/sdtmct/codelists/C96777", "title": "Version-agnostic anchor resource for codelist C96777", "type": "Root Value Domain"}], "implements": {"href": "/mdr/cdash/1-2/classes/Findings/fields/--EVALID", "title": "Evaluator Identifier", "type": "Class Variable"}, "parentDomain": {"href": "/mdr/cdashig/2-2/domains/OE", "title": "Ophthalmic Examinations", "type": "CDASH Domain"}, "parentProduct": {"href": "/mdr/cdashig/2-2", "title": "Clinical Data Acquisition Standards Harmonization Implementation Guide for Human Clinical Trials Version 2.2", "type": "Implementation Guide"}, "rootItem": {"href": "/mdr/root/cdashig/domains/OE/fields/OEEVALID", "title": "Evaluator Identifier", "type": "Root Data Element"}, "sdtmigDatasetMappingTargets": [{"href": "/mdr/sdtmig/3-3/datasets/OE/variables/OEEVALID", "title": "Evaluator Identifier", "type": "SDTM Dataset Variable"}], "self": {"href": "/mdr/cdashig/2-2/domains/OE/fields/OEEVALID", "title": "Evaluator Identifier", "type": "Data Collection Field"}}, "core": "O", "definition": "An identifier used to distinguish multiple evaluators with the same role recorded in OEEVAL.", "label": "Evaluator Identifier", "mappingInstructions": "Maps directly to the SDTM variable listed in the SDTM Target column.", "name": "OEEVALID", "ordinal": "30", "prompt": "Evaluator Identifier", "questionText": "What is the identifier of the evaluator?", "simpleDatatype": "Char"}, {"_links": {"codelist": [{"href": "/mdr/root/ct/sdtmct/codelists/C66742", "title": "Version-agnostic anchor resource for codelist C66742", "type": "Root Value Domain"}], "implements": {"href": "/mdr/cdash/1-2/classes/Findings/fields/--ACPTFL", "title": "Accepted Record Flag", "type": "Class Variable"}, "parentDomain": {"href": "/mdr/cdashig/2-2/domains/OE", "title": "Ophthalmic Examinations", "type": "CDASH Domain"}, "parentProduct": {"href": "/mdr/cdashig/2-2", "title": "Clinical Data Acquisition Standards Harmonization Implementation Guide for Human Clinical Trials Version 2.2", "type": "Implementation Guide"}, "rootItem": {"href": "/mdr/root/cdashig/domains/OE/fields/OEACPTFL", "title": "Accepted Record Flag", "type": "Root Data Element"}, "sdtmigDatasetMappingTargets": [{"href": "/mdr/sdtmig/3-3/datasets/OE/variables/OEACPTFL", "title": "Accepted Record Flag", "type": "SDTM Dataset Variable"}], "self": {"href": "/mdr/cdashig/2-2/domains/OE/fields/OEACPTFL", "title": "Accepted Record Flag", "type": "Data Collection Field"}}, "core": "O", "definition": "An indication that the evaluation is considered, by an independent assessor, to be the accepted or final evaluation.", "implementationNotes": "Used where more than 1 assessor provides an evaluation of a result or response. Typically a checkbox with the value of \"Y\" or \"NULL\", which indicates the evaluation was accepted.", "label": "Accepted Record Flag", "mappingInstructions": "Maps directly to the SDTM variable listed in the SDTM Target column.", "name": "OEACPTFL", "ordinal": "31", "prompt": "[Accepted/Final] Evaluation", "questionText": "Is this record considered to be the [accepted/final] evaluation?", "simpleDatatype": "Char"}, {"_links": {"implements": {"href": "/mdr/cdash/1-2/classes/Findings/fields/--REPNUM", "title": "Repetition Number", "type": "Class Variable"}, "parentDomain": {"href": "/mdr/cdashig/2-2/domains/OE", "title": "Ophthalmic Examinations", "type": "CDASH Domain"}, "parentProduct": {"href": "/mdr/cdashig/2-2", "title": "Clinical Data Acquisition Standards Harmonization Implementation Guide for Human Clinical Trials Version 2.2", "type": "Implementation Guide"}, "rootItem": {"href": "/mdr/root/cdashig/domains/OE/fields/OEREPNUM", "title": "Repetition Number", "type": "Root Data Element"}, "self": {"href": "/mdr/cdashig/2-2/domains/OE/fields/OEREPNUM", "title": "Repetition Number", "type": "Data Collection Field"}}, "core": "O", "definition": "The instance number of a test that is repeated within a given timeframe for the same test. The level of granularity can vary (e.g., within a time point, within a visit).", "implementationNotes": "The repetition number of the test/measurement within the time point may be pre-printed on the CRF (e.g., multiple measurements of blood pressure, multiple analyses of a sample.", "label": "Repetition Number", "mappingInstructions": "Maps directly to the SDTM variable listed in the SDTM Target column.", "name": "OEREPNUM", "ordinal": "32", "prompt": "Repetition Number", "questionText": "What was the repetition number within the time point for this measurement?", "simpleDatatype": "Char"}], "label": "Ophthalmic Examinations", "name": "OE", "ordinal": "23"}
