{"_links": {"parentClass": {"href": "/mdr/cdashig/2-2/classes/Findings", "title": "Findings", "type": "Class"}, "parentProduct": {"href": "/mdr/cdashig/2-2", "title": "Clinical Data Acquisition Standards Harmonization Implementation Guide for Human Clinical Trials Version 2.2", "type": "Implementation Guide"}, "priorVersion": {"href": "/mdr/cdashig/2-1/domains/RS", "title": "Disease Response", "type": "CDASH Domain"}, "self": {"href": "/mdr/cdashig/2-2/domains/RS", "title": "Disease Response and Clin Classification", "type": "CDASH Domain"}}, "description": "A findings domain for the assessment of disease response to therapy, or clinical classification based on published criteria. (Source: CDISC Controlled Terminology, DOMAIN, C107097, 2021-06-25)", "fields": [{"_links": {"implements": {"href": "/mdr/cdash/1-2/classes/Identifiers/fields/STUDYID", "title": "Study Identifier", "type": "Class Variable"}, "parentDomain": {"href": "/mdr/cdashig/2-2/domains/RS", "title": "Disease Response and Clin Classification", "type": "CDASH Domain"}, "parentProduct": {"href": "/mdr/cdashig/2-2", "title": "Clinical Data Acquisition Standards Harmonization Implementation Guide for Human Clinical Trials Version 2.2", "type": "Implementation Guide"}, "priorVersion": {"href": "/mdr/cdashig/2-1/domains/RS/fields/STUDYID", "title": "Study Identifier", "type": "Data Collection Field"}, "rootItem": {"href": "/mdr/root/cdashig/domains/RS/fields/STUDYID", "title": "Study Identifier", "type": "Root Data Element"}, "sdtmigDatasetMappingTargets": [{"href": "/mdr/sdtmig/3-3/datasets/RS/variables/STUDYID", "title": "Study Identifier", "type": "SDTM Dataset Variable"}], "self": {"href": "/mdr/cdashig/2-2/domains/RS/fields/STUDYID", "title": "Study Identifier", "type": "Data Collection Field"}}, "core": "HR", "definition": "A unique identifier for a study.", "implementationNotes": "Although this field is not typically captured on a CRF, it should be displayed clearly on the CRF and/or in the EDC system. This field can be included in the database or populated during SDTM-based dataset creation before submission.", "label": "Study Identifier", "mappingInstructions": "Maps directly to the SDTMIG variable listed in the SDTMIG Target column.", "name": "STUDYID", "ordinal": "1", "prompt": "[Protocol/Study]", "questionText": "What is the study identifier?", "simpleDatatype": "Char"}, {"_links": {"implements": {"href": "/mdr/cdash/1-2/classes/Identifiers/fields/SITEID", "title": "Study Site Identifier", "type": "Class Variable"}, "parentDomain": {"href": "/mdr/cdashig/2-2/domains/RS", "title": "Disease Response and Clin Classification", "type": "CDASH Domain"}, "parentProduct": {"href": "/mdr/cdashig/2-2", "title": "Clinical Data Acquisition Standards Harmonization Implementation Guide for Human Clinical Trials Version 2.2", "type": "Implementation Guide"}, "priorVersion": {"href": "/mdr/cdashig/2-1/domains/RS/fields/SITEID", "title": "Study Site Identifier", "type": "Data Collection Field"}, "rootItem": {"href": "/mdr/root/cdashig/domains/RS/fields/SITEID", "title": "Study Site Identifier", "type": "Root Data Element"}, "sdtmigDatasetMappingTargets": [{"href": "/mdr/sdtmig/3-3/datasets/DM/variables/SITEID", "title": "Study Site Identifier", "type": "SDTM Dataset Variable"}], "self": {"href": "/mdr/cdashig/2-2/domains/RS/fields/SITEID", "title": "Study Site Identifier", "type": "Data Collection Field"}}, "core": "HR", "definition": "A unique identifier for a site within a study.", "implementationNotes": "Paper: This is typically pre-printed in the header of each CRF page for single-site studies. For studies with multiple sites, this field may be left blank so that the number can be recorded by the site, or it may be pre-printed on the CRFs that are shipped to each site. \\n EDC: This should be pre-populated.", "label": "Study Site Identifier", "mappingInstructions": "Maps directly to the SDTMIG variable listed in the SDTMIG Target column.", "name": "SITEID", "ordinal": "2", "prompt": "Site (Identifier)", "questionText": "What is the site identifier?", "simpleDatatype": "Char"}, {"_links": {"implements": {"href": "/mdr/cdash/1-2/classes/Identifiers/fields/SUBJID", "title": "Subject Identifier for the Study", "type": "Class Variable"}, "parentDomain": {"href": "/mdr/cdashig/2-2/domains/RS", "title": "Disease Response and Clin Classification", "type": "CDASH Domain"}, "parentProduct": {"href": "/mdr/cdashig/2-2", "title": "Clinical Data Acquisition Standards Harmonization Implementation Guide for Human Clinical Trials Version 2.2", "type": "Implementation Guide"}, "priorVersion": {"href": "/mdr/cdashig/2-1/domains/RS/fields/SUBJID", "title": "Subject Identifier for the Study", "type": "Data Collection Field"}, "rootItem": {"href": "/mdr/root/cdashig/domains/RS/fields/SUBJID", "title": "Subject Identifier for the Study", "type": "Root Data Element"}, "sdtmigDatasetMappingTargets": [{"href": "/mdr/sdtmig/3-3/datasets/DM/variables/SUBJID", "title": "Subject Identifier for the Study", "type": "SDTM Dataset Variable"}], "self": {"href": "/mdr/cdashig/2-2/domains/RS/fields/SUBJID", "title": "Subject Identifier for the Study", "type": "Data Collection Field"}}, "completionInstructions": "Record the identifier for the subject.", "core": "HR", "definition": "A unique subject identifier within a site and a study.", "implementationNotes": "Paper: This is typically recorded in the header of each CRF page. EDC: The subject identifiers may be system-generated. This CDASH variable is typically collected in all CDASH domains. However, this CDASH variable is populated only in the SDTMIG DM domain. For more information, refer to the SDTMIG.", "label": "Subject Identifier for the Study", "mappingInstructions": "Maps directly to the SDTMIG variable listed in the SDTMIG Target column.", "name": "SUBJID", "ordinal": "3", "prompt": "[Subject/Participant] (Identifier)", "questionText": "What [is/was] the (study) [subject/participant] identifier?", "simpleDatatype": "Char"}, {"_links": {"implements": {"href": "/mdr/cdash/1-2/classes/Timing/fields/VISIT", "title": "Visit Name", "type": "Class Variable"}, "parentDomain": {"href": "/mdr/cdashig/2-2/domains/RS", "title": "Disease Response and Clin Classification", "type": "CDASH Domain"}, "parentProduct": {"href": "/mdr/cdashig/2-2", "title": "Clinical Data Acquisition Standards Harmonization Implementation Guide for Human Clinical Trials Version 2.2", "type": "Implementation Guide"}, "priorVersion": {"href": "/mdr/cdashig/2-1/domains/RS/fields/VISIT", "title": "Visit Name", "type": "Data Collection Field"}, "rootItem": {"href": "/mdr/root/cdashig/domains/RS/fields/VISIT", "title": "Visit Name", "type": "Root Data Element"}, "sdtmigDatasetMappingTargets": [{"href": "/mdr/sdtmig/3-3/datasets/RS/variables/VISIT", "title": "Visit Name", "type": "SDTM Dataset Variable"}], "self": {"href": "/mdr/cdashig/2-2/domains/RS/fields/VISIT", "title": "Visit Name", "type": "Data Collection Field"}}, "core": "R/C", "definition": "The name of a clinical encounter that encompasses planned and unplanned trial interventions, procedures, and assessments that may be performed on a subject.", "implementationNotes": "The name of the clinical encounter is typically pre-printed on the CRF or displayed within the EDC for any visit-based data collection, most often in Findings domains. This Visit text description is then available in any EDC data extract for that Findings domain.", "label": "Visit Name", "mappingInstructions": "Maps directly to the SDTMIG variable listed in the SDTMIG Target column.", "name": "VISIT", "ordinal": "4", "prompt": "[Visit]", "questionText": "What is the visit name?", "simpleDatatype": "Char"}, {"_links": {"implements": {"href": "/mdr/cdash/1-2/classes/Timing/fields/VISDAT", "title": "Visit Date", "type": "Class Variable"}, "parentDomain": {"href": "/mdr/cdashig/2-2/domains/RS", "title": "Disease Response and Clin Classification", "type": "CDASH Domain"}, "parentProduct": {"href": "/mdr/cdashig/2-2", "title": "Clinical Data Acquisition Standards Harmonization Implementation Guide for Human Clinical Trials Version 2.2", "type": "Implementation Guide"}, "priorVersion": {"href": "/mdr/cdashig/2-1/domains/RS/fields/VISDAT", "title": "Visit Date", "type": "Data Collection Field"}, "rootItem": {"href": "/mdr/root/cdashig/domains/RS/fields/VISDAT", "title": "Visit Date", "type": "Root Data Element"}, "self": {"href": "/mdr/cdashig/2-2/domains/RS/fields/VISDAT", "title": "Visit Date", "type": "Data Collection Field"}}, "completionInstructions": "Record the [date/start date] of the visit using this format (DD-MON-YYYY).", "core": "R/C", "definition": "Date the clinical encounter occurred (or started).", "implementationNotes": "If the date the tests were collected can be determined from the visit date variable (VISDAT), apply that date to all of the tests at that visit, or the collection date can be collected on the CRF using the date (RSDAT). In this domain, it may not be appropriate to use the visit date as RSDTC.", "label": "Visit Date", "mappingInstructions": "This field is not an SDTM variable. If the date of a measurement, test, observation can be determined from the date/time of visit (VISDAT/VISTIM), concatenate the CDASH VISDAT/VISTIM components and populate the SDTMIG variable RSDTC in ISO 8601 format.", "name": "VISDAT", "ordinal": "5", "prompt": "(Visit) Date", "questionText": "What [is/was] the date of the visit?", "simpleDatatype": "Char"}, {"_links": {"codelist": [{"href": "/mdr/root/ct/sdtmct/codelists/C118971", "title": "Version-agnostic anchor resource for codelist C118971", "type": "Root Value Domain"}, {"href": "/mdr/root/ct/sdtmct/codelists/C124298", "title": "Version-agnostic anchor resource for codelist C124298", "type": "Root Value Domain"}], "implements": {"href": "/mdr/cdash/1-2/classes/Findings/fields/--CAT", "title": "Category", "type": "Class Variable"}, "parentDomain": {"href": "/mdr/cdashig/2-2/domains/RS", "title": "Disease Response and Clin Classification", "type": "CDASH Domain"}, "parentProduct": {"href": "/mdr/cdashig/2-2", "title": "Clinical Data Acquisition Standards Harmonization Implementation Guide for Human Clinical Trials Version 2.2", "type": "Implementation Guide"}, "priorVersion": {"href": "/mdr/cdashig/2-1/domains/RS/fields/RSCAT", "title": "Category for Response or Clin Class", "type": "Data Collection Field"}, "rootItem": {"href": "/mdr/root/cdashig/domains/RS/fields/RSCAT", "title": "Category for Response or Clin Class", "type": "Root Data Element"}, "sdtmigDatasetMappingTargets": [{"href": "/mdr/sdtmig/3-3/datasets/RS/variables/RSCAT", "title": "Category for Assessment", "type": "SDTM Dataset Variable"}], "self": {"href": "/mdr/cdashig/2-2/domains/RS/fields/RSCAT", "title": "Category for Response or Clin Class", "type": "Data Collection Field"}}, "core": "R/C", "definition": "A grouping of topic-variable values based on user-defined characteristics.", "implementationNotes": "This is most commonly either a heading or a pre-printed category value on the CRF, not a question to which the site would provide an answer. If a question is asked, the response is typically a sponsor-defined codelist. If the form is laid out as a grid, then words such as \"Category\" can be included in the column heading. There are separate codelists used for categorizing records about oncology response criteria (ONCRCAT) or other clinical classification (CRSCAT). Collect if multiple clinical classifications, or disease responses are active in a single study/database; otherwise, information should be distinguished somewhere on a form (e.g., table name, title, tab).", "label": "Category for Response or Clin Class", "mappingInstructions": "Maps directly to the SDTMIG variable listed in the SDTMIG Target column.", "name": "RSCAT", "ordinal": "6", "prompt": "[Disease Response/Clinical Classification Category]; NULL", "questionText": "What is the [category/ criteria] for the [disease response/clinical classification] or What is the [response/clinical classification] criteria?", "simpleDatatype": "Char"}, {"_links": {"implements": {"href": "/mdr/cdash/1-2/classes/Findings/fields/--SCAT", "title": "Subcategory", "type": "Class Variable"}, "parentDomain": {"href": "/mdr/cdashig/2-2/domains/RS", "title": "Disease Response and Clin Classification", "type": "CDASH Domain"}, "parentProduct": {"href": "/mdr/cdashig/2-2", "title": "Clinical Data Acquisition Standards Harmonization Implementation Guide for Human Clinical Trials Version 2.2", "type": "Implementation Guide"}, "priorVersion": {"href": "/mdr/cdashig/2-1/domains/RS/fields/RSSCAT", "title": "Subcategory for Response or Clin Class", "type": "Data Collection Field"}, "rootItem": {"href": "/mdr/root/cdashig/domains/RS/fields/RSSCAT", "title": "Subcategory for Response or Clin Class", "type": "Root Data Element"}, "sdtmigDatasetMappingTargets": [{"href": "/mdr/sdtmig/3-3/datasets/RS/variables/RSSCAT", "title": "Subcategory", "type": "SDTM Dataset Variable"}], "self": {"href": "/mdr/cdashig/2-2/domains/RS/fields/RSSCAT", "title": "Subcategory for Response or Clin Class", "type": "Data Collection Field"}}, "core": "R/C", "definition": "A sub-division of the RSCAT values based on user-defined characteristics.", "implementationNotes": "Sponsor-defined controlled terminology. This would most commonly be pre-printed on the CRF or screen and pre-populated in the data management system. This is not typically a question to which the site would provide an answer. RSSCAT can only be used if there is an RSCAT, and it must be a subcategorization of RSCAT.", "label": "Subcategory for Response or Clin Class", "mappingInstructions": "Maps directly to the SDTMIG variable listed in the SDTMIG Target column.", "name": "RSSCAT", "ordinal": "7", "prompt": "[Disease Response/Clinical Classification Sub-Category]; NULL", "questionText": "What is the subcategory for the [disease response/clinical classification]?", "simpleDatatype": "Char"}, {"_links": {"codelist": [{"href": "/mdr/root/ct/sdtmct/codelists/C66742", "title": "Version-agnostic anchor resource for codelist C66742", "type": "Root Value Domain"}], "implements": {"href": "/mdr/cdash/1-2/classes/Findings/fields/--PERF", "title": "[Observation] Performed", "type": "Class Variable"}, "parentDomain": {"href": "/mdr/cdashig/2-2/domains/RS", "title": "Disease Response and Clin Classification", "type": "CDASH Domain"}, "parentProduct": {"href": "/mdr/cdashig/2-2", "title": "Clinical Data Acquisition Standards Harmonization Implementation Guide for Human Clinical Trials Version 2.2", "type": "Implementation Guide"}, "priorVersion": {"href": "/mdr/cdashig/2-1/domains/RS/fields/RSPERF", "title": "Response or Clin Class Performed", "type": "Data Collection Field"}, "rootItem": {"href": "/mdr/root/cdashig/domains/RS/fields/RSPERF", "title": "Response or Clin Class Performed", "type": "Root Data Element"}, "sdtmigDatasetMappingTargets": [{"href": "/mdr/sdtmig/3-3/datasets/RS/variables/RSSTAT", "title": "Completion Status", "type": "SDTM Dataset Variable"}], "self": {"href": "/mdr/cdashig/2-2/domains/RS/fields/RSPERF", "title": "Response or Clin Class Performed", "type": "Data Collection Field"}}, "completionInstructions": "Indicate whether or not the [disease response/clinical classification] assessment was performed.", "core": "O", "definition": "An indication of whether a planned disease response or clinical classification assessment was performed.", "implementationNotes": "A Not Done checkbox, which indicates the test was \"NOT DONE\". Typically, there would be 1 check box for each measurement. This field can be useful to confirm that a blank result field is meant to be blank.", "label": "Response or Clin Class Performed", "mappingInstructions": "This does not map directly to an SDTMIG variable. May be used to derive a value into the SDTMIG variable RSSTAT. If RSPERF=\"N\", the value of RSSTAT will be \"NOT DONE\". If RSPERF=\"Y\", RSSTAT should be null. A combination of SDTMIG variables ( e.g., RSCAT and RSSCAT, RSTPT) is used to indicate that multiple tests were not done. In this situation, the SDTMIG variable RSTESTCD would be populated as RSALL and an appropriate test name (RSTEST) provided. See SDTMIG for additional information.", "name": "RSPERF", "ordinal": "8", "prompt": "[Disease Response/Clinical Classification] Assessment", "questionText": "Was the [(disease) response/clinical classification] assessment performed?", "simpleDatatype": "Char"}, {"_links": {"implements": {"href": "/mdr/cdash/1-2/classes/Findings/fields/--REASND", "title": "Reason Not Done", "type": "Class Variable"}, "parentDomain": {"href": "/mdr/cdashig/2-2/domains/RS", "title": "Disease Response and Clin Classification", "type": "CDASH Domain"}, "parentProduct": {"href": "/mdr/cdashig/2-2", "title": "Clinical Data Acquisition Standards Harmonization Implementation Guide for Human Clinical Trials Version 2.2", "type": "Implementation Guide"}, "priorVersion": {"href": "/mdr/cdashig/2-1/domains/RS/fields/RSREASND", "title": "Response or Clin Class Reason Not Done", "type": "Data Collection Field"}, "rootItem": {"href": "/mdr/root/cdashig/domains/RS/fields/RSREASND", "title": "Response or Clin Class Reason Not Done", "type": "Root Data Element"}, "sdtmigDatasetMappingTargets": [{"href": "/mdr/sdtmig/3-3/datasets/RS/variables/RSREASND", "title": "Reason Not Done", "type": "SDTM Dataset Variable"}], "self": {"href": "/mdr/cdashig/2-2/domains/RS/fields/RSREASND", "title": "Response or Clin Class Reason Not Done", "type": "Data Collection Field"}}, "completionInstructions": "If the response was not collected, indicate why.", "core": "O", "definition": "An explanation of why the data are not available.", "implementationNotes": "The reason that data are not available may be chosen from a sponsor-defined list (e.g., Not Imaged, Patient Refusal, Site Error) or entered as free text. When RSREASND is used, the SDTMIG variable RSSTAT should also be populated in the SDTM-based dataset.", "label": "Response or Clin Class Reason Not Done", "mappingInstructions": "Maps directly to the SDTMIG variable listed in the SDTMIG Target column.", "name": "RSREASND", "ordinal": "9", "prompt": "Reason Response Assessment Not Performed", "questionText": "Why was the [disease response/clinical classification] assessment not performed?", "simpleDatatype": "Char"}, {"_links": {"implements": {"href": "/mdr/cdash/1-2/classes/Timing/fields/--DAT", "title": "Collection Date", "type": "Class Variable"}, "parentDomain": {"href": "/mdr/cdashig/2-2/domains/RS", "title": "Disease Response and Clin Classification", "type": "CDASH Domain"}, "parentProduct": {"href": "/mdr/cdashig/2-2", "title": "Clinical Data Acquisition Standards Harmonization Implementation Guide for Human Clinical Trials Version 2.2", "type": "Implementation Guide"}, "rootItem": {"href": "/mdr/root/cdashig/domains/RS/fields/RSDAT", "title": "Response or Clin Class Assessment Date", "type": "Root Data Element"}, "self": {"href": "/mdr/cdashig/2-2/domains/RS/fields/RSDAT", "title": "Response or Clin Class Assessment Date", "type": "Data Collection Field"}}, "completionInstructions": "Record the date of measurements using this format (DD-MON-YYYY).", "core": "R/C", "definition": "The date of the Response or Clin Class was performed, represented in an unambiguous date format (e.g., DD-MON-YYYY).", "implementationNotes": "The date the measurements were collected can be determined from the visit date variable (VISDAT) and applying that date to all of the observations at that visit, or the collection date can be included on the RS CRF using the Date of Collection (RSDAT) field.", "label": "Response or Clin Class Assessment Date", "mappingInstructions": "This field does not map directly to an SDTM variable. For the SDTM submission dataset, concatenate all collected CDASH DATE and TIME components and populate the SDTM variable RSDTC in ISO 8601 format.", "name": "RSDAT", "ordinal": "10", "prompt": "Date", "questionText": "What was the date the response or clinical classification was performed?", "simpleDatatype": "Char"}, {"_links": {"codelist": [{"href": "/mdr/root/ct/sdtmct/codelists/C78735", "title": "Version-agnostic anchor resource for codelist C78735", "type": "Root Value Domain"}], "implements": {"href": "/mdr/cdash/1-2/classes/Findings/fields/--EVAL", "title": "Evaluator", "type": "Class Variable"}, "parentDomain": {"href": "/mdr/cdashig/2-2/domains/RS", "title": "Disease Response and Clin Classification", "type": "CDASH Domain"}, "parentProduct": {"href": "/mdr/cdashig/2-2", "title": "Clinical Data Acquisition Standards Harmonization Implementation Guide for Human Clinical Trials Version 2.2", "type": "Implementation Guide"}, "priorVersion": {"href": "/mdr/cdashig/2-1/domains/RS/fields/RSEVAL", "title": "Response or Clin Class Evaluator", "type": "Data Collection Field"}, "rootItem": {"href": "/mdr/root/cdashig/domains/RS/fields/RSEVAL", "title": "Response or Clin Class Evaluator", "type": "Root Data Element"}, "sdtmigDatasetMappingTargets": [{"href": "/mdr/sdtmig/3-3/datasets/RS/variables/RSEVAL", "title": "Evaluator", "type": "SDTM Dataset Variable"}], "self": {"href": "/mdr/cdashig/2-2/domains/RS/fields/RSEVAL", "title": "Response or Clin Class Evaluator", "type": "Data Collection Field"}}, "completionInstructions": "Indicate who performed the assessment.", "core": "R/C", "definition": "The role of the person who provided the information.", "implementationNotes": "Used only for results that are subjective (assigned by a person or a group). RSEVAL is expected for oncology response criteria. It can be null when the investigator provides all the data in a study. It should contain no null values when data from 1 or more evaluator are used in a study.", "label": "Response or Clin Class Evaluator", "mappingInstructions": "Maps directly to the SDTMIG variable listed in the SDTMIG Target column.", "name": "RSEVAL", "ordinal": "11", "prompt": "Evaluator", "questionText": "What was the role of the person performing the [disease response/clinical classification] assessment?", "simpleDatatype": "Char"}, {"_links": {"codelist": [{"href": "/mdr/root/ct/sdtmct/codelists/C96777", "title": "Version-agnostic anchor resource for codelist C96777", "type": "Root Value Domain"}], "implements": {"href": "/mdr/cdash/1-2/classes/Findings/fields/--EVALID", "title": "Evaluator Identifier", "type": "Class Variable"}, "parentDomain": {"href": "/mdr/cdashig/2-2/domains/RS", "title": "Disease Response and Clin Classification", "type": "CDASH Domain"}, "parentProduct": {"href": "/mdr/cdashig/2-2", "title": "Clinical Data Acquisition Standards Harmonization Implementation Guide for Human Clinical Trials Version 2.2", "type": "Implementation Guide"}, "priorVersion": {"href": "/mdr/cdashig/2-1/domains/RS/fields/RSEVALID", "title": "Response or Clin Class Evaluator ID", "type": "Data Collection Field"}, "rootItem": {"href": "/mdr/root/cdashig/domains/RS/fields/RSEVALID", "title": "Response or Clin Class Evaluator ID", "type": "Root Data Element"}, "sdtmigDatasetMappingTargets": [{"href": "/mdr/sdtmig/3-3/datasets/RS/variables/RSEVALID", "title": "Evaluator Identifier", "type": "SDTM Dataset Variable"}], "self": {"href": "/mdr/cdashig/2-2/domains/RS/fields/RSEVALID", "title": "Response or Clin Class Evaluator ID", "type": "Data Collection Field"}}, "completionInstructions": "Identify the evaluator providing this evaluation.", "core": "O", "definition": "Used to distinguish multiple evaluators with the same role.", "implementationNotes": "When multiple assessors play the role identified in RSEVAL, values of RSEVALID will attribute a row of data to a particular assessor.", "label": "Response or Clin Class Evaluator ID", "mappingInstructions": "Maps directly to the SDTMIG variable listed in the SDTMIG Target column.", "name": "RSEVALID", "ordinal": "12", "prompt": "Evaluator Identifier", "questionText": "What is the evaluator identifier?", "simpleDatatype": "Char"}, {"_links": {"implements": {"href": "/mdr/cdash/1-2/classes/Identifiers/fields/--LNKID", "title": "Link ID", "type": "Class Variable"}, "parentDomain": {"href": "/mdr/cdashig/2-2/domains/RS", "title": "Disease Response and Clin Classification", "type": "CDASH Domain"}, "parentProduct": {"href": "/mdr/cdashig/2-2", "title": "Clinical Data Acquisition Standards Harmonization Implementation Guide for Human Clinical Trials Version 2.2", "type": "Implementation Guide"}, "priorVersion": {"href": "/mdr/cdashig/2-1/domains/RS/fields/RSLNKID", "title": "Response or Clin Class Link ID", "type": "Data Collection Field"}, "rootItem": {"href": "/mdr/root/cdashig/domains/RS/fields/RSLNKID", "title": "Response or Clin Class Link ID", "type": "Root Data Element"}, "sdtmigDatasetMappingTargets": [{"href": "/mdr/sdtmig/3-3/datasets/RS/variables/RSLNKID", "title": "Link ID", "type": "SDTM Dataset Variable"}], "self": {"href": "/mdr/cdashig/2-2/domains/RS/fields/RSLNKID", "title": "Response or Clin Class Link ID", "type": "Data Collection Field"}}, "completionInstructions": "If collected, record the unique [Disease Response or Clinical Classification] Link ID.", "core": "O", "definition": "An identifier used to link the disease response assessment to the related record in another domain which was used to determine the response result.", "implementationNotes": "This variable is used to provide a unique code in order to link records across related CRFs (e.g., RS and TR) when appropriate. Sponsors develop their own conventions for populating RSLNKID.", "label": "Response or Clin Class Link ID", "mappingInstructions": "Maps directly to the SDTMIG variable listed in the SDTMIG Target column.", "name": "RSLNKID", "ordinal": "13", "prompt": "[Disease Response or Clinical Classification ]Link ID", "questionText": "What was the [Disease Response or Clinical Classification ]Link ID Identifier?", "simpleDatatype": "Char"}, {"_links": {"implements": {"href": "/mdr/cdash/1-2/classes/Identifiers/fields/--LNKGRP", "title": "Link Group ID", "type": "Class Variable"}, "parentDomain": {"href": "/mdr/cdashig/2-2/domains/RS", "title": "Disease Response and Clin Classification", "type": "CDASH Domain"}, "parentProduct": {"href": "/mdr/cdashig/2-2", "title": "Clinical Data Acquisition Standards Harmonization Implementation Guide for Human Clinical Trials Version 2.2", "type": "Implementation Guide"}, "priorVersion": {"href": "/mdr/cdashig/2-1/domains/RS/fields/RSLNKGRP", "title": "Response or Clin Class Link Group", "type": "Data Collection Field"}, "rootItem": {"href": "/mdr/root/cdashig/domains/RS/fields/RSLNKGRP", "title": "Response or Clin Class Link Group", "type": "Root Data Element"}, "sdtmigDatasetMappingTargets": [{"href": "/mdr/sdtmig/3-3/datasets/RS/variables/RSLNKGRP", "title": "Link Group ID", "type": "SDTM Dataset Variable"}], "self": {"href": "/mdr/cdashig/2-2/domains/RS/fields/RSLNKGRP", "title": "Response or Clin Class Link Group", "type": "Data Collection Field"}}, "completionInstructions": "If collected, record the unique [Disease Response or Clinical Classification] Link Group ID.", "core": "O", "definition": "A grouping identifier used to link the disease response assessment to a group of related record in another domain which was used to determine the response result.", "implementationNotes": "This variable is used to provide a unique code in order to link a group of records across related CRFs (e.g., RS and TR) when appropriate. Sponsors develop their own conventions for populating RSLNKGRP.", "label": "Response or Clin Class Link Group", "mappingInstructions": "Maps directly to the SDTMIG variable listed in the SDTMIG Target column.", "name": "RSLNKGRP", "ordinal": "14", "prompt": "[Disease Response or Clinical Classification ]Link Group", "questionText": "What was the [Disease Response or Clinical Classification] Link Group Identifier?", "simpleDatatype": "Char"}, {"_links": {"codelist": [{"href": "/mdr/root/ct/sdtmct/codelists/C96781", "title": "Version-agnostic anchor resource for codelist C96781", "type": "Root Value Domain"}], "implements": {"href": "/mdr/cdash/1-2/classes/Findings/fields/--TEST", "title": "Name of Measurement, Test, or Exam", "type": "Class Variable"}, "parentDomain": {"href": "/mdr/cdashig/2-2/domains/RS", "title": "Disease Response and Clin Classification", "type": "CDASH Domain"}, "parentProduct": {"href": "/mdr/cdashig/2-2", "title": "Clinical Data Acquisition Standards Harmonization Implementation Guide for Human Clinical Trials Version 2.2", "type": "Implementation Guide"}, "priorVersion": {"href": "/mdr/cdashig/2-1/domains/RS/fields/RSTEST", "title": "Response or Clin Class Assessment Name", "type": "Data Collection Field"}, "rootItem": {"href": "/mdr/root/cdashig/domains/RS/fields/RSTEST", "title": "Response or Clin Class Assessment Name", "type": "Root Data Element"}, "sdtmigDatasetMappingTargets": [{"href": "/mdr/sdtmig/3-3/datasets/RS/variables/RSTEST", "title": "Assessment Name", "type": "SDTM Dataset Variable"}, {"href": "/mdr/sdtmig/3-3/datasets/RS/variables/RSTESTCD", "title": "Assessment Short Name", "type": "SDTM Dataset Variable"}], "self": {"href": "/mdr/cdashig/2-2/domains/RS/fields/RSTEST", "title": "Response or Clin Class Assessment Name", "type": "Data Collection Field"}}, "completionInstructions": "Record the name of the RS test, if not pre-printed on the CRF. If collected on the CRF, the sponsor may provide additional instructions to ensure the data is entered as intended.", "core": "HR", "definition": "Descriptive name of the disease response or clinical classification used to obtain the measurement or finding.", "implementationNotes": "Required to identify which test the result is for. It is recommended that the test names be pre-printed on the CRF rather than collected in a free-text field. If the form is laid out as a grid, then words such as \"Test\" can be included in the column heading.", "label": "Response or Clin Class Assessment Name", "mappingInstructions": "Maps directly to the SDTMIG variable listed in the SDTMIG Target column. The SDTMIG variable RSTESTCD may be determined from the value collected in RSTEST. The SDTMIG variables RSTESTCD and RSTEST are required in the SDTM submission datasets. Use appropriate CDISC Controlled Terminology for the test and test code.", "name": "RSTEST", "ordinal": "15", "prompt": "[Disease Response / Clinical Classification Test Name]", "questionText": "What was the [disease response/clinical classification] test name?", "simpleDatatype": "Char"}, {"_links": {"implements": {"href": "/mdr/cdash/1-2/classes/Findings/fields/--ORRES", "title": "Result or Finding in Original Units", "type": "Class Variable"}, "parentDomain": {"href": "/mdr/cdashig/2-2/domains/RS", "title": "Disease Response and Clin Classification", "type": "CDASH Domain"}, "parentProduct": {"href": "/mdr/cdashig/2-2", "title": "Clinical Data Acquisition Standards Harmonization Implementation Guide for Human Clinical Trials Version 2.2", "type": "Implementation Guide"}, "priorVersion": {"href": "/mdr/cdashig/2-1/domains/RS/fields/RSORRES", "title": "Response or Clin Class Original Result", "type": "Data Collection Field"}, "rootItem": {"href": "/mdr/root/cdashig/domains/RS/fields/RSORRES", "title": "Response or Clin Class Original Result", "type": "Root Data Element"}, "sdtmigDatasetMappingTargets": [{"href": "/mdr/sdtmig/3-3/datasets/RS/variables/RSORRES", "title": "Result or Finding in Original Units", "type": "SDTM Dataset Variable"}], "self": {"href": "/mdr/cdashig/2-2/domains/RS/fields/RSORRES", "title": "Response or Clin Class Original Result", "type": "Data Collection Field"}}, "completionInstructions": "Indicate the response classification.", "core": "HR", "definition": "Result of the disease response or clinical classification as originally received, collected, or calculated.", "implementationNotes": "Both quantitative results and interpretive findings or summaries may be recorded here.", "label": "Response or Clin Class Original Result", "mappingInstructions": "Maps directly to the SDTMIG variable listed in the SDTMIG Target column.", "name": "RSORRES", "ordinal": "16", "prompt": "(Result)", "questionText": "What was the [disease response/clinical classification]?", "simpleDatatype": "Char"}, {"_links": {"codelist": [{"href": "/mdr/root/ct/sdtmct/codelists/C71620", "title": "Version-agnostic anchor resource for codelist C71620", "type": "Root Value Domain"}], "implements": {"href": "/mdr/cdash/1-2/classes/Findings/fields/--ORRESU", "title": "Original Units", "type": "Class Variable"}, "parentDomain": {"href": "/mdr/cdashig/2-2/domains/RS", "title": "Disease Response and Clin Classification", "type": "CDASH Domain"}, "parentProduct": {"href": "/mdr/cdashig/2-2", "title": "Clinical Data Acquisition Standards Harmonization Implementation Guide for Human Clinical Trials Version 2.2", "type": "Implementation Guide"}, "priorVersion": {"href": "/mdr/cdashig/2-1/domains/RS/fields/RSORRESU", "title": "Response or Clin Class Original Units", "type": "Data Collection Field"}, "rootItem": {"href": "/mdr/root/cdashig/domains/RS/fields/RSORRESU", "title": "Response or Clin Class Original Units", "type": "Root Data Element"}, "sdtmigDatasetMappingTargets": [{"href": "/mdr/sdtmig/3-3/datasets/RS/variables/RSORRESU", "title": "Original Units", "type": "SDTM Dataset Variable"}], "self": {"href": "/mdr/cdashig/2-2/domains/RS/fields/RSORRESU", "title": "Response or Clin Class Original Units", "type": "Data Collection Field"}}, "completionInstructions": "Record or select the original units in which these data were collected, if not pre-printed on CRF.", "core": "HR", "definition": "The unit of the result as originally received or collected.", "implementationNotes": "Should be pre-printed on the CRF with the associated test when possible, rather than collected in a free-text field. Should be included if applicable and not available elsewhere.", "label": "Response or Clin Class Original Units", "mappingInstructions": "Maps directly to the SDTMIG variable listed in the SDTMIG Target column.", "name": "RSORRESU", "ordinal": "17", "prompt": "Unit", "questionText": "What was the [disease response/clinical classification] unit?", "simpleDatatype": "Char"}], "label": "Disease Response and Clin Classification", "name": "RS", "ordinal": "29"}
