{"_links": {"parentClass": {"href": "/mdr/cdashig/2-2/classes/Findings", "title": "Findings", "type": "Class"}, "parentProduct": {"href": "/mdr/cdashig/2-2", "title": "Clinical Data Acquisition Standards Harmonization Implementation Guide for Human Clinical Trials Version 2.2", "type": "Implementation Guide"}, "priorVersion": {"href": "/mdr/cdashig/2-1/domains/SC", "title": "Subject Characteristics", "type": "CDASH Domain"}, "scenarios": [{"href": "/mdr/cdashig/2-2/scenarios/SC.HorizontalGeneric", "title": "Horizontal-Generic", "type": "CDASH Scenario"}], "self": {"href": "/mdr/cdashig/2-2/domains/SC", "title": "Subject Characteristics", "type": "CDASH Domain"}}, "description": "A findings domain that contains subject-related data not collected in other domains. (Source: CDISC Controlled Terminology, DOMAIN, C49610, 2021-06-25)", "fields": [{"_links": {"implements": {"href": "/mdr/cdash/1-2/classes/Identifiers/fields/STUDYID", "title": "Study Identifier", "type": "Class Variable"}, "parentDomain": {"href": "/mdr/cdashig/2-2/domains/SC", "title": "Subject Characteristics", "type": "CDASH Domain"}, "parentProduct": {"href": "/mdr/cdashig/2-2", "title": "Clinical Data Acquisition Standards Harmonization Implementation Guide for Human Clinical Trials Version 2.2", "type": "Implementation Guide"}, "priorVersion": {"href": "/mdr/cdashig/2-1/domains/SC/fields/STUDYID", "title": "Study Identifier", "type": "Data Collection Field"}, "rootItem": {"href": "/mdr/root/cdashig/domains/SC/fields/STUDYID", "title": "Study Identifier", "type": "Root Data Element"}, "sdtmigDatasetMappingTargets": [{"href": "/mdr/sdtmig/3-3/datasets/SC/variables/STUDYID", "title": "Study Identifier", "type": "SDTM Dataset Variable"}], "self": {"href": "/mdr/cdashig/2-2/domains/SC/fields/STUDYID", "title": "Study Identifier", "type": "Data Collection Field"}}, "core": "HR", "definition": "A unique identifier for a study.", "implementationNotes": "Although this field is not typically captured on a CRF, it should be displayed clearly on the CRF and/or in the EDC system. This field can be included in the database or populated during SDTM-based dataset creation before submission.", "label": "Study Identifier", "mappingInstructions": "Maps directly to the SDTMIG variable listed in the SDTMIG Target column.", "name": "STUDYID", "ordinal": "1", "prompt": "[Protocol/Study]", "questionText": "What is the study identifier?", "simpleDatatype": "Char"}, {"_links": {"implements": {"href": "/mdr/cdash/1-2/classes/Identifiers/fields/SITEID", "title": "Study Site Identifier", "type": "Class Variable"}, "parentDomain": {"href": "/mdr/cdashig/2-2/domains/SC", "title": "Subject Characteristics", "type": "CDASH Domain"}, "parentProduct": {"href": "/mdr/cdashig/2-2", "title": "Clinical Data Acquisition Standards Harmonization Implementation Guide for Human Clinical Trials Version 2.2", "type": "Implementation Guide"}, "priorVersion": {"href": "/mdr/cdashig/2-1/domains/SC/fields/SITEID", "title": "Study Site Identifier", "type": "Data Collection Field"}, "rootItem": {"href": "/mdr/root/cdashig/domains/SC/fields/SITEID", "title": "Study Site Identifier", "type": "Root Data Element"}, "sdtmigDatasetMappingTargets": [{"href": "/mdr/sdtmig/3-3/datasets/DM/variables/SITEID", "title": "Study Site Identifier", "type": "SDTM Dataset Variable"}], "self": {"href": "/mdr/cdashig/2-2/domains/SC/fields/SITEID", "title": "Study Site Identifier", "type": "Data Collection Field"}}, "core": "HR", "definition": "A unique identifier for a site within a study.", "implementationNotes": "Paper: This is typically pre-printed in the header of each CRF page for single-site studies. For studies with multiple sites, this field may be left blank so that the number can be recorded by the site, or it may be pre-printed on the CRFs that are shipped to each site. \\n EDC: This should be pre-populated.", "label": "Study Site Identifier", "mappingInstructions": "Maps directly to the SDTMIG variable listed in the SDTMIG Target column.", "name": "SITEID", "ordinal": "2", "prompt": "Site (Identifier)", "questionText": "What is the site identifier?", "simpleDatatype": "Char"}, {"_links": {"implements": {"href": "/mdr/cdash/1-2/classes/Identifiers/fields/SUBJID", "title": "Subject Identifier for the Study", "type": "Class Variable"}, "parentDomain": {"href": "/mdr/cdashig/2-2/domains/SC", "title": "Subject Characteristics", "type": "CDASH Domain"}, "parentProduct": {"href": "/mdr/cdashig/2-2", "title": "Clinical Data Acquisition Standards Harmonization Implementation Guide for Human Clinical Trials Version 2.2", "type": "Implementation Guide"}, "priorVersion": {"href": "/mdr/cdashig/2-1/domains/SC/fields/SUBJID", "title": "Subject Identifier for the Study", "type": "Data Collection Field"}, "rootItem": {"href": "/mdr/root/cdashig/domains/SC/fields/SUBJID", "title": "Subject Identifier for the Study", "type": "Root Data Element"}, "sdtmigDatasetMappingTargets": [{"href": "/mdr/sdtmig/3-3/datasets/DM/variables/SUBJID", "title": "Subject Identifier for the Study", "type": "SDTM Dataset Variable"}], "self": {"href": "/mdr/cdashig/2-2/domains/SC/fields/SUBJID", "title": "Subject Identifier for the Study", "type": "Data Collection Field"}}, "completionInstructions": "Record the identifier for the subject.", "core": "HR", "definition": "A unique subject identifier within a site and a study.", "implementationNotes": "Paper: This is typically recorded in the header of each CRF page. EDC: The subject identifiers may be system-generated. This CDASH variable is typically collected in all CDASH domains. However, this CDASH variable is populated only in the SDTMIG DM domain. For more information, refer to the SDTMIG.", "label": "Subject Identifier for the Study", "mappingInstructions": "Maps directly to the SDTMIG variable listed in the SDTMIG Target column.", "name": "SUBJID", "ordinal": "3", "prompt": "[Subject/Participant] (Identifier)", "questionText": "What [is/was] the (study) [subject/participant] identifier?", "simpleDatatype": "Char"}, {"_links": {"implements": {"href": "/mdr/cdash/1-2/classes/Timing/fields/VISIT", "title": "Visit Name", "type": "Class Variable"}, "parentDomain": {"href": "/mdr/cdashig/2-2/domains/SC", "title": "Subject Characteristics", "type": "CDASH Domain"}, "parentProduct": {"href": "/mdr/cdashig/2-2", "title": "Clinical Data Acquisition Standards Harmonization Implementation Guide for Human Clinical Trials Version 2.2", "type": "Implementation Guide"}, "priorVersion": {"href": "/mdr/cdashig/2-1/domains/SC/fields/VISIT", "title": "Visit Name", "type": "Data Collection Field"}, "rootItem": {"href": "/mdr/root/cdashig/domains/SC/fields/VISIT", "title": "Visit Name", "type": "Root Data Element"}, "self": {"href": "/mdr/cdashig/2-2/domains/SC/fields/VISIT", "title": "Visit Name", "type": "Data Collection Field"}}, "core": "R/C", "definition": "The name of a clinical encounter that encompasses planned and unplanned trial interventions, procedures, and assessments that may be performed on a subject.", "implementationNotes": "The name of the clinical encounter is typically pre-printed on the CRF or displayed within the EDC for any visit-based data collection, most often in Findings domains. This Visit text description is then available in any EDC data extract for that Findings domain.", "label": "Visit Name", "mappingInstructions": "Maps directly to the SDTMIG variable listed in the SDTMIG Target column.", "name": "VISIT", "ordinal": "4", "prompt": "[Visit]", "questionText": "What is the visit name?", "simpleDatatype": "Char"}, {"_links": {"implements": {"href": "/mdr/cdash/1-2/classes/Timing/fields/VISDAT", "title": "Visit Date", "type": "Class Variable"}, "parentDomain": {"href": "/mdr/cdashig/2-2/domains/SC", "title": "Subject Characteristics", "type": "CDASH Domain"}, "parentProduct": {"href": "/mdr/cdashig/2-2", "title": "Clinical Data Acquisition Standards Harmonization Implementation Guide for Human Clinical Trials Version 2.2", "type": "Implementation Guide"}, "priorVersion": {"href": "/mdr/cdashig/2-1/domains/SC/fields/VISDAT", "title": "Visit Date", "type": "Data Collection Field"}, "rootItem": {"href": "/mdr/root/cdashig/domains/SC/fields/VISDAT", "title": "Visit Date", "type": "Root Data Element"}, "self": {"href": "/mdr/cdashig/2-2/domains/SC/fields/VISDAT", "title": "Visit Date", "type": "Data Collection Field"}}, "completionInstructions": "Record the [date/start date] of the visit using this format (DD-MON-YYYY).", "core": "R/C", "definition": "Date the clinical encounter occurred (or started).", "implementationNotes": "The date the subject characteristics were collected can be determined from the visit date variable (VISDAT) and applying that date to all of the subject characteristics at that visit, or the collection date can be included on the SC CRF using the date (SCDAT) field.", "label": "Visit Date", "mappingInstructions": "This field is not an SDTM variable. The date of a measurement, test, observation can be determined from the date/time of visit (VISDAT/VISTIM) and then concatenating the CDASH VISDAT/VISTIM components and populating the SDTMIG variable SCDTC in ISO 8601 format.", "name": "VISDAT", "ordinal": "5", "prompt": "(Visit) Date", "questionText": "What [is/was] the date of the visit?", "simpleDatatype": "Char"}, {"_links": {"implements": {"href": "/mdr/cdash/1-2/classes/Findings/fields/--CAT", "title": "Category", "type": "Class Variable"}, "parentDomain": {"href": "/mdr/cdashig/2-2/domains/SC", "title": "Subject Characteristics", "type": "CDASH Domain"}, "parentProduct": {"href": "/mdr/cdashig/2-2", "title": "Clinical Data Acquisition Standards Harmonization Implementation Guide for Human Clinical Trials Version 2.2", "type": "Implementation Guide"}, "priorVersion": {"href": "/mdr/cdashig/2-1/domains/SC/fields/SCCAT", "title": "Category for Subject Characteristic", "type": "Data Collection Field"}, "rootItem": {"href": "/mdr/root/cdashig/domains/SC/fields/SCCAT", "title": "Category for Subject Characteristic", "type": "Root Data Element"}, "sdtmigDatasetMappingTargets": [{"href": "/mdr/sdtmig/3-3/datasets/SC/variables/SCCAT", "title": "Category for Subject Characteristic", "type": "SDTM Dataset Variable"}], "self": {"href": "/mdr/cdashig/2-2/domains/SC/fields/SCCAT", "title": "Category for Subject Characteristic", "type": "Data Collection Field"}}, "completionInstructions": "Record the subject characteristics category, if not pre-printed on the CRF.", "core": "O", "definition": "A grouping of topic-variable values based on user-defined characteristics.", "implementationNotes": "Sponsor-defined controlled terminology. This would most commonly be either a heading or a pre-printed category value on the CRF, not a question to which the site would provide an answer. If a question is asked, the response would typically be a sponsor-defined codelist. If the form is laid out as a grid, then words such as \"Category\" can be included in the column heading.", "label": "Category for Subject Characteristic", "mappingInstructions": "Maps directly to the SDTMIG variable listed in the SDTMIG Target column.", "name": "SCCAT", "ordinal": "6", "prompt": "[Subject Characteristics Category ]; NULL", "questionText": "What was the category of the subject characteristics?", "simpleDatatype": "Char"}, {"_links": {"implements": {"href": "/mdr/cdash/1-2/classes/Findings/fields/--SCAT", "title": "Subcategory", "type": "Class Variable"}, "parentDomain": {"href": "/mdr/cdashig/2-2/domains/SC", "title": "Subject Characteristics", "type": "CDASH Domain"}, "parentProduct": {"href": "/mdr/cdashig/2-2", "title": "Clinical Data Acquisition Standards Harmonization Implementation Guide for Human Clinical Trials Version 2.2", "type": "Implementation Guide"}, "priorVersion": {"href": "/mdr/cdashig/2-1/domains/SC/fields/SCSCAT", "title": "Subcategory for Subject Characteristic", "type": "Data Collection Field"}, "rootItem": {"href": "/mdr/root/cdashig/domains/SC/fields/SCSCAT", "title": "Subcategory for Subject Characteristic", "type": "Root Data Element"}, "sdtmigDatasetMappingTargets": [{"href": "/mdr/sdtmig/3-3/datasets/SC/variables/SCSCAT", "title": "Subcategory for Subject Characteristic", "type": "SDTM Dataset Variable"}], "self": {"href": "/mdr/cdashig/2-2/domains/SC/fields/SCSCAT", "title": "Subcategory for Subject Characteristic", "type": "Data Collection Field"}}, "completionInstructions": "Record the subject characteristics subcategory, if not pre-printed on the CRF.", "core": "O", "definition": "A sub-division of the SCCAT values based on user-defined characteristics.", "implementationNotes": "Sponsor-defined controlled terminology. This would most commonly be either a heading or a pre-printed category value on the CRF, not a question to which the site would provide an answer. If a question is asked, the response would typically be a sponsor-defined codelist. If the form is laid out as a grid, then words such as \"Subcategory\" can be included in the column heading. SCSCAT can only be used if there is an SCCAT, and it must be a subcategorization of SCCAT.", "label": "Subcategory for Subject Characteristic", "mappingInstructions": "Maps directly to the SDTMIG variable listed in the SDTMIG Target column.", "name": "SCSCAT", "ordinal": "7", "prompt": "[Subject Characteristics Subcategory]; NULL", "questionText": "What was the subcategory of the subject characteristics?", "simpleDatatype": "Char"}, {"_links": {"codelist": [{"href": "/mdr/root/ct/sdtmct/codelists/C66742", "title": "Version-agnostic anchor resource for codelist C66742", "type": "Root Value Domain"}], "implements": {"href": "/mdr/cdash/1-2/classes/Findings/fields/--PERF", "title": "[Observation] Performed", "type": "Class Variable"}, "parentDomain": {"href": "/mdr/cdashig/2-2/domains/SC", "title": "Subject Characteristics", "type": "CDASH Domain"}, "parentProduct": {"href": "/mdr/cdashig/2-2", "title": "Clinical Data Acquisition Standards Harmonization Implementation Guide for Human Clinical Trials Version 2.2", "type": "Implementation Guide"}, "priorVersion": {"href": "/mdr/cdashig/2-1/domains/SC/fields/SCPERF", "title": "SC Assessment Performed", "type": "Data Collection Field"}, "rootItem": {"href": "/mdr/root/cdashig/domains/SC/fields/SCPERF", "title": "SC Assessment Performed", "type": "Root Data Element"}, "sdtmigDatasetMappingTargets": [{"href": "/mdr/sdtmig/3-3/datasets/SC/variables/SCSTAT", "title": "Completion Status", "type": "SDTM Dataset Variable"}], "self": {"href": "/mdr/cdashig/2-2/domains/SC/fields/SCPERF", "title": "SC Assessment Performed", "type": "Data Collection Field"}}, "completionInstructions": "Indicate if subject characteristics information was collected. If Yes, record the appropriate details.", "core": "O", "definition": "An indication of whether any subject characteristics were collected.", "implementationNotes": "General prompt question to be used as a data management tool to verify that missing results are confirmed missing.", "label": "SC Assessment Performed", "mappingInstructions": "This does not map directly to an SDTMIG variable. May be used to derive a value into the SDTM variable SCSTAT. If SCPERF=\"N\", the value of SCSTAT will be \"NOT DONE\". If SCPERF=\"Y\", SCSTAT should be null. A combination of SDTMIG variables (e.g., SCCAT and SCSCAT, SCTPT) is used to indicate that multiple tests were not done. In this situation, the SDTMIG variable SCTESTCD would be populated as SCALL and an appropriate test name (SCTEST) provided. See SDTMIG for additional information.", "name": "SCPERF", "ordinal": "8", "prompt": "Subject Characteristics Collected", "questionText": "Were subject characteristics collected?", "simpleDatatype": "Char"}, {"_links": {"implements": {"href": "/mdr/cdash/1-2/classes/Identifiers/fields/--SPID", "title": "Sponsor-Defined Identifier", "type": "Class Variable"}, "parentDomain": {"href": "/mdr/cdashig/2-2/domains/SC", "title": "Subject Characteristics", "type": "CDASH Domain"}, "parentProduct": {"href": "/mdr/cdashig/2-2", "title": "Clinical Data Acquisition Standards Harmonization Implementation Guide for Human Clinical Trials Version 2.2", "type": "Implementation Guide"}, "priorVersion": {"href": "/mdr/cdashig/2-1/domains/SC/fields/SCSPID", "title": "SC Sponsor-Defined Identifier", "type": "Data Collection Field"}, "rootItem": {"href": "/mdr/root/cdashig/domains/SC/fields/SCSPID", "title": "SC Sponsor-Defined Identifier", "type": "Root Data Element"}, "sdtmigDatasetMappingTargets": [{"href": "/mdr/sdtmig/3-3/datasets/SC/variables/SCSPID", "title": "Sponsor-Defined Identifier", "type": "SDTM Dataset Variable"}], "self": {"href": "/mdr/cdashig/2-2/domains/SC/fields/SCSPID", "title": "SC Sponsor-Defined Identifier", "type": "Data Collection Field"}}, "completionInstructions": "If collected on the CRF, the sponsor may insert instructions to ensure each record has a unique identifier.", "core": "O", "definition": "A sponsor-defined identifier. In CDASH, this is typically used for pre-printed or auto-generated numbers on the CRF, or any other type of identifier that does not already have a defined CDASH identifier field.", "implementationNotes": "Because SPID is a sponsor-defined identifier, conformance to Question Text or Item Prompt is not applicable. Typically used as an identifier in a data query to communicate clearly to the site the specific record in question or to reconcile data. May be used to record pre-printed number (e.g., line number, record number) on the CRF. This field may be populated by the sponsor's data collection system.", "label": "SC Sponsor-Defined Identifier", "mappingInstructions": "Maps directly to the SDTMIG variable listed in the SDTMIG Target column.", "name": "SCSPID", "ordinal": "9", "prompt": "[Sponsor defined]", "questionText": "[Sponsor-defined question]", "simpleDatatype": "Char"}, {"_links": {"implements": {"href": "/mdr/cdash/1-2/classes/Timing/fields/--DAT", "title": "Collection Date", "type": "Class Variable"}, "parentDomain": {"href": "/mdr/cdashig/2-2/domains/SC", "title": "Subject Characteristics", "type": "CDASH Domain"}, "parentProduct": {"href": "/mdr/cdashig/2-2", "title": "Clinical Data Acquisition Standards Harmonization Implementation Guide for Human Clinical Trials Version 2.2", "type": "Implementation Guide"}, "priorVersion": {"href": "/mdr/cdashig/2-1/domains/SC/fields/SCDAT", "title": "Subject Characteristic Collection Date", "type": "Data Collection Field"}, "rootItem": {"href": "/mdr/root/cdashig/domains/SC/fields/SCDAT", "title": "Subject Characteristic Collection Date", "type": "Root Data Element"}, "sdtmigDatasetMappingTargets": [{"href": "/mdr/sdtmig/3-3/datasets/SC/variables/SCDTC", "title": "Date/Time of Collection", "type": "SDTM Dataset Variable"}], "self": {"href": "/mdr/cdashig/2-2/domains/SC/fields/SCDAT", "title": "Subject Characteristic Collection Date", "type": "Data Collection Field"}}, "completionInstructions": "Record the date the subject characteristics were collected using the format (DD-MON-YYYY).", "core": "R/C", "definition": "The date of collection represented in an unambiguous date format (e.g., DD-MON-YYYY).", "implementationNotes": "The date of collection can be determined from a collected date of the visit (VISDAT); in such cases, a date field is not required.", "label": "Subject Characteristic Collection Date", "mappingInstructions": "This does not map directly to an SDTMIG variable. For the SDTM submission dataset, concatenate all collected CDASH DATE and TIME components and populate the SDTMIG variable SCDTC in ISO 8601 format.", "name": "SCDAT", "ordinal": "10", "prompt": "Date", "questionText": "What was the date the subject characteristics were collected?", "simpleDatatype": "Char"}, {"_links": {"codelist": [{"href": "/mdr/root/ct/sdtmct/codelists/C103330", "title": "Version-agnostic anchor resource for codelist C103330", "type": "Root Value Domain"}], "implements": {"href": "/mdr/cdash/1-2/classes/Findings/fields/--TEST", "title": "Name of Measurement, Test, or Exam", "type": "Class Variable"}, "parentDomain": {"href": "/mdr/cdashig/2-2/domains/SC", "title": "Subject Characteristics", "type": "CDASH Domain"}, "parentProduct": {"href": "/mdr/cdashig/2-2", "title": "Clinical Data Acquisition Standards Harmonization Implementation Guide for Human Clinical Trials Version 2.2", "type": "Implementation Guide"}, "priorVersion": {"href": "/mdr/cdashig/2-1/domains/SC/fields/SCTEST", "title": "Subject Characteristic", "type": "Data Collection Field"}, "rootItem": {"href": "/mdr/root/cdashig/domains/SC/fields/SCTEST", "title": "Subject Characteristic", "type": "Root Data Element"}, "sdtmigDatasetMappingTargets": [{"href": "/mdr/sdtmig/3-3/datasets/SC/variables/SCTEST", "title": "Subject Characteristic", "type": "SDTM Dataset Variable"}, {"href": "/mdr/sdtmig/3-3/datasets/SC/variables/SCTESTCD", "title": "Subject Characteristic Short Name", "type": "SDTM Dataset Variable"}], "self": {"href": "/mdr/cdashig/2-2/domains/SC/fields/SCTEST", "title": "Subject Characteristic", "type": "Data Collection Field"}}, "completionInstructions": "Record the name of the subject characteristics if not pre-printed on the CRF. If collected on the CRF, the sponsor may provide additional instructions to ensure the data is entered as intended.", "core": "HR", "definition": "Descriptive name of the subject characteristic of interest.", "implementationNotes": "Required to identify which test the result is for. It is recommended that the test names be pre-printed on the CRF rather than collected in a free-text field. If the form is laid out as a grid, then words such as \"Test\" can be included in the column header.", "label": "Subject Characteristic", "mappingInstructions": "Maps directly to the SDTMIG variable listed in the SDTMIG Target column. The SDTMIG variable SCTESTCD may be determined from the value collected in SCTEST. The SDTMIG variables SCTESTCD and SCTEST are required in the SDTM submission datasets. Use appropriate CDISC Controlled Terminology for the test and test code.", "name": "SCTEST", "ordinal": "11", "prompt": "[Subject Characteristic Test Name]", "questionText": "What is the subject characteristics name?", "simpleDatatype": "Char"}, {"_links": {"implements": {"href": "/mdr/cdash/1-2/classes/Findings/fields/--ORRES", "title": "Result or Finding in Original Units", "type": "Class Variable"}, "parentDomain": {"href": "/mdr/cdashig/2-2/domains/SC", "title": "Subject Characteristics", "type": "CDASH Domain"}, "parentProduct": {"href": "/mdr/cdashig/2-2", "title": "Clinical Data Acquisition Standards Harmonization Implementation Guide for Human Clinical Trials Version 2.2", "type": "Implementation Guide"}, "priorVersion": {"href": "/mdr/cdashig/2-1/domains/SC/fields/SCORRES", "title": "SC Result or Finding in Original Units", "type": "Data Collection Field"}, "rootItem": {"href": "/mdr/root/cdashig/domains/SC/fields/SCORRES", "title": "SC Result or Finding in Original Units", "type": "Root Data Element"}, "sdtmigDatasetMappingTargets": [{"href": "/mdr/sdtmig/3-3/datasets/SC/variables/SCORRES", "title": "Result or Finding in Original Units", "type": "SDTM Dataset Variable"}], "self": {"href": "/mdr/cdashig/2-2/domains/SC/fields/SCORRES", "title": "SC Result or Finding in Original Units", "type": "Data Collection Field"}}, "completionInstructions": "Record the subject characteristic.", "core": "HR", "definition": "Result of the subject characteristic as originally received or collected.", "label": "SC Result or Finding in Original Units", "mappingInstructions": "Maps directly to the SDTMIG variable listed in the SDTMIG Target column.", "name": "SCORRES", "ordinal": "12", "prompt": "(Result)", "questionText": "What is the subject characteristic?", "simpleDatatype": "Char"}], "label": "Subject Characteristics", "name": "SC", "ordinal": "30"}
