{"_links": {"parentClass": {"href": "/mdr/cdashig/2-2/classes/FindingsAbout", "title": "Findings About Events or Interventions", "type": "Class"}, "parentProduct": {"href": "/mdr/cdashig/2-2", "title": "Clinical Data Acquisition Standards Harmonization Implementation Guide for Human Clinical Trials Version 2.2", "type": "Implementation Guide"}, "priorVersion": {"href": "/mdr/cdashig/2-1/domains/SR", "title": "Skin Response", "type": "CDASH Domain"}, "self": {"href": "/mdr/cdashig/2-2/domains/SR", "title": "Skin Response", "type": "CDASH Domain"}}, "description": "A findings about domain for submitting dermal responses to antigens. (Source: CDISC Controlled Terminology, DOMAIN, C112420, 2021-06-25)", "fields": [{"_links": {"implements": {"href": "/mdr/cdash/1-2/classes/Identifiers/fields/STUDYID", "title": "Study Identifier", "type": "Class Variable"}, "parentDomain": {"href": "/mdr/cdashig/2-2/domains/SR", "title": "Skin Response", "type": "CDASH Domain"}, "parentProduct": {"href": "/mdr/cdashig/2-2", "title": "Clinical Data Acquisition Standards Harmonization Implementation Guide for Human Clinical Trials Version 2.2", "type": "Implementation Guide"}, "priorVersion": {"href": "/mdr/cdashig/2-1/domains/SR/fields/STUDYID", "title": "Study Identifier", "type": "Data Collection Field"}, "rootItem": {"href": "/mdr/root/cdashig/domains/SR/fields/STUDYID", "title": "Study Identifier", "type": "Root Data Element"}, "sdtmigDatasetMappingTargets": [{"href": "/mdr/sdtmig/3-3/datasets/SR/variables/STUDYID", "title": "Study Identifier", "type": "SDTM Dataset Variable"}], "self": {"href": "/mdr/cdashig/2-2/domains/SR/fields/STUDYID", "title": "Study Identifier", "type": "Data Collection Field"}}, "core": "HR", "definition": "A unique identifier for a study.", "implementationNotes": "Although this field is not typically captured on a CRF, it should be displayed clearly on the CRF and/or in the EDC system. This field can be included in the database or populated during SDTM-based dataset creation before submission.", "label": "Study Identifier", "mappingInstructions": "Maps directly to the SDTMIG variable listed in the SDTMIG Target column.", "name": "STUDYID", "ordinal": "1", "prompt": "[Protocol/Study]", "questionText": "What is the study identifier?", "simpleDatatype": "Char"}, {"_links": {"implements": {"href": "/mdr/cdash/1-2/classes/Identifiers/fields/SITEID", "title": "Study Site Identifier", "type": "Class Variable"}, "parentDomain": {"href": "/mdr/cdashig/2-2/domains/SR", "title": "Skin Response", "type": "CDASH Domain"}, "parentProduct": {"href": "/mdr/cdashig/2-2", "title": "Clinical Data Acquisition Standards Harmonization Implementation Guide for Human Clinical Trials Version 2.2", "type": "Implementation Guide"}, "priorVersion": {"href": "/mdr/cdashig/2-1/domains/SR/fields/SITEID", "title": "Study Site Identifier", "type": "Data Collection Field"}, "rootItem": {"href": "/mdr/root/cdashig/domains/SR/fields/SITEID", "title": "Study Site Identifier", "type": "Root Data Element"}, "sdtmigDatasetMappingTargets": [{"href": "/mdr/sdtmig/3-3/datasets/DM/variables/SITEID", "title": "Study Site Identifier", "type": "SDTM Dataset Variable"}], "self": {"href": "/mdr/cdashig/2-2/domains/SR/fields/SITEID", "title": "Study Site Identifier", "type": "Data Collection Field"}}, "core": "HR", "definition": "A unique identifier for a site within a study.", "implementationNotes": "Paper: This is typically pre-pinted in the header of each CRF page for single-site studies. For studies with multiple sites, this field may be left blank so that the number can be recorded by the site, or it may be pre-pinted on the CRFs that are shipped to each site. \\n EDC: This should be pre-populated.", "label": "Study Site Identifier", "mappingInstructions": "Maps directly to the SDTMIG variable listed in the SDTMIG Target column.", "name": "SITEID", "ordinal": "2", "prompt": "Site (Identifier)", "questionText": "What is the site identifier?", "simpleDatatype": "Char"}, {"_links": {"implements": {"href": "/mdr/cdash/1-2/classes/Identifiers/fields/SUBJID", "title": "Subject Identifier for the Study", "type": "Class Variable"}, "parentDomain": {"href": "/mdr/cdashig/2-2/domains/SR", "title": "Skin Response", "type": "CDASH Domain"}, "parentProduct": {"href": "/mdr/cdashig/2-2", "title": "Clinical Data Acquisition Standards Harmonization Implementation Guide for Human Clinical Trials Version 2.2", "type": "Implementation Guide"}, "priorVersion": {"href": "/mdr/cdashig/2-1/domains/SR/fields/SUBJID", "title": "Subject Identifier for the Study", "type": "Data Collection Field"}, "rootItem": {"href": "/mdr/root/cdashig/domains/SR/fields/SUBJID", "title": "Subject Identifier for the Study", "type": "Root Data Element"}, "sdtmigDatasetMappingTargets": [{"href": "/mdr/sdtmig/3-3/datasets/DM/variables/SUBJID", "title": "Subject Identifier for the Study", "type": "SDTM Dataset Variable"}], "self": {"href": "/mdr/cdashig/2-2/domains/SR/fields/SUBJID", "title": "Subject Identifier for the Study", "type": "Data Collection Field"}}, "completionInstructions": "Record the identifier for the subject.", "core": "HR", "definition": "A unique subject identifier within a site and a study.", "implementationNotes": "Paper: This is typically recorded in the header of each CRF page. EDC: The subject identifiers may be system-generated. This CDASH variable is typically collected in all CDASH domains. However, this CDASH variable is populated only in the SDTMIG DM domain. For more information, refer to the SDTMIG.", "label": "Subject Identifier for the Study", "mappingInstructions": "Maps directly to the SDTMIG variable listed in the SDTMIG Target column.", "name": "SUBJID", "ordinal": "3", "prompt": "[Subject/Participant] (Identifier)", "questionText": "What [is/was] the (study) [subject/participant] identifier?", "simpleDatatype": "Char"}, {"_links": {"implements": {"href": "/mdr/cdash/1-2/classes/Timing/fields/VISIT", "title": "Visit Name", "type": "Class Variable"}, "parentDomain": {"href": "/mdr/cdashig/2-2/domains/SR", "title": "Skin Response", "type": "CDASH Domain"}, "parentProduct": {"href": "/mdr/cdashig/2-2", "title": "Clinical Data Acquisition Standards Harmonization Implementation Guide for Human Clinical Trials Version 2.2", "type": "Implementation Guide"}, "priorVersion": {"href": "/mdr/cdashig/2-1/domains/SR/fields/VISIT", "title": "Visit Name", "type": "Data Collection Field"}, "rootItem": {"href": "/mdr/root/cdashig/domains/SR/fields/VISIT", "title": "Visit Name", "type": "Root Data Element"}, "sdtmigDatasetMappingTargets": [{"href": "/mdr/sdtmig/3-3/datasets/SR/variables/VISIT", "title": "Visit Name", "type": "SDTM Dataset Variable"}], "self": {"href": "/mdr/cdashig/2-2/domains/SR/fields/VISIT", "title": "Visit Name", "type": "Data Collection Field"}}, "core": "R/C", "definition": "The name of a clinical encounter that encompasses planned and unplanned trial interventions, procedures, and assessments that may be performed on a subject.", "implementationNotes": "The name of the visit is typically pre-pinted on the CRF, and should match the name of the visit in the protocol. May be used to derive the SDTM variable VISITNUM. \\n Note: Sponsors may have CDASH visit-numbering or visit-naming conventions to handle special circumstances (e.g., unscheduled visits). In such cases, the appropriate visit numbers and visit names may need to be populated when creating SDTM submission datasets.", "label": "Visit Name", "mappingInstructions": "Maps directly to the SDTMIG variable listed in the SDTMIG Target column.", "name": "VISIT", "ordinal": "4", "prompt": "[Visit]", "questionText": "What is the visit name?", "simpleDatatype": "Char"}, {"_links": {"implements": {"href": "/mdr/cdash/1-2/classes/Timing/fields/VISDAT", "title": "Visit Date", "type": "Class Variable"}, "parentDomain": {"href": "/mdr/cdashig/2-2/domains/SR", "title": "Skin Response", "type": "CDASH Domain"}, "parentProduct": {"href": "/mdr/cdashig/2-2", "title": "Clinical Data Acquisition Standards Harmonization Implementation Guide for Human Clinical Trials Version 2.2", "type": "Implementation Guide"}, "priorVersion": {"href": "/mdr/cdashig/2-1/domains/SR/fields/VISDAT", "title": "Visit Date", "type": "Data Collection Field"}, "rootItem": {"href": "/mdr/root/cdashig/domains/SR/fields/VISDAT", "title": "Visit Date", "type": "Root Data Element"}, "self": {"href": "/mdr/cdashig/2-2/domains/SR/fields/VISDAT", "title": "Visit Date", "type": "Data Collection Field"}}, "completionInstructions": "Record the [date/start date] of the visit using this format (DD-MON-YYYY).", "core": "R/C", "definition": "Date the clinical encounter occurred (or started).", "implementationNotes": "The date the skin response measurements were collected can be determined from the visit date variable (VISDAT) and applying that date to all of the skin response measurements at that visit, or the collection date can be included on the Skin Response CRF using the date (SRDAT) field.", "label": "Visit Date", "mappingInstructions": "This field is not an SDTM variable. The date of a measurement, test, or observation can be determined from the date/time of visit (VISDAT/VISTIM) and then concatenating the CDASH VISDAT/VISTIM components and populating the SDTMIG variable SRDTC in ISO 8601 format.", "name": "VISDAT", "ordinal": "5", "prompt": "(Visit) Date", "questionText": "What [is/was] the date of the visit?", "simpleDatatype": "Char"}, {"_links": {"codelist": [{"href": "/mdr/root/ct/sdtmct/codelists/C66742", "title": "Version-agnostic anchor resource for codelist C66742", "type": "Root Value Domain"}], "implements": {"href": "/mdr/cdash/1-2/classes/Findings/fields/--PERF", "title": "[Observation] Performed", "type": "Class Variable"}, "parentDomain": {"href": "/mdr/cdashig/2-2/domains/SR", "title": "Skin Response", "type": "CDASH Domain"}, "parentProduct": {"href": "/mdr/cdashig/2-2", "title": "Clinical Data Acquisition Standards Harmonization Implementation Guide for Human Clinical Trials Version 2.2", "type": "Implementation Guide"}, "priorVersion": {"href": "/mdr/cdashig/2-1/domains/SR/fields/SRPERF", "title": "Skin Response Test Performed", "type": "Data Collection Field"}, "rootItem": {"href": "/mdr/root/cdashig/domains/SR/fields/SRPERF", "title": "Skin Response Test Performed", "type": "Root Data Element"}, "sdtmigDatasetMappingTargets": [{"href": "/mdr/sdtmig/3-3/datasets/SR/variables/SRSTAT", "title": "Completion Status", "type": "SDTM Dataset Variable"}], "self": {"href": "/mdr/cdashig/2-2/domains/SR/fields/SRPERF", "title": "Skin Response Test Performed", "type": "Data Collection Field"}}, "completionInstructions": "Indicate if a skin response test was performed.", "core": "O", "definition": "An indication of whether a planned skin response measurement, series of skin response measurements, tests, or observations was performed.", "implementationNotes": "General prompt question to be used as a data management tool to verify that missing results are confirmed missing.", "label": "Skin Response Test Performed", "mappingInstructions": "This does not map directly to an SDTMIG variable. May be used to derive a value into the SDTM variable SRSTAT. If SRPERF=\"N\", the value of SRSTAT will be \"NOT DONE\". If SRPERF=\"Y\", SRSTAT should be null. A combination of SDTMIG variables (e.g., SRCAT and SRSCAT, SRTPT ) is used to indicate that multiple tests were not done. In this situation, the SDTMIG variable SRTESTCD would be populated as SRALL and an appropriate test name (SRTEST) provided. See SDTMIG for additional information.", "name": "SRPERF", "ordinal": "6", "prompt": "Skin Response Test Performed", "questionText": "Was a skin response test performed?", "simpleDatatype": "Char"}, {"_links": {"implements": {"href": "/mdr/cdash/1-2/classes/Findings/fields/--REASND", "title": "Reason Not Done", "type": "Class Variable"}, "parentDomain": {"href": "/mdr/cdashig/2-2/domains/SR", "title": "Skin Response", "type": "CDASH Domain"}, "parentProduct": {"href": "/mdr/cdashig/2-2", "title": "Clinical Data Acquisition Standards Harmonization Implementation Guide for Human Clinical Trials Version 2.2", "type": "Implementation Guide"}, "priorVersion": {"href": "/mdr/cdashig/2-1/domains/SR/fields/SRREASND", "title": "Skin Response Reason Not Done", "type": "Data Collection Field"}, "rootItem": {"href": "/mdr/root/cdashig/domains/SR/fields/SRREASND", "title": "Skin Response Reason Not Done", "type": "Root Data Element"}, "sdtmigDatasetMappingTargets": [{"href": "/mdr/sdtmig/3-3/datasets/SR/variables/SRREASND", "title": "Reason Not Done", "type": "SDTM Dataset Variable"}], "self": {"href": "/mdr/cdashig/2-2/domains/SR/fields/SRREASND", "title": "Skin Response Reason Not Done", "type": "Data Collection Field"}}, "completionInstructions": "Provide the reason why the test or examination was not done.", "core": "O", "definition": "An explanation for why data are not available.", "implementationNotes": "The reason the data are not available may be chosen from a sponsor-defined list (e.g., broken equipment, subject refused) or entered as free text. When SRREASND is used, the SDTMIG variable SRSTAT should also be populated in the SDTM-based dataset.", "label": "Skin Response Reason Not Done", "mappingInstructions": "Maps directly to the SDTMIG variable listed in the SDTMIG Target column.", "name": "SRREASND", "ordinal": "7", "prompt": "Reason Not Done", "questionText": "What was the reason the test was not done?", "simpleDatatype": "Char"}, {"_links": {"implements": {"href": "/mdr/cdash/1-2/classes/Findings/fields/--CAT", "title": "Category", "type": "Class Variable"}, "parentDomain": {"href": "/mdr/cdashig/2-2/domains/SR", "title": "Skin Response", "type": "CDASH Domain"}, "parentProduct": {"href": "/mdr/cdashig/2-2", "title": "Clinical Data Acquisition Standards Harmonization Implementation Guide for Human Clinical Trials Version 2.2", "type": "Implementation Guide"}, "priorVersion": {"href": "/mdr/cdashig/2-1/domains/SR/fields/SRCAT", "title": "Skin Response Category for Test", "type": "Data Collection Field"}, "rootItem": {"href": "/mdr/root/cdashig/domains/SR/fields/SRCAT", "title": "Skin Response Category for Test", "type": "Root Data Element"}, "sdtmigDatasetMappingTargets": [{"href": "/mdr/sdtmig/3-3/datasets/SR/variables/SRCAT", "title": "Category for Test", "type": "SDTM Dataset Variable"}], "self": {"href": "/mdr/cdashig/2-2/domains/SR/fields/SRCAT", "title": "Skin Response Category for Test", "type": "Data Collection Field"}}, "completionInstructions": "Record the skin response category, if not pre-pinted on the CRF.", "core": "O", "definition": "A grouping of topic-variable values based on user-defined characteristics.", "implementationNotes": "Sponsor-defined controlled terminology. This is most commonly either a heading or a pre-printed category value on the CRF, not a question to which the site would provide an answer. If a question is asked, the response would typically be a sponsor-defined codelist. If the form is laid out as a grid, then words such as \"Category\" can be included in the column heading.", "label": "Skin Response Category for Test", "mappingInstructions": "Maps directly to the SDTMIG variable listed in the SDTMIG Target column.", "name": "SRCAT", "ordinal": "8", "prompt": "[Skin Response Category]; NULL", "questionText": "What was the category of the skin response?", "simpleDatatype": "Char"}, {"_links": {"implements": {"href": "/mdr/cdash/1-2/classes/Findings/fields/--SCAT", "title": "Subcategory", "type": "Class Variable"}, "parentDomain": {"href": "/mdr/cdashig/2-2/domains/SR", "title": "Skin Response", "type": "CDASH Domain"}, "parentProduct": {"href": "/mdr/cdashig/2-2", "title": "Clinical Data Acquisition Standards Harmonization Implementation Guide for Human Clinical Trials Version 2.2", "type": "Implementation Guide"}, "priorVersion": {"href": "/mdr/cdashig/2-1/domains/SR/fields/SRSCAT", "title": "Skin Response Subcategory for Test", "type": "Data Collection Field"}, "rootItem": {"href": "/mdr/root/cdashig/domains/SR/fields/SRSCAT", "title": "Skin Response Subcategory for Test", "type": "Root Data Element"}, "sdtmigDatasetMappingTargets": [{"href": "/mdr/sdtmig/3-3/datasets/SR/variables/SRSCAT", "title": "Subcategory for Test", "type": "SDTM Dataset Variable"}], "self": {"href": "/mdr/cdashig/2-2/domains/SR/fields/SRSCAT", "title": "Skin Response Subcategory for Test", "type": "Data Collection Field"}}, "completionInstructions": "Record the skin response subcategory, if not pre-pinted on the CRF.", "core": "O", "definition": "A sub-division of the SRCAT values based on user-defined characteristics.", "implementationNotes": "Sponsor-defined controlled terminology. This is most commonly either a heading or a pre-printed category value on the CRF, not a question to which the site would provide an answer. If a question is asked, the response would typically be a sponsor-defined codelist. If the form is laid out as a grid, then words such as \"Subcategory\" can be included in the column heading. SRSCAT can only be used if there is an SRCAT, and it must be a subcategorization of SRCAT.", "label": "Skin Response Subcategory for Test", "mappingInstructions": "Maps directly to the SDTMIG variable listed in the SDTMIG Target column.", "name": "SRSCAT", "ordinal": "9", "prompt": "[Skin Response Subcategory]; NULL", "questionText": "What was the subcategory of the skin response?", "simpleDatatype": "Char"}, {"_links": {"implements": {"href": "/mdr/cdash/1-2/classes/Identifiers/fields/--SPID", "title": "Sponsor-Defined Identifier", "type": "Class Variable"}, "parentDomain": {"href": "/mdr/cdashig/2-2/domains/SR", "title": "Skin Response", "type": "CDASH Domain"}, "parentProduct": {"href": "/mdr/cdashig/2-2", "title": "Clinical Data Acquisition Standards Harmonization Implementation Guide for Human Clinical Trials Version 2.2", "type": "Implementation Guide"}, "priorVersion": {"href": "/mdr/cdashig/2-1/domains/SR/fields/SRSPID", "title": "Skin Response Sponsor-Defined Identifier", "type": "Data Collection Field"}, "rootItem": {"href": "/mdr/root/cdashig/domains/SR/fields/SRSPID", "title": "Skin Response Sponsor-Defined Identifier", "type": "Root Data Element"}, "sdtmigDatasetMappingTargets": [{"href": "/mdr/sdtmig/3-3/datasets/SR/variables/SRSPID", "title": "Sponsor-Defined Identifier", "type": "SDTM Dataset Variable"}], "self": {"href": "/mdr/cdashig/2-2/domains/SR/fields/SRSPID", "title": "Skin Response Sponsor-Defined Identifier", "type": "Data Collection Field"}}, "completionInstructions": "If collected on the CRF, the sponsor may insert instructions to ensure each record has a unique identifier.", "core": "O", "definition": "A sponsor-defined identifier. In CDASH, this is typically used for pre-printed or auto-generated numbers on the CRF, or any other type of identifier that does not already have a defined CDASH identifier field.", "implementationNotes": "Because SPID is a sponsor-defined identifier, conformance to Question Text or Item Prompt is not applicable. Typically used as an identifier in a data query to communicate clearly to the site the specific record in question or to reconcile data. May be used to record pre-printed number (e.g., line number, record number) on the CRF. This field may be populated by the sponsor's data collection system.", "label": "Skin Response Sponsor-Defined Identifier", "mappingInstructions": "Maps directly to the SDTMIG variable listed in the SDTMIG Target column. May be used to create RELREC to link this record with a record in another domain.", "name": "SRSPID", "ordinal": "10", "prompt": "[Sponsor defined]", "questionText": "[Sponsor-defined question]", "simpleDatatype": "Char"}, {"_links": {"implements": {"href": "/mdr/cdash/1-2/classes/FindingsAbout/fields/--OBJ", "title": "Object of the Observation", "type": "Class Variable"}, "parentDomain": {"href": "/mdr/cdashig/2-2/domains/SR", "title": "Skin Response", "type": "CDASH Domain"}, "parentProduct": {"href": "/mdr/cdashig/2-2", "title": "Clinical Data Acquisition Standards Harmonization Implementation Guide for Human Clinical Trials Version 2.2", "type": "Implementation Guide"}, "priorVersion": {"href": "/mdr/cdashig/2-1/domains/SR/fields/SROBJ", "title": "Skin Response Object of the Observation", "type": "Data Collection Field"}, "rootItem": {"href": "/mdr/root/cdashig/domains/SR/fields/SROBJ", "title": "Skin Response Object of the Observation", "type": "Root Data Element"}, "sdtmigDatasetMappingTargets": [{"href": "/mdr/sdtmig/3-3/datasets/SR/variables/SROBJ", "title": "Object of the Observation", "type": "SDTM Dataset Variable"}], "self": {"href": "/mdr/cdashig/2-2/domains/SR/fields/SROBJ", "title": "Skin Response Object of the Observation", "type": "Data Collection Field"}}, "completionInstructions": "Record the name of the antigen administered to the skin to elicit the skin response.", "core": "HR", "definition": "A description of the object or focal point of the findings observation that is represented by SRTEST.", "label": "Skin Response Object of the Observation", "mappingInstructions": "Maps directly to the SDTMIG variable listed in the SDTMIG Target column.", "name": "SROBJ", "ordinal": "11", "prompt": "[Intervention] Performed", "questionText": "What intervention was performed to elicit the skin response?", "simpleDatatype": "Char"}, {"_links": {"implements": {"href": "/mdr/cdash/1-2/classes/Timing/fields/--RFTDAT", "title": "Reference Time Point Date", "type": "Class Variable"}, "parentDomain": {"href": "/mdr/cdashig/2-2/domains/SR", "title": "Skin Response", "type": "CDASH Domain"}, "parentProduct": {"href": "/mdr/cdashig/2-2", "title": "Clinical Data Acquisition Standards Harmonization Implementation Guide for Human Clinical Trials Version 2.2", "type": "Implementation Guide"}, "priorVersion": {"href": "/mdr/cdashig/2-1/domains/SR/fields/SRRFTDAT", "title": "SR Date of Reference Time Point", "type": "Data Collection Field"}, "rootItem": {"href": "/mdr/root/cdashig/domains/SR/fields/SRRFTDAT", "title": "SR Date of Reference Time Point", "type": "Root Data Element"}, "sdtmigDatasetMappingTargets": [{"href": "/mdr/sdtmig/3-3/datasets/SR/variables/SRRFTDTC", "title": "Date/Time of Reference Time Point", "type": "SDTM Dataset Variable"}], "self": {"href": "/mdr/cdashig/2-2/domains/SR/fields/SRRFTDAT", "title": "SR Date of Reference Time Point", "type": "Data Collection Field"}}, "completionInstructions": "Record the date of the test material administration using this format (DD-MON-YYYY).", "core": "R/C", "definition": "The date of the reference time point, represented in an unambiguous date format (e.g., DD-MON-YYYY).", "implementationNotes": "A complete date is expected. If the date of administration is collected on a separate CRF (e.g., VISDAT), then it should not be collected on the SR CRF.", "label": "SR Date of Reference Time Point", "mappingInstructions": "This does not map directly to an SDTMIG variable. For the SDTM submission dataset, concatenate all collected CDASH DATE and TIME components and populate the SDTMIG variable SRRFTDTC in ISO 8601 format.", "name": "SRRFTDAT", "ordinal": "12", "prompt": "[Intervention] Administration Date", "questionText": "What was the date of the [intervention] performed to elicit the skin response?", "simpleDatatype": "Char"}, {"_links": {"implements": {"href": "/mdr/cdash/1-2/classes/Timing/fields/--RFTTIM", "title": "Reference Time Point Time", "type": "Class Variable"}, "parentDomain": {"href": "/mdr/cdashig/2-2/domains/SR", "title": "Skin Response", "type": "CDASH Domain"}, "parentProduct": {"href": "/mdr/cdashig/2-2", "title": "Clinical Data Acquisition Standards Harmonization Implementation Guide for Human Clinical Trials Version 2.2", "type": "Implementation Guide"}, "priorVersion": {"href": "/mdr/cdashig/2-1/domains/SR/fields/SRRFTTIM", "title": "SR Time of Reference Time Point", "type": "Data Collection Field"}, "rootItem": {"href": "/mdr/root/cdashig/domains/SR/fields/SRRFTTIM", "title": "SR Time of Reference Time Point", "type": "Root Data Element"}, "sdtmigDatasetMappingTargets": [{"href": "/mdr/sdtmig/3-3/datasets/SR/variables/SRRFTDTC", "title": "Date/Time of Reference Time Point", "type": "SDTM Dataset Variable"}], "self": {"href": "/mdr/cdashig/2-2/domains/SR/fields/SRRFTTIM", "title": "SR Time of Reference Time Point", "type": "Data Collection Field"}}, "completionInstructions": "Record the time of the test material administration using this format (hh:mm:ss).", "core": "R/C", "definition": "The time of the reference time point, represented in an unambiguous time format (e.g., hh:mm:ss).", "implementationNotes": "Collect time if it is relevant for the analysis of the skin response (e.g., multiple [intervention] administrations.)", "label": "SR Time of Reference Time Point", "mappingInstructions": "This does not map directly to an SDTMIG variable. For the SDTM submission dataset, concatenate all collected CDASH DATE and TIME components and populate the SDTMIG variable SRRFTDTC in ISO 8601 format.", "name": "SRRFTTIM", "ordinal": "13", "prompt": "[Intervention] Administration Time", "questionText": "What was the time of the [intervention] performed to elicit the skin response?", "simpleDatatype": "Char"}, {"_links": {"codelist": [{"href": "/mdr/root/ct/sdtmct/codelists/C74456", "title": "Version-agnostic anchor resource for codelist C74456", "type": "Root Value Domain"}], "implements": {"href": "/mdr/cdash/1-2/classes/Findings/fields/--LOC", "title": "Location Used for the Measurement", "type": "Class Variable"}, "parentDomain": {"href": "/mdr/cdashig/2-2/domains/SR", "title": "Skin Response", "type": "CDASH Domain"}, "parentProduct": {"href": "/mdr/cdashig/2-2", "title": "Clinical Data Acquisition Standards Harmonization Implementation Guide for Human Clinical Trials Version 2.2", "type": "Implementation Guide"}, "priorVersion": {"href": "/mdr/cdashig/2-1/domains/SR/fields/SRLOC", "title": "SR Location Used for Measurement", "type": "Data Collection Field"}, "rootItem": {"href": "/mdr/root/cdashig/domains/SR/fields/SRLOC", "title": "SR Location Used for Measurement", "type": "Root Data Element"}, "sdtmigDatasetMappingTargets": [{"href": "/mdr/sdtmig/3-3/datasets/SR/variables/SRLOC", "title": "Location Used for Measurement", "type": "SDTM Dataset Variable"}], "self": {"href": "/mdr/cdashig/2-2/domains/SR/fields/SRLOC", "title": "SR Location Used for Measurement", "type": "Data Collection Field"}}, "completionInstructions": "Record or select location on body where the measurement was performed, if not pre-pinted on CRF.", "core": "O", "definition": "A description of the anatomical location of the subject, relevant to the collection of skin response test.", "implementationNotes": "Collected or pre-printed when the sponsor needs to identify the specific anatomical location (e.g., ARM for skin response). Sponsors may collect the data using a subset list of controlled terminology on the CRF. LAT, DIR, and PORTOT are used to further describe the anatomical location.", "label": "SR Location Used for Measurement", "mappingInstructions": "Maps directly to the SDTMIG variable listed in the SDTMIG Target column.", "name": "SRLOC", "ordinal": "14", "prompt": "Anatomical Location", "questionText": "What was the anatomical location of the skin response measurement?", "simpleDatatype": "Char"}, {"_links": {"codelist": [{"href": "/mdr/root/ct/sdtmct/codelists/C99073", "title": "Version-agnostic anchor resource for codelist C99073", "type": "Root Value Domain"}], "implements": {"href": "/mdr/cdash/1-2/classes/Findings/fields/--LAT", "title": "Laterality", "type": "Class Variable"}, "parentDomain": {"href": "/mdr/cdashig/2-2/domains/SR", "title": "Skin Response", "type": "CDASH Domain"}, "parentProduct": {"href": "/mdr/cdashig/2-2", "title": "Clinical Data Acquisition Standards Harmonization Implementation Guide for Human Clinical Trials Version 2.2", "type": "Implementation Guide"}, "priorVersion": {"href": "/mdr/cdashig/2-1/domains/SR/fields/SRLAT", "title": "Skin Response Laterality", "type": "Data Collection Field"}, "rootItem": {"href": "/mdr/root/cdashig/domains/SR/fields/SRLAT", "title": "Skin Response Laterality", "type": "Root Data Element"}, "sdtmigDatasetMappingTargets": [{"href": "/mdr/sdtmig/3-3/datasets/SR/variables/SRLAT", "title": "Laterality", "type": "SDTM Dataset Variable"}], "self": {"href": "/mdr/cdashig/2-2/domains/SR/fields/SRLAT", "title": "Skin Response Laterality", "type": "Data Collection Field"}}, "completionInstructions": "Record the side of the anatomical location where the test was performed.", "core": "O", "definition": "Qualifier for anatomical location, further detailing the side of the body.", "implementationNotes": "May be pre-printed or collected when the sponsor needs to identify the specific side of the anatomical location. Sponsors may collect the data using a subset list of controlled terminology on the CRF.", "label": "Skin Response Laterality", "mappingInstructions": "Maps directly to the SDTMIG variable listed in the SDTMIG Target column.", "name": "SRLAT", "ordinal": "15", "prompt": "Side", "questionText": "What was the side of the anatomical location of the skin response measurement?", "simpleDatatype": "Char"}, {"_links": {"codelist": [{"href": "/mdr/root/ct/sdtmct/codelists/C112023", "title": "Version-agnostic anchor resource for codelist C112023", "type": "Root Value Domain"}], "implements": {"href": "/mdr/cdash/1-2/classes/Findings/fields/--TEST", "title": "Name of Measurement, Test, or Exam", "type": "Class Variable"}, "parentDomain": {"href": "/mdr/cdashig/2-2/domains/SR", "title": "Skin Response", "type": "CDASH Domain"}, "parentProduct": {"href": "/mdr/cdashig/2-2", "title": "Clinical Data Acquisition Standards Harmonization Implementation Guide for Human Clinical Trials Version 2.2", "type": "Implementation Guide"}, "priorVersion": {"href": "/mdr/cdashig/2-1/domains/SR/fields/SRTEST", "title": "Skin Response Test or Examination Name", "type": "Data Collection Field"}, "rootItem": {"href": "/mdr/root/cdashig/domains/SR/fields/SRTEST", "title": "Skin Response Test or Examination Name", "type": "Root Data Element"}, "sdtmigDatasetMappingTargets": [{"href": "/mdr/sdtmig/3-3/datasets/SR/variables/SRTEST", "title": "Skin Response Test or Examination Name", "type": "SDTM Dataset Variable"}, {"href": "/mdr/sdtmig/3-3/datasets/SR/variables/SRTESTCD", "title": "Skin Response Test or Exam Short Name", "type": "SDTM Dataset Variable"}], "self": {"href": "/mdr/cdashig/2-2/domains/SR/fields/SRTEST", "title": "Skin Response Test or Examination Name", "type": "Data Collection Field"}}, "completionInstructions": "Record the name of the skin response test if not pre-pinted on the CRF. If collected on the CRF, the sponsor may provide additional instructions to ensure the data is entered as intended.", "core": "HR", "definition": "Descriptive name of the test or examination used to obtain the measurement or finding.", "implementationNotes": "Required to identify which test the result is for. It is recommended that the test names be pre-pinted on the CRF rather than collected in a free-text field. If the form is laid out as a grid, then words such as \"Test\" can be included in the column heading.", "label": "Skin Response Test or Examination Name", "mappingInstructions": "Maps directly to the SDTMIG variable listed in the SDTMIG Target column. SRTESTCD may be determined from the value collected in SRTEST. The SDTMIG variables SRTESTCD and SRTEST are required in SDTM submission datasets. Use appropriate CDISC Controlled Terminology for the test and test code.", "name": "SRTEST", "ordinal": "16", "prompt": "[Skin Response Test Name]", "questionText": "What was the skin response test name?", "simpleDatatype": "Char"}, {"_links": {"implements": {"href": "/mdr/cdash/1-2/classes/Timing/fields/--TPT", "title": "Planned Time Point Name", "type": "Class Variable"}, "parentDomain": {"href": "/mdr/cdashig/2-2/domains/SR", "title": "Skin Response", "type": "CDASH Domain"}, "parentProduct": {"href": "/mdr/cdashig/2-2", "title": "Clinical Data Acquisition Standards Harmonization Implementation Guide for Human Clinical Trials Version 2.2", "type": "Implementation Guide"}, "priorVersion": {"href": "/mdr/cdashig/2-1/domains/SR/fields/SRTPT", "title": "Skin Response Planned Time Point Name", "type": "Data Collection Field"}, "rootItem": {"href": "/mdr/root/cdashig/domains/SR/fields/SRTPT", "title": "Skin Response Planned Time Point Name", "type": "Root Data Element"}, "sdtmigDatasetMappingTargets": [{"href": "/mdr/sdtmig/3-3/datasets/SR/variables/SRTPT", "title": "Planned Time Point Name", "type": "SDTM Dataset Variable"}], "self": {"href": "/mdr/cdashig/2-2/domains/SR/fields/SRTPT", "title": "Skin Response Planned Time Point Name", "type": "Data Collection Field"}}, "completionInstructions": "Record the planned time-point labels for skin response, if not pre-pinted on the CRF.", "core": "R/C", "definition": "A text description of planned time point when measurements should be taken as defined in the protocol.", "implementationNotes": "Planned time points are needed to differentiate multiple sequential assessments. It is recommended that time points be pre-pinted on the CRF rather than collected in a free-text field. If the form is laid out as a grid, then words such as \"Planned Time Point\" can be included in the column heading.", "label": "Skin Response Planned Time Point Name", "mappingInstructions": "Maps directly to the SDTMIG variable listed in the SDTMIG Target column. See the SDTMIG for additional information on representing time points. Time-point anchors SRTPTREF (text description) and SRRFTDTC (date/time) may be needed, as well as SDTMIG variables SRTPTNUM, SRELTM.", "name": "SRTPT", "ordinal": "17", "prompt": "[Planned Time Point Name]", "questionText": "What was the planned time point for skin response measurement?", "simpleDatatype": "Char"}, {"_links": {"implements": {"href": "/mdr/cdash/1-2/classes/Timing/fields/--DAT", "title": "Collection Date", "type": "Class Variable"}, "parentDomain": {"href": "/mdr/cdashig/2-2/domains/SR", "title": "Skin Response", "type": "CDASH Domain"}, "parentProduct": {"href": "/mdr/cdashig/2-2", "title": "Clinical Data Acquisition Standards Harmonization Implementation Guide for Human Clinical Trials Version 2.2", "type": "Implementation Guide"}, "priorVersion": {"href": "/mdr/cdashig/2-1/domains/SR/fields/SRDAT", "title": "Skin Response Observation Date", "type": "Data Collection Field"}, "rootItem": {"href": "/mdr/root/cdashig/domains/SR/fields/SRDAT", "title": "Skin Response Observation Date", "type": "Root Data Element"}, "sdtmigDatasetMappingTargets": [{"href": "/mdr/sdtmig/3-3/datasets/SR/variables/SRDTC", "title": "Date/Time of Collection", "type": "SDTM Dataset Variable"}], "self": {"href": "/mdr/cdashig/2-2/domains/SR/fields/SRDAT", "title": "Skin Response Observation Date", "type": "Data Collection Field"}}, "completionInstructions": "Record the date of measurements using this format (DD-MON-YYYY).", "core": "R/C", "definition": "The date of the measurements, represented in an unambiguous date format (e.g., DD-MON-YYYY).", "implementationNotes": "The date of measurement can be determined from a collected date of the visit (VISDAT); in such cases, a separate measurement date field is not required.", "label": "Skin Response Observation Date", "mappingInstructions": "This does not map directly to an SDTMIG variable. For the SDTM submission dataset, concatenate all collected CDASH DATE and TIME components and populate the SDTMIG variable SRDTC in ISO 8601 format.", "name": "SRDAT", "ordinal": "18", "prompt": "Date", "questionText": "What was the date of the skin response measurement?", "simpleDatatype": "Char"}, {"_links": {"implements": {"href": "/mdr/cdash/1-2/classes/Timing/fields/--TIM", "title": "Collection Time", "type": "Class Variable"}, "parentDomain": {"href": "/mdr/cdashig/2-2/domains/SR", "title": "Skin Response", "type": "CDASH Domain"}, "parentProduct": {"href": "/mdr/cdashig/2-2", "title": "Clinical Data Acquisition Standards Harmonization Implementation Guide for Human Clinical Trials Version 2.2", "type": "Implementation Guide"}, "priorVersion": {"href": "/mdr/cdashig/2-1/domains/SR/fields/SRTIM", "title": "Skin Response Observation Time", "type": "Data Collection Field"}, "rootItem": {"href": "/mdr/root/cdashig/domains/SR/fields/SRTIM", "title": "Skin Response Observation Time", "type": "Root Data Element"}, "sdtmigDatasetMappingTargets": [{"href": "/mdr/sdtmig/3-3/datasets/SR/variables/SRDTC", "title": "Date/Time of Collection", "type": "SDTM Dataset Variable"}], "self": {"href": "/mdr/cdashig/2-2/domains/SR/fields/SRTIM", "title": "Skin Response Observation Time", "type": "Data Collection Field"}}, "completionInstructions": "Record the time of measurement (as complete as possible).", "core": "R/C", "definition": "The time of measurement, represented in an unambiguous time format (e.g., hh:mm:ss).", "implementationNotes": "The time of measurement (if required) can be determined from a collected time of the visit (VISTIM); in such cases. a separate measurement date field is not required.", "label": "Skin Response Observation Time", "mappingInstructions": "This does not map directly to an SDTMIG variable. For the SDTM submission dataset, concatenate all collected CDASH DATE and TIME components and populate the SDTMIG variable SRDTC in ISO 8601 format.", "name": "SRTIM", "ordinal": "19", "prompt": "Time", "questionText": "What was the time of the skin response measurement?", "simpleDatatype": "Char"}, {"_links": {"codelist": [{"href": "/mdr/root/ct/sdtmct/codelists/C99074", "title": "Version-agnostic anchor resource for codelist C99074", "type": "Root Value Domain"}], "implements": {"href": "/mdr/cdash/1-2/classes/Findings/fields/--DIR", "title": "Directionality", "type": "Class Variable"}, "parentDomain": {"href": "/mdr/cdashig/2-2/domains/SR", "title": "Skin Response", "type": "CDASH Domain"}, "parentProduct": {"href": "/mdr/cdashig/2-2", "title": "Clinical Data Acquisition Standards Harmonization Implementation Guide for Human Clinical Trials Version 2.2", "type": "Implementation Guide"}, "priorVersion": {"href": "/mdr/cdashig/2-1/domains/SR/fields/SRDIR", "title": "Skin Response Directionality", "type": "Data Collection Field"}, "rootItem": {"href": "/mdr/root/cdashig/domains/SR/fields/SRDIR", "title": "Skin Response Directionality", "type": "Root Data Element"}, "self": {"href": "/mdr/cdashig/2-2/domains/SR/fields/SRDIR", "title": "Skin Response Directionality", "type": "Data Collection Field"}}, "completionInstructions": "Record the directionality of the anatomical location where the test was performed.", "core": "O", "definition": "Qualifier further detailing the position of the anatomical location, relative to the center of the body, organ, or specimen.", "implementationNotes": "May be pre-printed or collected when the sponsor needs to identify the directionality of the anatomical location. Sponsors may collect the data using a subset list of controlled terminology on the CRF.", "label": "Skin Response Directionality", "mappingInstructions": "Maps directly to the SDTMIG variable listed in the SDTMIG Target column.", "name": "SRDIR", "ordinal": "20", "prompt": "Directionality", "questionText": "What was the directionality of the anatomical location of the skin response measurement?", "simpleDatatype": "Char"}, {"_links": {"codelist": [{"href": "/mdr/root/ct/sdtmct/codelists/C78735", "title": "Version-agnostic anchor resource for codelist C78735", "type": "Root Value Domain"}], "implements": {"href": "/mdr/cdash/1-2/classes/Findings/fields/--EVAL", "title": "Evaluator", "type": "Class Variable"}, "parentDomain": {"href": "/mdr/cdashig/2-2/domains/SR", "title": "Skin Response", "type": "CDASH Domain"}, "parentProduct": {"href": "/mdr/cdashig/2-2", "title": "Clinical Data Acquisition Standards Harmonization Implementation Guide for Human Clinical Trials Version 2.2", "type": "Implementation Guide"}, "priorVersion": {"href": "/mdr/cdashig/2-1/domains/SR/fields/SREVAL", "title": "Skin Response Evaluator", "type": "Data Collection Field"}, "rootItem": {"href": "/mdr/root/cdashig/domains/SR/fields/SREVAL", "title": "Skin Response Evaluator", "type": "Root Data Element"}, "sdtmigDatasetMappingTargets": [{"href": "/mdr/sdtmig/3-3/datasets/SR/variables/SREVAL", "title": "Evaluator", "type": "SDTM Dataset Variable"}], "self": {"href": "/mdr/cdashig/2-2/domains/SR/fields/SREVAL", "title": "Skin Response Evaluator", "type": "Data Collection Field"}}, "completionInstructions": "Select the role of the person who provided the evaluation (e.g., INVESTIGATOR, ADJUDICATION COMMITTEE, VENDOR).", "core": "O", "definition": "The role of the person who provided the evaluation.", "implementationNotes": "Used only for results that are subjective (e.g., assigned by a person or a group). May be a pre-printed or collected. Sponsors may collect the data using a subset list of controlled terminology on the CRF.", "label": "Skin Response Evaluator", "mappingInstructions": "Maps directly to the SDTMIG variable listed in the SDTMIG Target column.", "name": "SREVAL", "ordinal": "21", "prompt": "[Evaluator/Reporter]", "questionText": "Who was the evaluator?", "simpleDatatype": "Char"}, {"_links": {"codelist": [{"href": "/mdr/root/ct/sdtmct/codelists/C96777", "title": "Version-agnostic anchor resource for codelist C96777", "type": "Root Value Domain"}], "implements": {"href": "/mdr/cdash/1-2/classes/Findings/fields/--EVALID", "title": "Evaluator Identifier", "type": "Class Variable"}, "parentDomain": {"href": "/mdr/cdashig/2-2/domains/SR", "title": "Skin Response", "type": "CDASH Domain"}, "parentProduct": {"href": "/mdr/cdashig/2-2", "title": "Clinical Data Acquisition Standards Harmonization Implementation Guide for Human Clinical Trials Version 2.2", "type": "Implementation Guide"}, "priorVersion": {"href": "/mdr/cdashig/2-1/domains/SR/fields/SREVALID", "title": "Skin Response Evaluator Identifier", "type": "Data Collection Field"}, "rootItem": {"href": "/mdr/root/cdashig/domains/SR/fields/SREVALID", "title": "Skin Response Evaluator Identifier", "type": "Root Data Element"}, "self": {"href": "/mdr/cdashig/2-2/domains/SR/fields/SREVALID", "title": "Skin Response Evaluator Identifier", "type": "Data Collection Field"}}, "completionInstructions": "Record the unique identifier assigned to the person making the evaluation.", "core": "O", "definition": "Used to distinguish multiple evaluators with the same role recorded in SREVAL.", "implementationNotes": "If EVALID needs to be collected for each test on the horizontal record the CDASH variable [SRTESTCD]_ EVALID can be used.", "label": "Skin Response Evaluator Identifier", "mappingInstructions": "Maps directly to the SDTMIG variable listed in the SDTMIG Target column.", "name": "SREVALID", "ordinal": "22", "prompt": "[Evaluator/Reporter] Identifier", "questionText": "What was the identifier of the evaluator providing the skin response information?", "simpleDatatype": "Char"}, {"_links": {"implements": {"href": "/mdr/cdash/1-2/classes/Findings/fields/--ORRES", "title": "Result or Finding in Original Units", "type": "Class Variable"}, "parentDomain": {"href": "/mdr/cdashig/2-2/domains/SR", "title": "Skin Response", "type": "CDASH Domain"}, "parentProduct": {"href": "/mdr/cdashig/2-2", "title": "Clinical Data Acquisition Standards Harmonization Implementation Guide for Human Clinical Trials Version 2.2", "type": "Implementation Guide"}, "priorVersion": {"href": "/mdr/cdashig/2-1/domains/SR/fields/SRORRES", "title": "SR Results or Findings in Original Units", "type": "Data Collection Field"}, "rootItem": {"href": "/mdr/root/cdashig/domains/SR/fields/SRORRES", "title": "SR Results or Findings in Original Units", "type": "Root Data Element"}, "sdtmigDatasetMappingTargets": [{"href": "/mdr/sdtmig/3-3/datasets/SR/variables/SRORRES", "title": "Results or Findings in Original Units", "type": "SDTM Dataset Variable"}], "self": {"href": "/mdr/cdashig/2-2/domains/SR/fields/SRORRES", "title": "SR Results or Findings in Original Units", "type": "Data Collection Field"}}, "completionInstructions": "Record the skin response test result.", "core": "HR", "definition": "Result of the skin response test as originally received or collected.", "label": "SR Results or Findings in Original Units", "mappingInstructions": "Maps directly to the SDTMIG variable listed in the SDTMIG Target column.", "name": "SRORRES", "ordinal": "23", "prompt": "(Result)", "questionText": "What was the result of the skin response measurement?", "simpleDatatype": "Char"}, {"_links": {"codelist": [{"href": "/mdr/root/ct/sdtmct/codelists/C71620", "title": "Version-agnostic anchor resource for codelist C71620", "type": "Root Value Domain"}], "implements": {"href": "/mdr/cdash/1-2/classes/Findings/fields/--ORRESU", "title": "Original Units", "type": "Class Variable"}, "parentDomain": {"href": "/mdr/cdashig/2-2/domains/SR", "title": "Skin Response", "type": "CDASH Domain"}, "parentProduct": {"href": "/mdr/cdashig/2-2", "title": "Clinical Data Acquisition Standards Harmonization Implementation Guide for Human Clinical Trials Version 2.2", "type": "Implementation Guide"}, "priorVersion": {"href": "/mdr/cdashig/2-1/domains/SR/fields/SRORRESU", "title": "SR Original Units", "type": "Data Collection Field"}, "rootItem": {"href": "/mdr/root/cdashig/domains/SR/fields/SRORRESU", "title": "SR Original Units", "type": "Root Data Element"}, "sdtmigDatasetMappingTargets": [{"href": "/mdr/sdtmig/3-3/datasets/SR/variables/SRORRESU", "title": "Original Units", "type": "SDTM Dataset Variable"}], "self": {"href": "/mdr/cdashig/2-2/domains/SR/fields/SRORRESU", "title": "SR Original Units", "type": "Data Collection Field"}}, "completionInstructions": "Record or select the unit of measurement associated with the test, if not pre-pinted on the CRF.", "core": "R/C", "definition": "The unit of the result as originally received or collected.", "implementationNotes": "Should be pre-pinted on the CRF with the associated test when possible, rather than collected in a free-text field.", "label": "SR Original Units", "mappingInstructions": "Maps directly to the SDTMIG variable listed in the SDTMIG Target column.", "name": "SRORRESU", "ordinal": "24", "prompt": "Unit", "questionText": "What was the unit of the skin response measurement?", "simpleDatatype": "Char"}, {"_links": {"codelist": [{"href": "/mdr/root/ct/sdtmct/codelists/C78736", "title": "Version-agnostic anchor resource for codelist C78736", "type": "Root Value Domain"}], "implements": {"href": "/mdr/cdash/1-2/classes/Findings/fields/--NRIND", "title": "Normal/Reference Range Indicator", "type": "Class Variable"}, "parentDomain": {"href": "/mdr/cdashig/2-2/domains/SR", "title": "Skin Response", "type": "CDASH Domain"}, "parentProduct": {"href": "/mdr/cdashig/2-2", "title": "Clinical Data Acquisition Standards Harmonization Implementation Guide for Human Clinical Trials Version 2.2", "type": "Implementation Guide"}, "priorVersion": {"href": "/mdr/cdashig/2-1/domains/SR/fields/SRNRIND", "title": "Skin Response Reference Range Indicator", "type": "Data Collection Field"}, "rootItem": {"href": "/mdr/root/cdashig/domains/SR/fields/SRNRIND", "title": "Skin Response Reference Range Indicator", "type": "Root Data Element"}, "self": {"href": "/mdr/cdashig/2-2/domains/SR/fields/SRNRIND", "title": "Skin Response Reference Range Indicator", "type": "Data Collection Field"}}, "completionInstructions": "Record the categorization of the test results, within the respective reference range (e.g. HIGH, LOW, ABNORMAL).", "core": "O", "definition": "An indication or description about how the value compares to the normal range or reference range.", "implementationNotes": "The category of the value within the respective reference range. Ranges may be defined by SRORNRLO and SRORNRHI or other objective criteria. Reference Range Indicator may be included if not derived or determined programmatically after data collection. Should not be used to indicate clinical significance.", "label": "Skin Response Reference Range Indicator", "mappingInstructions": "Maps directly to the SDTMIG variable listed in the SDTMIG Target column.", "name": "SRNRIND", "ordinal": "25", "prompt": "Comparison to [Reference/Expected/Normal] Range", "questionText": "How [did/do] the reported values compare within the [reference/normal/expected] range?", "simpleDatatype": "Char"}, {"_links": {"codelist": [{"href": "/mdr/root/ct/sdtmct/codelists/C66742", "title": "Version-agnostic anchor resource for codelist C66742", "type": "Root Value Domain"}], "implements": {"href": "/mdr/cdash/1-2/classes/Findings/fields/--CLSIG", "title": "Clinical Significance", "type": "Class Variable"}, "parentDomain": {"href": "/mdr/cdashig/2-2/domains/SR", "title": "Skin Response", "type": "CDASH Domain"}, "parentProduct": {"href": "/mdr/cdashig/2-2", "title": "Clinical Data Acquisition Standards Harmonization Implementation Guide for Human Clinical Trials Version 2.2", "type": "Implementation Guide"}, "priorVersion": {"href": "/mdr/cdashig/2-1/domains/SR/fields/SRCLSIG", "title": "Skin Response Clinical Significance", "type": "Data Collection Field"}, "rootItem": {"href": "/mdr/root/cdashig/domains/SR/fields/SRCLSIG", "title": "Skin Response Clinical Significance", "type": "Root Data Element"}, "sdtmigDatasetMappingTargets": [{"href": "/mdr/sdtmig/3-3/datasets/SUPPQUAL/variables/QVAL", "title": "Data Value", "type": "SDTM Dataset Variable"}], "self": {"href": "/mdr/cdashig/2-2/domains/SR/fields/SRCLSIG", "title": "Skin Response Clinical Significance", "type": "Data Collection Field"}}, "completionInstructions": "Record whether the skin response result was clinically significant.", "core": "O", "definition": "An indication of whether the skin response result was clinically significant.", "implementationNotes": "If this level of information is needed, it may be added to the CRF.", "label": "Skin Response Clinical Significance", "mappingInstructions": "This does not map directly to an SDTMIG variable. This information could be submitted in a SUPPSR dataset as the value of SUPPSR.QVAL where SUPPSR.QNAM =\"SRCLSIG\" and SUPPSR.QLABEL=\"Clinically Significant\". Refer to the current SDTM and SDTMIG for instructions on placement of non-standard variables in SDTM domains.", "name": "SRCLSIG", "ordinal": "26", "prompt": "Clinically Significant", "questionText": "Was the result clinically significant?", "simpleDatatype": "Char"}], "label": "Skin Response", "name": "SR", "ordinal": "31"}
