{"_links": {"parentClass": {"href": "/mdr/cdashig/2-2/classes/Findings", "title": "Findings", "type": "Class"}, "parentProduct": {"href": "/mdr/cdashig/2-2", "title": "Clinical Data Acquisition Standards Harmonization Implementation Guide for Human Clinical Trials Version 2.2", "type": "Implementation Guide"}, "priorVersion": {"href": "/mdr/cdashig/2-1/domains/TR", "title": "Tumor Results", "type": "CDASH Domain"}, "self": {"href": "/mdr/cdashig/2-2/domains/TR", "title": "Tumor/Lesion Results", "type": "CDASH Domain"}}, "description": "A findings domain that represents quantitative measurements and/or qualitative assessments of the tumors or lesions identified in the tumor/lesion identification (TU) domain. (Source: CDISC Controlled Terminology, DOMAIN, C106578, 2021-06-25)", "fields": [{"_links": {"implements": {"href": "/mdr/cdash/1-2/classes/Identifiers/fields/STUDYID", "title": "Study Identifier", "type": "Class Variable"}, "parentDomain": {"href": "/mdr/cdashig/2-2/domains/TR", "title": "Tumor/Lesion Results", "type": "CDASH Domain"}, "parentProduct": {"href": "/mdr/cdashig/2-2", "title": "Clinical Data Acquisition Standards Harmonization Implementation Guide for Human Clinical Trials Version 2.2", "type": "Implementation Guide"}, "priorVersion": {"href": "/mdr/cdashig/2-1/domains/TR/fields/STUDYID", "title": "Study Identifier", "type": "Data Collection Field"}, "rootItem": {"href": "/mdr/root/cdashig/domains/TR/fields/STUDYID", "title": "Study Identifier", "type": "Root Data Element"}, "sdtmigDatasetMappingTargets": [{"href": "/mdr/sdtmig/3-3/datasets/TR/variables/STUDYID", "title": "Study Identifier", "type": "SDTM Dataset Variable"}], "self": {"href": "/mdr/cdashig/2-2/domains/TR/fields/STUDYID", "title": "Study Identifier", "type": "Data Collection Field"}}, "core": "HR", "definition": "A unique identifier for a study.", "implementationNotes": "Although this field is not typically captured on a CRF, it should be displayed clearly on the CRF and/or in the EDC system. This field can be included in the database or populated during SDTM-based dataset creation before submission.", "label": "Study Identifier", "mappingInstructions": "Maps directly to the SDTMIG variable listed in the SDTMIG Target column.", "name": "STUDYID", "ordinal": "1", "prompt": "[Protocol/Study]", "questionText": "What is the study identifier?", "simpleDatatype": "Char"}, {"_links": {"implements": {"href": "/mdr/cdash/1-2/classes/Identifiers/fields/SITEID", "title": "Study Site Identifier", "type": "Class Variable"}, "parentDomain": {"href": "/mdr/cdashig/2-2/domains/TR", "title": "Tumor/Lesion Results", "type": "CDASH Domain"}, "parentProduct": {"href": "/mdr/cdashig/2-2", "title": "Clinical Data Acquisition Standards Harmonization Implementation Guide for Human Clinical Trials Version 2.2", "type": "Implementation Guide"}, "priorVersion": {"href": "/mdr/cdashig/2-1/domains/TR/fields/SITEID", "title": "Study Site Identifier", "type": "Data Collection Field"}, "rootItem": {"href": "/mdr/root/cdashig/domains/TR/fields/SITEID", "title": "Study Site Identifier", "type": "Root Data Element"}, "sdtmigDatasetMappingTargets": [{"href": "/mdr/sdtmig/3-3/datasets/DM/variables/SITEID", "title": "Study Site Identifier", "type": "SDTM Dataset Variable"}], "self": {"href": "/mdr/cdashig/2-2/domains/TR/fields/SITEID", "title": "Study Site Identifier", "type": "Data Collection Field"}}, "core": "HR", "definition": "A unique identifier for a site within a study.", "implementationNotes": "Paper: This is typically pre-printed in the header of each CRF page for single-site studies. For studies with multiple sites, this field may be left blank so that the number can be recorded by the site, or it may be pre-printed on the CRFs that are shipped to each site. \\n EDC: This should be pre-populated.", "label": "Study Site Identifier", "mappingInstructions": "Maps directly to the SDTMIG variable listed in the SDTMIG Target column.", "name": "SITEID", "ordinal": "2", "prompt": "Site (Identifier)", "questionText": "What is the site identifier?", "simpleDatatype": "Char"}, {"_links": {"implements": {"href": "/mdr/cdash/1-2/classes/Identifiers/fields/SUBJID", "title": "Subject Identifier for the Study", "type": "Class Variable"}, "parentDomain": {"href": "/mdr/cdashig/2-2/domains/TR", "title": "Tumor/Lesion Results", "type": "CDASH Domain"}, "parentProduct": {"href": "/mdr/cdashig/2-2", "title": "Clinical Data Acquisition Standards Harmonization Implementation Guide for Human Clinical Trials Version 2.2", "type": "Implementation Guide"}, "priorVersion": {"href": "/mdr/cdashig/2-1/domains/TR/fields/SUBJID", "title": "Subject Identifier for the Study", "type": "Data Collection Field"}, "rootItem": {"href": "/mdr/root/cdashig/domains/TR/fields/SUBJID", "title": "Subject Identifier for the Study", "type": "Root Data Element"}, "sdtmigDatasetMappingTargets": [{"href": "/mdr/sdtmig/3-3/datasets/DM/variables/SUBJID", "title": "Subject Identifier for the Study", "type": "SDTM Dataset Variable"}], "self": {"href": "/mdr/cdashig/2-2/domains/TR/fields/SUBJID", "title": "Subject Identifier for the Study", "type": "Data Collection Field"}}, "completionInstructions": "Record the identifier for the subject.", "core": "HR", "definition": "A unique subject identifier within a site and a study.", "implementationNotes": "Paper: This is typically recorded in the header of each CRF page. EDC: The subject identifiers may be system-generated. This CDASH variable is typically collected in all CDASH domains. However, this CDASH variable is populated only in the SDTMIG DM domain. For more information, refer to the SDTMIG.", "label": "Subject Identifier for the Study", "mappingInstructions": "Maps directly to the SDTMIG variable listed in the SDTMIG Target column.", "name": "SUBJID", "ordinal": "3", "prompt": "[Subject/Participant] (Identifier)", "questionText": "What [is/was] the (study) [subject/participant] identifier?", "simpleDatatype": "Char"}, {"_links": {"implements": {"href": "/mdr/cdash/1-2/classes/Timing/fields/VISIT", "title": "Visit Name", "type": "Class Variable"}, "parentDomain": {"href": "/mdr/cdashig/2-2/domains/TR", "title": "Tumor/Lesion Results", "type": "CDASH Domain"}, "parentProduct": {"href": "/mdr/cdashig/2-2", "title": "Clinical Data Acquisition Standards Harmonization Implementation Guide for Human Clinical Trials Version 2.2", "type": "Implementation Guide"}, "priorVersion": {"href": "/mdr/cdashig/2-1/domains/TR/fields/VISIT", "title": "Visit Name", "type": "Data Collection Field"}, "rootItem": {"href": "/mdr/root/cdashig/domains/TR/fields/VISIT", "title": "Visit Name", "type": "Root Data Element"}, "sdtmigDatasetMappingTargets": [{"href": "/mdr/sdtmig/3-3/datasets/TR/variables/VISIT", "title": "Visit Name", "type": "SDTM Dataset Variable"}], "self": {"href": "/mdr/cdashig/2-2/domains/TR/fields/VISIT", "title": "Visit Name", "type": "Data Collection Field"}}, "core": "R/C", "definition": "The name of a clinical encounter that encompasses planned and unplanned trial interventions, procedures, and assessments that may be performed on a subject.", "implementationNotes": "The name of the clinical encounter is typically pre-printed on the CRF or displayed within the EDC for any visit-based data collection, most often in Findings domains. This Visit text description is then available in any EDC data extract for that Findings domain.", "label": "Visit Name", "mappingInstructions": "Maps directly to the SDTMIG variable listed in the SDTMIG Target column.", "name": "VISIT", "ordinal": "4", "prompt": "[Visit]", "questionText": "What is the visit name?", "simpleDatatype": "Char"}, {"_links": {"implements": {"href": "/mdr/cdash/1-2/classes/Timing/fields/VISDAT", "title": "Visit Date", "type": "Class Variable"}, "parentDomain": {"href": "/mdr/cdashig/2-2/domains/TR", "title": "Tumor/Lesion Results", "type": "CDASH Domain"}, "parentProduct": {"href": "/mdr/cdashig/2-2", "title": "Clinical Data Acquisition Standards Harmonization Implementation Guide for Human Clinical Trials Version 2.2", "type": "Implementation Guide"}, "priorVersion": {"href": "/mdr/cdashig/2-1/domains/TR/fields/VISDAT", "title": "Visit Date", "type": "Data Collection Field"}, "rootItem": {"href": "/mdr/root/cdashig/domains/TR/fields/VISDAT", "title": "Visit Date", "type": "Root Data Element"}, "self": {"href": "/mdr/cdashig/2-2/domains/TR/fields/VISDAT", "title": "Visit Date", "type": "Data Collection Field"}}, "completionInstructions": "Record the [date/start date] of the visit using this format (DD-MON-YYYY).", "core": "R/C", "definition": "Date the clinical encounter occurred (or started).", "implementationNotes": "If the date the test was collected can be determined from the visit date variable (VISDAT), apply that date to all of the tests at that visit, or the collection date can be collected on the CRF using the date (TRDAT). In this domain, it may not be appropriate to use the vist date as TRDTC.", "label": "Visit Date", "mappingInstructions": "This field is not an SDTM variable. If the date of a measurement, test, observation can be determined from the date/time of visit (VISDAT/VISTIM) and then concatenating the CDASH VISDAT/VISTIM components and populating the SDTMIG variable TRDTC in ISO 8601 format.", "name": "VISDAT", "ordinal": "5", "prompt": "(Visit) Date", "questionText": "What [is/was] the date of the visit?", "simpleDatatype": "Char"}, {"_links": {"implements": {"href": "/mdr/cdash/1-2/classes/Identifiers/fields/--LNKGRP", "title": "Link Group ID", "type": "Class Variable"}, "parentDomain": {"href": "/mdr/cdashig/2-2/domains/TR", "title": "Tumor/Lesion Results", "type": "CDASH Domain"}, "parentProduct": {"href": "/mdr/cdashig/2-2", "title": "Clinical Data Acquisition Standards Harmonization Implementation Guide for Human Clinical Trials Version 2.2", "type": "Implementation Guide"}, "priorVersion": {"href": "/mdr/cdashig/2-1/domains/TR/fields/TRLNKGRP", "title": "Tumor/Lesion Result Link Group", "type": "Data Collection Field"}, "rootItem": {"href": "/mdr/root/cdashig/domains/TR/fields/TRLNKGRP", "title": "Tumor/Lesion Result Link Group", "type": "Root Data Element"}, "sdtmigDatasetMappingTargets": [{"href": "/mdr/sdtmig/3-3/datasets/TR/variables/TRLNKGRP", "title": "Link Group", "type": "SDTM Dataset Variable"}], "self": {"href": "/mdr/cdashig/2-2/domains/TR/fields/TRLNKGRP", "title": "Tumor/Lesion Result Link Group", "type": "Data Collection Field"}}, "completionInstructions": "If collected on the CRF, the sponsor may insert instructions to ensure each record has the appropriate identifier.", "core": "O", "definition": "An identifier used to link related records across domains.", "implementationNotes": "Because TRLNKGRP is a sponsor-defined identifier, conformance to Question Text or Item Prompt is not applicable. This is typically used in oncology clincial trials. It is intended to group all the assessments at a evaluation time point represented in the TR domain with the associated response assessments represented in the RS domain.", "label": "Tumor/Lesion Result Link Group", "mappingInstructions": "Maps directly to the SDTMIG variable listed in the SDTMIG Target column.", "name": "TRLNKGRP", "ordinal": "6", "prompt": "[Tumor/Lesion] [Link Group] ID", "questionText": "What was the [tumor/lesion] [link group] identifier?", "simpleDatatype": "Char"}, {"_links": {"implements": {"href": "/mdr/cdash/1-2/classes/Findings/fields/--CAT", "title": "Category", "type": "Class Variable"}, "parentDomain": {"href": "/mdr/cdashig/2-2/domains/TR", "title": "Tumor/Lesion Results", "type": "CDASH Domain"}, "parentProduct": {"href": "/mdr/cdashig/2-2", "title": "Clinical Data Acquisition Standards Harmonization Implementation Guide for Human Clinical Trials Version 2.2", "type": "Implementation Guide"}, "priorVersion": {"href": "/mdr/cdashig/2-1/domains/TR/fields/TRCAT", "title": "Category of Tumor/Lesion Result", "type": "Data Collection Field"}, "rootItem": {"href": "/mdr/root/cdashig/domains/TR/fields/TRCAT", "title": "Category of Tumor/Lesion Result", "type": "Root Data Element"}, "self": {"href": "/mdr/cdashig/2-2/domains/TR/fields/TRCAT", "title": "Category of Tumor/Lesion Result", "type": "Data Collection Field"}}, "completionInstructions": "Record the tumor/lesion result category, if not pre-printed on the CRF.", "core": "O", "definition": "A grouping of topic-variable values based on user-defined characteristics.", "implementationNotes": "Sponsor-defined controlled terminology. This would most commonly be either a heading or a pre-printed category value on the CRF, not a question to which the site would provide an answer. If a question is asked, the response would typically be a sponsor-defined codelist. If the form is laid out as a grid, then words such as \"Category\" can be included in the column heading.", "label": "Category of Tumor/Lesion Result", "mappingInstructions": "Maps directly to the SDTMIG variable listed in the SDTMIG Target column.", "name": "TRCAT", "ordinal": "7", "prompt": "[Tumor/Lesion Result Category]; or NULL", "questionText": "What is the category of the [tumor/lesion] results?", "simpleDatatype": "Char"}, {"_links": {"implements": {"href": "/mdr/cdash/1-2/classes/Findings/fields/--SCAT", "title": "Subcategory", "type": "Class Variable"}, "parentDomain": {"href": "/mdr/cdashig/2-2/domains/TR", "title": "Tumor/Lesion Results", "type": "CDASH Domain"}, "parentProduct": {"href": "/mdr/cdashig/2-2", "title": "Clinical Data Acquisition Standards Harmonization Implementation Guide for Human Clinical Trials Version 2.2", "type": "Implementation Guide"}, "priorVersion": {"href": "/mdr/cdashig/2-1/domains/TR/fields/TRSCAT", "title": "Subcategory of Tumor/Lesion Result", "type": "Data Collection Field"}, "rootItem": {"href": "/mdr/root/cdashig/domains/TR/fields/TRSCAT", "title": "Subcategory of Tumor/Lesion Result", "type": "Root Data Element"}, "self": {"href": "/mdr/cdashig/2-2/domains/TR/fields/TRSCAT", "title": "Subcategory of Tumor/Lesion Result", "type": "Data Collection Field"}}, "completionInstructions": "Record the tumor/lesion result subcategory, if not pre-printed on the CRF.", "core": "O", "definition": "A subgrouping of topic-variable values based on user-defined characteristics.", "implementationNotes": "Sponsor-defined controlled terminology. This would most commonly be pre-printed on the CRF or screen and prepopulated in the data management system. This is not typically a question to which the site would provide an answer. TRSCAT can only be used if there is a TRCAT, and it must be a subcategorization of TRCAT.", "label": "Subcategory of Tumor/Lesion Result", "mappingInstructions": "Maps directly to the SDTMIG variable listed in the SDTMIG Target column.", "name": "TRSCAT", "ordinal": "8", "prompt": "[Tumor/Lesion Result Subcategory]; or NULL", "questionText": "What is the subcategory of the [tumor/lesion] results?", "simpleDatatype": "Char"}, {"_links": {"codelist": [{"href": "/mdr/root/ct/sdtmct/codelists/C66789", "title": "Version-agnostic anchor resource for codelist C66789", "type": "Root Value Domain"}], "implements": {"href": "/mdr/cdash/1-2/classes/Findings/fields/--STAT", "title": "Completion Status", "type": "Class Variable"}, "parentDomain": {"href": "/mdr/cdashig/2-2/domains/TR", "title": "Tumor/Lesion Results", "type": "CDASH Domain"}, "parentProduct": {"href": "/mdr/cdashig/2-2", "title": "Clinical Data Acquisition Standards Harmonization Implementation Guide for Human Clinical Trials Version 2.2", "type": "Implementation Guide"}, "priorVersion": {"href": "/mdr/cdashig/2-1/domains/TR/fields/TRSTAT", "title": "Tumor/Lesion Result Completion Status", "type": "Data Collection Field"}, "rootItem": {"href": "/mdr/root/cdashig/domains/TR/fields/TRSTAT", "title": "Tumor/Lesion Result Completion Status", "type": "Root Data Element"}, "sdtmigDatasetMappingTargets": [{"href": "/mdr/sdtmig/3-3/datasets/TR/variables/TRSTAT", "title": "Completion Status", "type": "SDTM Dataset Variable"}], "self": {"href": "/mdr/cdashig/2-2/domains/TR/fields/TRSTAT", "title": "Tumor/Lesion Result Completion Status", "type": "Data Collection Field"}}, "completionInstructions": "Indicate if the [tumor/lesion] evaluation was not done.", "core": "O", "definition": "This variable is used to indicate that data are not available, by having the site record the value as \"Not Done\".", "implementationNotes": "A Not Done checkbox, which indicates the test was NOT DONE. Typically, there would be 1 check box for each result. This field can be useful to confirm that a blank result field is meant to be blank.", "label": "Tumor/Lesion Result Completion Status", "mappingInstructions": "Maps directly to the SDTMIG variable listed in the SDTMIG Target column.", "name": "TRSTAT", "ordinal": "9", "prompt": "Not Done", "questionText": "Indicate if the [tumor/lesion] evaluation was not done.", "simpleDatatype": "Char"}, {"_links": {"implements": {"href": "/mdr/cdash/1-2/classes/Findings/fields/--REASND", "title": "Reason Not Done", "type": "Class Variable"}, "parentDomain": {"href": "/mdr/cdashig/2-2/domains/TR", "title": "Tumor/Lesion Results", "type": "CDASH Domain"}, "parentProduct": {"href": "/mdr/cdashig/2-2", "title": "Clinical Data Acquisition Standards Harmonization Implementation Guide for Human Clinical Trials Version 2.2", "type": "Implementation Guide"}, "priorVersion": {"href": "/mdr/cdashig/2-1/domains/TR/fields/TRREASND", "title": "Reason Tumor Measurement Not Performed", "type": "Data Collection Field"}, "rootItem": {"href": "/mdr/root/cdashig/domains/TR/fields/TRREASND", "title": "Reason Tumor Measurement Not Performed", "type": "Root Data Element"}, "sdtmigDatasetMappingTargets": [{"href": "/mdr/sdtmig/3-3/datasets/TR/variables/TRREASND", "title": "Reason Not Done", "type": "SDTM Dataset Variable"}], "self": {"href": "/mdr/cdashig/2-2/domains/TR/fields/TRREASND", "title": "Reason Tumor Measurement Not Performed", "type": "Data Collection Field"}}, "completionInstructions": "Provide the reason the result was not provided.", "core": "O", "definition": "An explanation of why the data are not available.", "implementationNotes": "Sponsor-defined controlled terminology may be used. The reason the data are not available may be chosen from a sponsor-defined codelist (e.g., broken equipment, subject refused) or entered as free text. When TRREASND is used, TRSTAT should also be populated in the SDTM-based dataset.", "label": "Reason Tumor Measurement Not Performed", "mappingInstructions": "Maps directly to the SDTMIG variable listed in the SDTMIG Target column.", "name": "TRREASND", "ordinal": "10", "prompt": "Reason Not Done", "questionText": "What was the reason that the [tumor/lesion] was not [evaluated/assessed]?", "simpleDatatype": "Char"}, {"_links": {"codelist": [{"href": "/mdr/root/ct/sdtmct/codelists/C78735", "title": "Version-agnostic anchor resource for codelist C78735", "type": "Root Value Domain"}], "implements": {"href": "/mdr/cdash/1-2/classes/Findings/fields/--EVAL", "title": "Evaluator", "type": "Class Variable"}, "parentDomain": {"href": "/mdr/cdashig/2-2/domains/TR", "title": "Tumor/Lesion Results", "type": "CDASH Domain"}, "parentProduct": {"href": "/mdr/cdashig/2-2", "title": "Clinical Data Acquisition Standards Harmonization Implementation Guide for Human Clinical Trials Version 2.2", "type": "Implementation Guide"}, "priorVersion": {"href": "/mdr/cdashig/2-1/domains/TR/fields/TREVAL", "title": "Tumor/Lesion Result Evaluator", "type": "Data Collection Field"}, "rootItem": {"href": "/mdr/root/cdashig/domains/TR/fields/TREVAL", "title": "Tumor/Lesion Result Evaluator", "type": "Root Data Element"}, "sdtmigDatasetMappingTargets": [{"href": "/mdr/sdtmig/3-3/datasets/TR/variables/TREVAL", "title": "Evaluator", "type": "SDTM Dataset Variable"}], "self": {"href": "/mdr/cdashig/2-2/domains/TR/fields/TREVAL", "title": "Tumor/Lesion Result Evaluator", "type": "Data Collection Field"}}, "completionInstructions": "Select the role of the person who provided the evaluation (e.g., INVESTIGATOR, ADJUDICATION COMMITTEE, VENDOR).", "core": "O", "definition": "The role of the person who provided the information.", "implementationNotes": "Used only for results that are subjective (e.g., assigned by a person or a group). May be pre-printed or collected. Sponsors may collect the data using a subset list of controlled terminology on the CRF.", "label": "Tumor/Lesion Result Evaluator", "mappingInstructions": "Maps directly to the SDTMIG variable listed in the SDTMIG Target column.", "name": "TREVAL", "ordinal": "11", "prompt": "[Evaluator/Reporter]", "questionText": "Who provided the information?; Who was the evaluator?", "simpleDatatype": "Char"}, {"_links": {"codelist": [{"href": "/mdr/root/ct/sdtmct/codelists/C96777", "title": "Version-agnostic anchor resource for codelist C96777", "type": "Root Value Domain"}], "implements": {"href": "/mdr/cdash/1-2/classes/Findings/fields/--EVALID", "title": "Evaluator Identifier", "type": "Class Variable"}, "parentDomain": {"href": "/mdr/cdashig/2-2/domains/TR", "title": "Tumor/Lesion Results", "type": "CDASH Domain"}, "parentProduct": {"href": "/mdr/cdashig/2-2", "title": "Clinical Data Acquisition Standards Harmonization Implementation Guide for Human Clinical Trials Version 2.2", "type": "Implementation Guide"}, "priorVersion": {"href": "/mdr/cdashig/2-1/domains/TR/fields/TREVALID", "title": "Tumor/Lesion Result Evaluator Identifier", "type": "Data Collection Field"}, "rootItem": {"href": "/mdr/root/cdashig/domains/TR/fields/TREVALID", "title": "Tumor/Lesion Result Evaluator Identifier", "type": "Root Data Element"}, "sdtmigDatasetMappingTargets": [{"href": "/mdr/sdtmig/3-3/datasets/TR/variables/TREVALID", "title": "Evaluator Identifier", "type": "SDTM Dataset Variable"}], "self": {"href": "/mdr/cdashig/2-2/domains/TR/fields/TREVALID", "title": "Tumor/Lesion Result Evaluator Identifier", "type": "Data Collection Field"}}, "completionInstructions": "Record the unique identifier assigned to the person making the evaluation.", "core": "O", "definition": "Used to distinguish multiple evaluators with the same role.", "implementationNotes": "Collect if multiple evaluators are used in the study (may be omitted if multiple evaluators are not used); values should follow controlled terminology.", "label": "Tumor/Lesion Result Evaluator Identifier", "mappingInstructions": "Maps directly to the SDTMIG variable listed in the SDTMIG Target column.", "name": "TREVALID", "ordinal": "12", "prompt": "Evaluator Identifier", "questionText": "What was the identifier of the evaluator?", "simpleDatatype": "Char"}, {"_links": {"implements": {"href": "/mdr/cdash/1-2/classes/Timing/fields/--DAT", "title": "Collection Date", "type": "Class Variable"}, "parentDomain": {"href": "/mdr/cdashig/2-2/domains/TR", "title": "Tumor/Lesion Results", "type": "CDASH Domain"}, "parentProduct": {"href": "/mdr/cdashig/2-2", "title": "Clinical Data Acquisition Standards Harmonization Implementation Guide for Human Clinical Trials Version 2.2", "type": "Implementation Guide"}, "priorVersion": {"href": "/mdr/cdashig/2-1/domains/TR/fields/TRDAT", "title": "Tumor/Lesion Result Date", "type": "Data Collection Field"}, "rootItem": {"href": "/mdr/root/cdashig/domains/TR/fields/TRDAT", "title": "Tumor/Lesion Result Date", "type": "Root Data Element"}, "sdtmigDatasetMappingTargets": [{"href": "/mdr/sdtmig/3-3/datasets/TR/variables/TRDTC", "title": "Date/Time of Tumor/Lesion Measurement", "type": "SDTM Dataset Variable"}], "self": {"href": "/mdr/cdashig/2-2/domains/TR/fields/TRDAT", "title": "Tumor/Lesion Result Date", "type": "Data Collection Field"}}, "completionInstructions": "Record the date when the method used to assess the tumor/lesion occurred using this format (DD-MON-YYYY).", "core": "R/C", "definition": "The date of the procedure used for tumor/lesion assessment, represented in an unambiguous date format (e.g., DD-MON-YYYY).", "implementationNotes": "This is the date of the scan/image/physical exam used to evaluate the tumor/lesion. It is not the date the MRI or scan was read. This is typically not the visit date.", "label": "Tumor/Lesion Result Date", "mappingInstructions": "This does not map directly to an SDTMIG variable. For the SDTM submission dataset, concatenate all collected CDASH DATE and TIME components and populate the SDTMIG variable TRDTC in ISO 8601 format.", "name": "TRDAT", "ordinal": "13", "prompt": "[Tumor/Lesion] Assessment Procedure Date", "questionText": "What was the date of the procedure used for [tumor/lesion] assessment?", "simpleDatatype": "Char"}, {"_links": {"implements": {"href": "/mdr/cdash/1-2/classes/Identifiers/fields/--LNKID", "title": "Link ID", "type": "Class Variable"}, "parentDomain": {"href": "/mdr/cdashig/2-2/domains/TR", "title": "Tumor/Lesion Results", "type": "CDASH Domain"}, "parentProduct": {"href": "/mdr/cdashig/2-2", "title": "Clinical Data Acquisition Standards Harmonization Implementation Guide for Human Clinical Trials Version 2.2", "type": "Implementation Guide"}, "priorVersion": {"href": "/mdr/cdashig/2-1/domains/TR/fields/TRLNKID", "title": "Tumor/Lesion Result Link ID", "type": "Data Collection Field"}, "rootItem": {"href": "/mdr/root/cdashig/domains/TR/fields/TRLNKID", "title": "Tumor/Lesion Result Link ID", "type": "Root Data Element"}, "sdtmigDatasetMappingTargets": [{"href": "/mdr/sdtmig/3-3/datasets/TR/variables/TRLNKID", "title": "Link ID", "type": "SDTM Dataset Variable"}], "self": {"href": "/mdr/cdashig/2-2/domains/TR/fields/TRLNKID", "title": "Tumor/Lesion Result Link ID", "type": "Data Collection Field"}}, "completionInstructions": "If collected, record the unique identifier for this tumor/lesion.", "core": "R/C", "definition": "An identifier used to link identified tumor/lesion to the assessment result.", "implementationNotes": "This variable is used to provide a unique code for each identified tumor in order to link records across related CRFs (TU and TR) when appropriate. Sponsors develop their own conventions for populating --LNKID. Typically, the lesion/tumor is assigned the --LNKID at baseline when the tumor/lesion is identified, and this --LNKID is used at other visits to collect assessments on this tumor or lesion. \\n Note: This variable may be collected using 1 CDASH variable name (e.g., TULNKID) and populated into TRLNKID when creating submisson datasets.", "label": "Tumor/Lesion Result Link ID", "mappingInstructions": "Maps directly to the SDTMIG variable listed in the SDTMIG Target column.", "name": "TRLNKID", "ordinal": "14", "prompt": "[Tumor/ Lesion] ID", "questionText": "What was the [tumor/lesion] Identifier?", "simpleDatatype": "Char"}, {"_links": {"codelist": [{"href": "/mdr/root/ct/sdtmct/codelists/C96778", "title": "Version-agnostic anchor resource for codelist C96778", "type": "Root Value Domain"}], "implements": {"href": "/mdr/cdash/1-2/classes/Findings/fields/--TEST", "title": "Name of Measurement, Test, or Exam", "type": "Class Variable"}, "parentDomain": {"href": "/mdr/cdashig/2-2/domains/TR", "title": "Tumor/Lesion Results", "type": "CDASH Domain"}, "parentProduct": {"href": "/mdr/cdashig/2-2", "title": "Clinical Data Acquisition Standards Harmonization Implementation Guide for Human Clinical Trials Version 2.2", "type": "Implementation Guide"}, "priorVersion": {"href": "/mdr/cdashig/2-1/domains/TR/fields/TRTEST", "title": "Tumor/Lesion Assessment Test Name", "type": "Data Collection Field"}, "rootItem": {"href": "/mdr/root/cdashig/domains/TR/fields/TRTEST", "title": "Tumor/Lesion Assessment Test Name", "type": "Root Data Element"}, "sdtmigDatasetMappingTargets": [{"href": "/mdr/sdtmig/3-3/datasets/TR/variables/TRTEST", "title": "Tumor/Lesion Assessment Test Name", "type": "SDTM Dataset Variable"}, {"href": "/mdr/sdtmig/3-3/datasets/TR/variables/TRTESTCD", "title": "Tumor/Lesion Assessment Short Name", "type": "SDTM Dataset Variable"}], "self": {"href": "/mdr/cdashig/2-2/domains/TR/fields/TRTEST", "title": "Tumor/Lesion Assessment Test Name", "type": "Data Collection Field"}}, "completionInstructions": "Record the name of the tumor lesion assessment, if not pre-printed on the CRF. If collected on the CRF, the sponsor may provide additional instructions to ensure the data is entered as intended.", "core": "HR", "definition": "Descriptive name of the measurement or finding.", "implementationNotes": "Required to identify which test the result is for. It is recommended that the test names be pre-printed on the CRF rather than collected in a free-text field. If the form is laid out as a grid, then words such as \"Test\" can be included in the column heading.", "label": "Tumor/Lesion Assessment Test Name", "mappingInstructions": "Maps directly to the SDTMIG variable listed in the SDTMIG Target column. The SDTMIG variable TRTESTCD may be determined from the value collected in TRTEST. The SDTMIG variables TRTESTCD and TRTEST are required in SDTM submission datasets. Use appropriate CDISC Controlled Terminology for the test and test code.", "name": "TRTEST", "ordinal": "15", "prompt": "[Tumor/Lesion] (Assessment) Test Name]", "questionText": "What was the [tumor/ lesion] (assessment) test name?", "simpleDatatype": "Char"}, {"_links": {"implements": {"href": "/mdr/cdash/1-2/classes/Findings/fields/--ORRES", "title": "Result or Finding in Original Units", "type": "Class Variable"}, "parentDomain": {"href": "/mdr/cdashig/2-2/domains/TR", "title": "Tumor/Lesion Results", "type": "CDASH Domain"}, "parentProduct": {"href": "/mdr/cdashig/2-2", "title": "Clinical Data Acquisition Standards Harmonization Implementation Guide for Human Clinical Trials Version 2.2", "type": "Implementation Guide"}, "priorVersion": {"href": "/mdr/cdashig/2-1/domains/TR/fields/TRORRES", "title": "TR Result or Finding in Original Units", "type": "Data Collection Field"}, "rootItem": {"href": "/mdr/root/cdashig/domains/TR/fields/TRORRES", "title": "TR Result or Finding in Original Units", "type": "Root Data Element"}, "sdtmigDatasetMappingTargets": [{"href": "/mdr/sdtmig/3-3/datasets/TR/variables/TRORRES", "title": "Result or Finding in Original Units", "type": "SDTM Dataset Variable"}, {"href": "/mdr/sdtmig/3-3/datasets/TR/variables/TRTESTCD", "title": "Tumor/Lesion Assessment Short Name", "type": "SDTM Dataset Variable"}, {"href": "/mdr/sdtmig/3-3/datasets/TR/variables/TRTEST", "title": "Tumor/Lesion Assessment Test Name", "type": "SDTM Dataset Variable"}], "self": {"href": "/mdr/cdashig/2-2/domains/TR/fields/TRORRES", "title": "TR Result or Finding in Original Units", "type": "Data Collection Field"}}, "completionInstructions": "Record the tumor/lesion assessment result.", "core": "HR", "definition": "Result of the tumor/lesion assessment.", "implementationNotes": "Result of the tumor/lesion assessment. Both quantitative and qualitative results may be recorded here.", "label": "TR Result or Finding in Original Units", "mappingInstructions": "Maps directly to the SDTMIG variable listed in the SDTMIG Target column. In addition to the SDTMIG variable TRORRES, create TRTESTCD from the CDASH variable name and determine the value of TRTEST from TRTESTCD. The CDASH prompt may also contain the TRTEST. Use appropriate CDISC Controlled Terminology for the test and test code.", "name": "TRORRES", "ordinal": "16", "prompt": "(Result)", "questionText": "What is the result for the [tumor/lesion assessment]?", "simpleDatatype": "Char"}, {"_links": {"codelist": [{"href": "/mdr/root/ct/sdtmct/codelists/C71620", "title": "Version-agnostic anchor resource for codelist C71620", "type": "Root Value Domain"}], "implements": {"href": "/mdr/cdash/1-2/classes/Findings/fields/--ORRESU", "title": "Original Units", "type": "Class Variable"}, "parentDomain": {"href": "/mdr/cdashig/2-2/domains/TR", "title": "Tumor/Lesion Results", "type": "CDASH Domain"}, "parentProduct": {"href": "/mdr/cdashig/2-2", "title": "Clinical Data Acquisition Standards Harmonization Implementation Guide for Human Clinical Trials Version 2.2", "type": "Implementation Guide"}, "priorVersion": {"href": "/mdr/cdashig/2-1/domains/TR/fields/TRORRESU", "title": "TR Original Units", "type": "Data Collection Field"}, "rootItem": {"href": "/mdr/root/cdashig/domains/TR/fields/TRORRESU", "title": "TR Original Units", "type": "Root Data Element"}, "sdtmigDatasetMappingTargets": [{"href": "/mdr/sdtmig/3-3/datasets/TR/variables/TRORRESU", "title": "Original Units", "type": "SDTM Dataset Variable"}], "self": {"href": "/mdr/cdashig/2-2/domains/TR/fields/TRORRESU", "title": "TR Original Units", "type": "Data Collection Field"}}, "completionInstructions": "Record or select the original units in which these data were collected, if not pre-printed on CRF.", "core": "R/C", "definition": "The unit of the result as originally received or collected.", "implementationNotes": "Usually, the unit of the test is pre-printed on the CRF.", "label": "TR Original Units", "mappingInstructions": "Maps directly to the SDTMIG variable listed in the SDTMIG Target column.", "name": "TRORRESU", "ordinal": "17", "prompt": "Unit", "questionText": "What was the unit of the [result/measurement]?", "simpleDatatype": "Char"}, {"_links": {"implements": {"href": "/mdr/cdash/1-2/classes/Findings/fields/--NAM", "title": "Laboratory/Vendor Name", "type": "Class Variable"}, "parentDomain": {"href": "/mdr/cdashig/2-2/domains/TR", "title": "Tumor/Lesion Results", "type": "CDASH Domain"}, "parentProduct": {"href": "/mdr/cdashig/2-2", "title": "Clinical Data Acquisition Standards Harmonization Implementation Guide for Human Clinical Trials Version 2.2", "type": "Implementation Guide"}, "priorVersion": {"href": "/mdr/cdashig/2-1/domains/TR/fields/TRNAM", "title": "Tumor/Lesion Result Vendor Name", "type": "Data Collection Field"}, "rootItem": {"href": "/mdr/root/cdashig/domains/TR/fields/TRNAM", "title": "Tumor/Lesion Result Vendor Name", "type": "Root Data Element"}, "sdtmigDatasetMappingTargets": [{"href": "/mdr/sdtmig/3-3/datasets/TR/variables/TRNAM", "title": "Laboratory/Vendor Name", "type": "SDTM Dataset Variable"}], "self": {"href": "/mdr/cdashig/2-2/domains/TR/fields/TRNAM", "title": "Tumor/Lesion Result Vendor Name", "type": "Data Collection Field"}}, "completionInstructions": "Record the name of the vendor providing the evaluation.", "core": "O", "definition": "The name or identifier of the vendor (e.g., laboratory) that provided the test results.", "implementationNotes": "It is recommended to collect on the CRF if vendor name was not collected at the site/study level or if multiple vendors are used by a site.", "label": "Tumor/Lesion Result Vendor Name", "mappingInstructions": "Maps directly to the SDTMIG variable listed in the SDTMIG Target column.", "name": "TRNAM", "ordinal": "18", "prompt": "Vendor Name", "questionText": "What was the name of the vendor used?", "simpleDatatype": "Char"}], "label": "Tumor/Lesion Results", "name": "TR", "ordinal": "33"}
