{"_links": {"parentClass": {"href": "/mdr/cdashig/2-2/classes/Findings", "title": "Findings", "type": "Class"}, "parentProduct": {"href": "/mdr/cdashig/2-2", "title": "Clinical Data Acquisition Standards Harmonization Implementation Guide for Human Clinical Trials Version 2.2", "type": "Implementation Guide"}, "priorVersion": {"href": "/mdr/cdashig/2-1/domains/TU", "title": "Tumor Identification", "type": "CDASH Domain"}, "self": {"href": "/mdr/cdashig/2-2/domains/TU", "title": "Tumor/Lesion Identification", "type": "CDASH Domain"}}, "description": "A findings domain that represents data that uniquely identifies tumors or lesions under study. (Source: CDISC Controlled Terminology, DOMAIN, C106577, 2021-06-25)", "fields": [{"_links": {"parentDomain": {"href": "/mdr/cdashig/2-2/domains/TU", "title": "Tumor/Lesion Identification", "type": "CDASH Domain"}, "parentProduct": {"href": "/mdr/cdashig/2-2", "title": "Clinical Data Acquisition Standards Harmonization Implementation Guide for Human Clinical Trials Version 2.2", "type": "Implementation Guide"}, "priorVersion": {"href": "/mdr/cdashig/2-1/domains/TU/fields/STUDYID", "title": "Study Identifier", "type": "Data Collection Field"}, "rootItem": {"href": "/mdr/root/cdashig/domains/TU/fields/STUDYID", "title": "Study Identifier", "type": "Root Data Element"}, "sdtmigDatasetMappingTargets": [{"href": "/mdr/sdtmig/3-3/datasets/TU/variables/STUDYID", "title": "Study Identifier", "type": "SDTM Dataset Variable"}], "self": {"href": "/mdr/cdashig/2-2/domains/TU/fields/STUDYID", "title": "Study Identifier", "type": "Data Collection Field"}}, "core": "HR", "definition": "A unique identifier for a study.", "implementationNotes": "Although this field is not typically captured on a CRF, it should be displayed clearly on the CRF and/or in the EDC system. This field can be included in the database or populated during SDTM-based dataset creation before submission.", "label": "Study Identifier", "mappingInstructions": "Maps directly to the SDTMIG variable listed in the SDTMIG Target column.", "name": "STUDYID", "ordinal": "1", "prompt": "[Protocol/Study]", "questionText": "What is the study identifier?", "simpleDatatype": "Char"}, {"_links": {"implements": {"href": "/mdr/cdash/1-2/classes/Identifiers/fields/SITEID", "title": "Study Site Identifier", "type": "Class Variable"}, "parentDomain": {"href": "/mdr/cdashig/2-2/domains/TU", "title": "Tumor/Lesion Identification", "type": "CDASH Domain"}, "parentProduct": {"href": "/mdr/cdashig/2-2", "title": "Clinical Data Acquisition Standards Harmonization Implementation Guide for Human Clinical Trials Version 2.2", "type": "Implementation Guide"}, "priorVersion": {"href": "/mdr/cdashig/2-1/domains/TU/fields/SITEID", "title": "Study Site Identifier", "type": "Data Collection Field"}, "rootItem": {"href": "/mdr/root/cdashig/domains/TU/fields/SITEID", "title": "Study Site Identifier", "type": "Root Data Element"}, "sdtmigDatasetMappingTargets": [{"href": "/mdr/sdtmig/3-3/datasets/DM/variables/SITEID", "title": "Study Site Identifier", "type": "SDTM Dataset Variable"}], "self": {"href": "/mdr/cdashig/2-2/domains/TU/fields/SITEID", "title": "Study Site Identifier", "type": "Data Collection Field"}}, "core": "HR", "definition": "A unique identifier for a site within a study.", "implementationNotes": "Paper: This is typically pre-printed in the header of each CRF page for single-site studies. For studies with multiple sites, this field may be left blank so that the number can be recorded by the site, or it may be pre-printed on the CRFs that are shipped to each site. \\n EDC: This should be pre-populated.", "label": "Study Site Identifier", "mappingInstructions": "Maps directly to the SDTMIG variable listed in the SDTMIG Target column.", "name": "SITEID", "ordinal": "2", "prompt": "Site (Identifier)", "questionText": "What is the site identifier?", "simpleDatatype": "Char"}, {"_links": {"implements": {"href": "/mdr/cdash/1-2/classes/Identifiers/fields/SUBJID", "title": "Subject Identifier for the Study", "type": "Class Variable"}, "parentDomain": {"href": "/mdr/cdashig/2-2/domains/TU", "title": "Tumor/Lesion Identification", "type": "CDASH Domain"}, "parentProduct": {"href": "/mdr/cdashig/2-2", "title": "Clinical Data Acquisition Standards Harmonization Implementation Guide for Human Clinical Trials Version 2.2", "type": "Implementation Guide"}, "priorVersion": {"href": "/mdr/cdashig/2-1/domains/TU/fields/SUBJID", "title": "Subject Identifier for the Study", "type": "Data Collection Field"}, "rootItem": {"href": "/mdr/root/cdashig/domains/TU/fields/SUBJID", "title": "Subject Identifier for the Study", "type": "Root Data Element"}, "sdtmigDatasetMappingTargets": [{"href": "/mdr/sdtmig/3-3/datasets/DM/variables/SUBJID", "title": "Subject Identifier for the Study", "type": "SDTM Dataset Variable"}], "self": {"href": "/mdr/cdashig/2-2/domains/TU/fields/SUBJID", "title": "Subject Identifier for the Study", "type": "Data Collection Field"}}, "completionInstructions": "Record the identifier for the subject.", "core": "HR", "definition": "A unique subject identifier within a site and a study.", "implementationNotes": "Paper: This is typically recorded in the header of each CRF page. EDC: The subject identifiers may be system-generated. This CDASH variable is typically collected in all CDASH domains. However, this CDASH variable is populated only in the SDTMIG DM domain. For more information, refer to the SDTMIG.", "label": "Subject Identifier for the Study", "mappingInstructions": "Maps directly to the SDTMIG variable listed in the SDTMIG Target column.", "name": "SUBJID", "ordinal": "3", "prompt": "[Subject/Participant] (Identifier)", "questionText": "What [is/was] the (study) [subject/participant] identifier?", "simpleDatatype": "Char"}, {"_links": {"implements": {"href": "/mdr/cdash/1-2/classes/Timing/fields/VISIT", "title": "Visit Name", "type": "Class Variable"}, "parentDomain": {"href": "/mdr/cdashig/2-2/domains/TU", "title": "Tumor/Lesion Identification", "type": "CDASH Domain"}, "parentProduct": {"href": "/mdr/cdashig/2-2", "title": "Clinical Data Acquisition Standards Harmonization Implementation Guide for Human Clinical Trials Version 2.2", "type": "Implementation Guide"}, "priorVersion": {"href": "/mdr/cdashig/2-1/domains/TU/fields/VISIT", "title": "Visit Name", "type": "Data Collection Field"}, "rootItem": {"href": "/mdr/root/cdashig/domains/TU/fields/VISIT", "title": "Visit Name", "type": "Root Data Element"}, "sdtmigDatasetMappingTargets": [{"href": "/mdr/sdtmig/3-3/datasets/TU/variables/VISIT", "title": "Visit Name", "type": "SDTM Dataset Variable"}], "self": {"href": "/mdr/cdashig/2-2/domains/TU/fields/VISIT", "title": "Visit Name", "type": "Data Collection Field"}}, "core": "R/C", "definition": "The name of a clinical encounter that encompasses planned and unplanned trial interventions, procedures, and assessments that may be performed on a subject.", "implementationNotes": "The name of the clinical encounter is typically pre-printed on the CRF or displayed in the EDC for any visit-based data collection, most often in Findings domains. This Visit text description is then available in any EDC data extract for that Findings domain.", "label": "Visit Name", "mappingInstructions": "Maps directly to the SDTMIG variable listed in the SDTMIG Target column.", "name": "VISIT", "ordinal": "4", "prompt": "[Visit]", "questionText": "What is the visit name?", "simpleDatatype": "Char"}, {"_links": {"implements": {"href": "/mdr/cdash/1-2/classes/Timing/fields/VISDAT", "title": "Visit Date", "type": "Class Variable"}, "parentDomain": {"href": "/mdr/cdashig/2-2/domains/TU", "title": "Tumor/Lesion Identification", "type": "CDASH Domain"}, "parentProduct": {"href": "/mdr/cdashig/2-2", "title": "Clinical Data Acquisition Standards Harmonization Implementation Guide for Human Clinical Trials Version 2.2", "type": "Implementation Guide"}, "priorVersion": {"href": "/mdr/cdashig/2-1/domains/TU/fields/VISDAT", "title": "Visit Date", "type": "Data Collection Field"}, "rootItem": {"href": "/mdr/root/cdashig/domains/TU/fields/VISDAT", "title": "Visit Date", "type": "Root Data Element"}, "self": {"href": "/mdr/cdashig/2-2/domains/TU/fields/VISDAT", "title": "Visit Date", "type": "Data Collection Field"}}, "completionInstructions": "Record the [date/start date] of the visit using this format (DD-MON-YYYY).", "core": "R/C", "definition": "Date the clinical encounter occurred (or started).", "implementationNotes": "If the date the test was collected can be determined from the visit date variable (VISDAT), apply that date to all of the tests at that visit, or the collection date can be collected on the CRF using the date (TUDAT). In this domain, it may not be appropriate to use the visit date as TUDTC.", "label": "Visit Date", "mappingInstructions": "This field is not an SDTM variable. If the date of a measurement, test, observation can be determined from the date/time of visit (VISDAT/VISTIM), then concatenate the CDASH VISDAT/VISTIM components and populate the SDTMIG variable TUDTC in ISO 8601 format.", "name": "VISDAT", "ordinal": "5", "prompt": "(Visit) Date", "questionText": "What [is/was] the date of the visit?", "simpleDatatype": "Char"}, {"_links": {"implements": {"href": "/mdr/cdash/1-2/classes/Findings/fields/--CAT", "title": "Category", "type": "Class Variable"}, "parentDomain": {"href": "/mdr/cdashig/2-2/domains/TU", "title": "Tumor/Lesion Identification", "type": "CDASH Domain"}, "parentProduct": {"href": "/mdr/cdashig/2-2", "title": "Clinical Data Acquisition Standards Harmonization Implementation Guide for Human Clinical Trials Version 2.2", "type": "Implementation Guide"}, "priorVersion": {"href": "/mdr/cdashig/2-1/domains/TU/fields/TUCAT", "title": "Category of Tumor/Lesion Identification", "type": "Data Collection Field"}, "rootItem": {"href": "/mdr/root/cdashig/domains/TU/fields/TUCAT", "title": "Category of Tumor/Lesion Identification", "type": "Root Data Element"}, "self": {"href": "/mdr/cdashig/2-2/domains/TU/fields/TUCAT", "title": "Category of Tumor/Lesion Identification", "type": "Data Collection Field"}}, "completionInstructions": "Record the tumor identification category, if not pre-printed on the CRF.", "core": "O", "definition": "A grouping of topic-variable values based on user-defined characteristics.", "implementationNotes": "Sponsor-defined controlled terminology. This is most commonly either a heading or a pre-printed category value on the CRF, not a question to which the site would provide an answer. If a question is asked, the response would typically be a sponsor-defined codelist. If the form is laid out as a grid, then words such as \"Category\" can be included in the column heading.", "label": "Category of Tumor/Lesion Identification", "mappingInstructions": "Maps directly to the SDTMIG variable listed in the SDTMIG Target column.", "name": "TUCAT", "ordinal": "6", "prompt": "[Tumor/Lesion] Identification Category]; or NULL", "questionText": "What is the category of the [tumor/lesion] identification?", "simpleDatatype": "Char"}, {"_links": {"implements": {"href": "/mdr/cdash/1-2/classes/Findings/fields/--SCAT", "title": "Subcategory", "type": "Class Variable"}, "parentDomain": {"href": "/mdr/cdashig/2-2/domains/TU", "title": "Tumor/Lesion Identification", "type": "CDASH Domain"}, "parentProduct": {"href": "/mdr/cdashig/2-2", "title": "Clinical Data Acquisition Standards Harmonization Implementation Guide for Human Clinical Trials Version 2.2", "type": "Implementation Guide"}, "priorVersion": {"href": "/mdr/cdashig/2-1/domains/TU/fields/TUSCAT", "title": "Subcategory Tumor/Lesion Identification", "type": "Data Collection Field"}, "rootItem": {"href": "/mdr/root/cdashig/domains/TU/fields/TUSCAT", "title": "Subcategory Tumor/Lesion Identification", "type": "Root Data Element"}, "self": {"href": "/mdr/cdashig/2-2/domains/TU/fields/TUSCAT", "title": "Subcategory Tumor/Lesion Identification", "type": "Data Collection Field"}}, "completionInstructions": "Record the tumor identification subcategory, if not pre-printed on the CRF.", "core": "O", "definition": "A sub-division of the TUCAT values based on user-defined characteristics.", "implementationNotes": "Sponsor-defined controlled terminology. This is most commonly pre-printed on the CRF or screen and pre-populated in the data management system. This is not typically a question to which the site would provide an answer. TUSCAT can only be used if there is a TUCAT, and it must be a subcategorization of TUCAT.", "label": "Subcategory Tumor/Lesion Identification", "mappingInstructions": "Maps directly to the SDTMIG variable listed in the SDTMIG Target column.", "name": "TUSCAT", "ordinal": "7", "prompt": "[Tumor/Lesion] Identification Subcategory; or NULL", "questionText": "What is the subcategory for the [tumor/lesion] identification?", "simpleDatatype": "Char"}, {"_links": {"codelist": [{"href": "/mdr/root/ct/sdtmct/codelists/C66742", "title": "Version-agnostic anchor resource for codelist C66742", "type": "Root Value Domain"}], "implements": {"href": "/mdr/cdash/1-2/classes/Findings/fields/--YN", "title": "Any [Finding]", "type": "Class Variable"}, "parentDomain": {"href": "/mdr/cdashig/2-2/domains/TU", "title": "Tumor/Lesion Identification", "type": "CDASH Domain"}, "parentProduct": {"href": "/mdr/cdashig/2-2", "title": "Clinical Data Acquisition Standards Harmonization Implementation Guide for Human Clinical Trials Version 2.2", "type": "Implementation Guide"}, "priorVersion": {"href": "/mdr/cdashig/2-1/domains/TU/fields/TUYN", "title": "Any Tumors/ Lesions Identification", "type": "Data Collection Field"}, "rootItem": {"href": "/mdr/root/cdashig/domains/TU/fields/TUYN", "title": "Any Tumors/ Lesions Identification", "type": "Root Data Element"}, "self": {"href": "/mdr/cdashig/2-2/domains/TU/fields/TUYN", "title": "Any Tumors/ Lesions Identification", "type": "Data Collection Field"}}, "completionInstructions": "Indicate whether [tumors/lesions] were identified. If Yes, include the appropriate details where indicated on the CRF.", "core": "O", "definition": "An indication of whether any tumors were identified.", "implementationNotes": "This is intended to be used as a data management tool to verify that missing tumor/lesions evaluations are confirmed missing. The sponsor may decide to map \"No\" responses using the appropriate SDTMIG variables. Typically, this would use the SDTMIG variable TUOCCUR, with an appropriate TUTEST.", "label": "Any Tumors/ Lesions Identification", "mappingInstructions": "Not submitted.", "name": "TUYN", "ordinal": "8", "prompt": "Any ([Target/Non-target/New/Sponsor-defined) [Tumors/Lesions] Identified", "questionText": "Were any [target/non-target/new/sponsor-defined) [tumors/lesions] identified?", "simpleDatatype": "Char"}, {"_links": {"implements": {"href": "/mdr/cdash/1-2/classes/Timing/fields/--DAT", "title": "Collection Date", "type": "Class Variable"}, "parentDomain": {"href": "/mdr/cdashig/2-2/domains/TU", "title": "Tumor/Lesion Identification", "type": "CDASH Domain"}, "parentProduct": {"href": "/mdr/cdashig/2-2", "title": "Clinical Data Acquisition Standards Harmonization Implementation Guide for Human Clinical Trials Version 2.2", "type": "Implementation Guide"}, "priorVersion": {"href": "/mdr/cdashig/2-1/domains/TU/fields/TUDAT", "title": "Tumor/Lesion Identification Date", "type": "Data Collection Field"}, "rootItem": {"href": "/mdr/root/cdashig/domains/TU/fields/TUDAT", "title": "Tumor/Lesion Identification Date", "type": "Root Data Element"}, "sdtmigDatasetMappingTargets": [{"href": "/mdr/sdtmig/3-3/datasets/TU/variables/TUDTC", "title": "Date/Time of Tumor/Lesion Identification", "type": "SDTM Dataset Variable"}], "self": {"href": "/mdr/cdashig/2-2/domains/TU/fields/TUDAT", "title": "Tumor/Lesion Identification Date", "type": "Data Collection Field"}}, "completionInstructions": "Record the scan/image/physical exam date used to identify the tumor/lesion using this format (DD-MON-YYYY).", "core": "R/C", "definition": "The date of the [examination/procedure] used for tumor/lesion identification, represented in an unambiguous date format (e.g., DD-MON-YYYY).", "implementationNotes": "This is the date of the scan/image/physical exam used to identified the tumor/lesion. It is not the date the MRI or scan was read. This is typically not the visit date.", "label": "Tumor/Lesion Identification Date", "mappingInstructions": "This does not map directly to an SDTMIG variable. For the SDTM submission dataset, concatenate all collected CDASH DATE and TIME components and populate the SDTMIG variable TUDTC in ISO 8601 format.", "name": "TUDAT", "ordinal": "9", "prompt": "[Tumor/Lesion] Identification Procedure Date", "questionText": "What was the date of the [examination/procedure] used for [tumor/lesion identification]?", "simpleDatatype": "Char"}, {"_links": {"codelist": [{"href": "/mdr/root/ct/sdtmct/codelists/C78735", "title": "Version-agnostic anchor resource for codelist C78735", "type": "Root Value Domain"}], "implements": {"href": "/mdr/cdash/1-2/classes/Findings/fields/--EVAL", "title": "Evaluator", "type": "Class Variable"}, "parentDomain": {"href": "/mdr/cdashig/2-2/domains/TU", "title": "Tumor/Lesion Identification", "type": "CDASH Domain"}, "parentProduct": {"href": "/mdr/cdashig/2-2", "title": "Clinical Data Acquisition Standards Harmonization Implementation Guide for Human Clinical Trials Version 2.2", "type": "Implementation Guide"}, "priorVersion": {"href": "/mdr/cdashig/2-1/domains/TU/fields/TUEVAL", "title": "Tumor/Lesion Evaluator", "type": "Data Collection Field"}, "rootItem": {"href": "/mdr/root/cdashig/domains/TU/fields/TUEVAL", "title": "Tumor/Lesion Evaluator", "type": "Root Data Element"}, "sdtmigDatasetMappingTargets": [{"href": "/mdr/sdtmig/3-3/datasets/TU/variables/TUEVAL", "title": "Evaluator", "type": "SDTM Dataset Variable"}], "self": {"href": "/mdr/cdashig/2-2/domains/TU/fields/TUEVAL", "title": "Tumor/Lesion Evaluator", "type": "Data Collection Field"}}, "completionInstructions": "Select the role of the person who provided the evaluation (e.g., INVESTIGATOR, ADJUDICATION COMMITTEE, VENDOR).", "core": "O", "definition": "The role of the person who provided the information.", "implementationNotes": "Used only for results that are subjective (e.g., assigned by a person or a group). May be pre-printed, or collected. Sponsors may collect the data using a subset list of controlled terminology on the CRF.", "label": "Tumor/Lesion Evaluator", "mappingInstructions": "Maps directly to the SDTMIG variable listed in the SDTMIG Target column.", "name": "TUEVAL", "ordinal": "10", "prompt": "[Evaluator/Reporter]", "questionText": "Who provided the information?; Who was the evaluator?", "simpleDatatype": "Char"}, {"_links": {"codelist": [{"href": "/mdr/root/ct/sdtmct/codelists/C96777", "title": "Version-agnostic anchor resource for codelist C96777", "type": "Root Value Domain"}], "implements": {"href": "/mdr/cdash/1-2/classes/Findings/fields/--EVALID", "title": "Evaluator Identifier", "type": "Class Variable"}, "parentDomain": {"href": "/mdr/cdashig/2-2/domains/TU", "title": "Tumor/Lesion Identification", "type": "CDASH Domain"}, "parentProduct": {"href": "/mdr/cdashig/2-2", "title": "Clinical Data Acquisition Standards Harmonization Implementation Guide for Human Clinical Trials Version 2.2", "type": "Implementation Guide"}, "priorVersion": {"href": "/mdr/cdashig/2-1/domains/TU/fields/TUEVALID", "title": "Tumor/Lesion Evaluator Identifier", "type": "Data Collection Field"}, "rootItem": {"href": "/mdr/root/cdashig/domains/TU/fields/TUEVALID", "title": "Tumor/Lesion Evaluator Identifier", "type": "Root Data Element"}, "sdtmigDatasetMappingTargets": [{"href": "/mdr/sdtmig/3-3/datasets/TU/variables/TUEVALID", "title": "Evaluator Identifier", "type": "SDTM Dataset Variable"}], "self": {"href": "/mdr/cdashig/2-2/domains/TU/fields/TUEVALID", "title": "Tumor/Lesion Evaluator Identifier", "type": "Data Collection Field"}}, "completionInstructions": "Record the unique identifier assigned to the person making the evaluation.", "core": "O", "definition": "Used to distinguish multiple evaluators with the same role.", "implementationNotes": "Collect if multiple evaluators are used in the study (may be omitted if multiple evaluators are not used); values should follow controlled terminology.", "label": "Tumor/Lesion Evaluator Identifier", "mappingInstructions": "Maps directly to the SDTMIG variable listed in the SDTMIG Target column.", "name": "TUEVALID", "ordinal": "11", "prompt": "[Evaluator/Reporter] Identifier", "questionText": "What was the identifier of the evaluator?", "simpleDatatype": "Char"}, {"_links": {"implements": {"href": "/mdr/cdash/1-2/classes/Identifiers/fields/--LNKID", "title": "Link ID", "type": "Class Variable"}, "parentDomain": {"href": "/mdr/cdashig/2-2/domains/TU", "title": "Tumor/Lesion Identification", "type": "CDASH Domain"}, "parentProduct": {"href": "/mdr/cdashig/2-2", "title": "Clinical Data Acquisition Standards Harmonization Implementation Guide for Human Clinical Trials Version 2.2", "type": "Implementation Guide"}, "priorVersion": {"href": "/mdr/cdashig/2-1/domains/TU/fields/TULNKID", "title": "Tumor/Lesion Identification Link ID", "type": "Data Collection Field"}, "rootItem": {"href": "/mdr/root/cdashig/domains/TU/fields/TULNKID", "title": "Tumor/Lesion Identification Link ID", "type": "Root Data Element"}, "sdtmigDatasetMappingTargets": [{"href": "/mdr/sdtmig/3-3/datasets/TU/variables/TULNKID", "title": "Link ID", "type": "SDTM Dataset Variable"}], "self": {"href": "/mdr/cdashig/2-2/domains/TU/fields/TULNKID", "title": "Tumor/Lesion Identification Link ID", "type": "Data Collection Field"}}, "completionInstructions": "If collected, record the unique identifier for this tumor/lesion.", "core": "HR", "definition": "An identifier used to link identified tumor/lesion to the assessment result.", "implementationNotes": "This variable is used to provide a unique code for each identified tumor in order to link records across related CRFs (TU and TR) when appropriate. Sponsors develop their own conventions for populating --LNKID. Typically, the lesion/tumor is assigned the --LNKID at baseline when the tumor/lesion is identified, and the this --LNKID is used at other visits to collect assessments on this tumor/lesion.", "label": "Tumor/Lesion Identification Link ID", "mappingInstructions": "Maps directly to the SDTMIG variable listed in the SDTMIG Target column.", "name": "TULNKID", "ordinal": "12", "prompt": "[Tumor/Lesion] ID", "questionText": "What was the [tumor/lesion] (link) identifier?", "simpleDatatype": "Char"}, {"_links": {"implements": {"href": "/mdr/cdash/1-2/classes/Identifiers/fields/--PRNO", "title": "Related Procedure ID", "type": "Class Variable"}, "parentDomain": {"href": "/mdr/cdashig/2-2/domains/TU", "title": "Tumor/Lesion Identification", "type": "CDASH Domain"}, "parentProduct": {"href": "/mdr/cdashig/2-2", "title": "Clinical Data Acquisition Standards Harmonization Implementation Guide for Human Clinical Trials Version 2.2", "type": "Implementation Guide"}, "priorVersion": {"href": "/mdr/cdashig/2-1/domains/TU/fields/TUPRNO", "title": "Tumor/Lesion Related Procedure ID", "type": "Data Collection Field"}, "rootItem": {"href": "/mdr/root/cdashig/domains/TU/fields/TUPRNO", "title": "Tumor/Lesion Related Procedure ID", "type": "Root Data Element"}, "self": {"href": "/mdr/cdashig/2-2/domains/TU/fields/TUPRNO", "title": "Tumor/Lesion Related Procedure ID", "type": "Data Collection Field"}}, "completionInstructions": "Record the procedure [ID or Line Number] used to evaluate the tumor/lesion.", "core": "O", "definition": "The identifier for the procedure used to identify the tumor.", "implementationNotes": "Intent is to establish a link between the TU identified and the procedure undergone to identify this tumor/lesion. TUPRNO can be used to identify a relationship between records in the TU dataset and records in the PR dataset. See SDTMIG for information on RELREC.", "label": "Tumor/Lesion Related Procedure ID", "mappingInstructions": "This does not map directly to an SDTMIG variable. For the SDTM submission datasets, may be used to create RELREC to link this record with a record in the PR domain.", "name": "TUPRNO", "ordinal": "13", "prompt": "Procedure Identifier", "questionText": "What was the identifier for the procedure used to identify this [tumor/lesion] ?", "simpleDatatype": "Char"}, {"_links": {"codelist": [{"href": "/mdr/root/ct/sdtmct/codelists/C85492", "title": "Version-agnostic anchor resource for codelist C85492", "type": "Root Value Domain"}], "implements": {"href": "/mdr/cdash/1-2/classes/Findings/fields/--METHOD", "title": "Method of Test or Examination", "type": "Class Variable"}, "parentDomain": {"href": "/mdr/cdashig/2-2/domains/TU", "title": "Tumor/Lesion Identification", "type": "CDASH Domain"}, "parentProduct": {"href": "/mdr/cdashig/2-2", "title": "Clinical Data Acquisition Standards Harmonization Implementation Guide for Human Clinical Trials Version 2.2", "type": "Implementation Guide"}, "priorVersion": {"href": "/mdr/cdashig/2-1/domains/TU/fields/TUMETHOD", "title": "Tumor/Lesion Method of Identification", "type": "Data Collection Field"}, "rootItem": {"href": "/mdr/root/cdashig/domains/TU/fields/TUMETHOD", "title": "Tumor/Lesion Method of Identification", "type": "Root Data Element"}, "sdtmigDatasetMappingTargets": [{"href": "/mdr/sdtmig/3-3/datasets/TU/variables/TUMETHOD", "title": "Method of Identification", "type": "SDTM Dataset Variable"}], "self": {"href": "/mdr/cdashig/2-2/domains/TU/fields/TUMETHOD", "title": "Tumor/Lesion Method of Identification", "type": "Data Collection Field"}}, "completionInstructions": "Record the method used to evaluate/identify the tumor/lesion.", "core": "O", "definition": "Method of the test or examination.", "implementationNotes": "Sponsors may collect the method used to identify the tumor/lesions via a codelist which includes the most commonly known or generally recognized terms. The values will represent the method generically, not the product of the method (e.g., photograph). A sponsor may customize or restrict the list of values per response criteria or protocol needs. At a minimum, the primary method of identification should be entered and is expected to be consistent throughout the study; recording secondary methods is at the discretion of the sponsor.", "label": "Tumor/Lesion Method of Identification", "mappingInstructions": "Maps directly to the SDTMIG variable listed in the SDTMIG Target column.", "name": "TUMETHOD", "ordinal": "14", "prompt": "Method of [Evaluation/Identification]", "questionText": "What was the method used to [evaluate/identify] the [tumor/lesion]?", "simpleDatatype": "Char"}, {"_links": {"implements": {"href": "/mdr/cdash/1-2/classes/Identifiers/fields/--REFID", "title": "Reference ID", "type": "Class Variable"}, "parentDomain": {"href": "/mdr/cdashig/2-2/domains/TU", "title": "Tumor/Lesion Identification", "type": "CDASH Domain"}, "parentProduct": {"href": "/mdr/cdashig/2-2", "title": "Clinical Data Acquisition Standards Harmonization Implementation Guide for Human Clinical Trials Version 2.2", "type": "Implementation Guide"}, "priorVersion": {"href": "/mdr/cdashig/2-1/domains/TU/fields/TUREFID", "title": "Tumor/Lesion Identification Reference ID", "type": "Data Collection Field"}, "rootItem": {"href": "/mdr/root/cdashig/domains/TU/fields/TUREFID", "title": "Tumor/Lesion Identification Reference ID", "type": "Root Data Element"}, "sdtmigDatasetMappingTargets": [{"href": "/mdr/sdtmig/3-3/datasets/TU/variables/TUREFID", "title": "Reference ID", "type": "SDTM Dataset Variable"}], "self": {"href": "/mdr/cdashig/2-2/domains/TU/fields/TUREFID", "title": "Tumor/Lesion Identification Reference ID", "type": "Data Collection Field"}}, "completionInstructions": "Record the internal or external identifier assigned to the procedure/method used to identify the tumor/lesion.", "core": "O", "definition": "An internal or external identifier, such as image ID number (e.g., CT scan, MRI, ultrasound identifier).", "implementationNotes": "This variable may be used to collect a reference/accession number associated with the method used to identify the tumor/lesion. Sponsors may use the CDASH variable TUPRNO as an identifier for a procedure.", "label": "Tumor/Lesion Identification Reference ID", "mappingInstructions": "Maps directly to the SDTMIG variable listed in the SDTMIG Target column.", "name": "TUREFID", "ordinal": "15", "prompt": "[Tumor/Lesion] Reference ID", "questionText": "What was the procedure [reference identifier/accession number]?", "simpleDatatype": "Char"}, {"_links": {"codelist": [{"href": "/mdr/root/ct/sdtmct/codelists/C96783", "title": "Version-agnostic anchor resource for codelist C96783", "type": "Root Value Domain"}], "implements": {"href": "/mdr/cdash/1-2/classes/Findings/fields/--TEST", "title": "Name of Measurement, Test, or Exam", "type": "Class Variable"}, "parentDomain": {"href": "/mdr/cdashig/2-2/domains/TU", "title": "Tumor/Lesion Identification", "type": "CDASH Domain"}, "parentProduct": {"href": "/mdr/cdashig/2-2", "title": "Clinical Data Acquisition Standards Harmonization Implementation Guide for Human Clinical Trials Version 2.2", "type": "Implementation Guide"}, "priorVersion": {"href": "/mdr/cdashig/2-1/domains/TU/fields/TUTEST", "title": "Tumor/Lesion Identification Test Name", "type": "Data Collection Field"}, "rootItem": {"href": "/mdr/root/cdashig/domains/TU/fields/TUTEST", "title": "Tumor/Lesion Identification Test Name", "type": "Root Data Element"}, "sdtmigDatasetMappingTargets": [{"href": "/mdr/sdtmig/3-3/datasets/TU/variables/TUTEST", "title": "Tumor/Lesion ID Test Name", "type": "SDTM Dataset Variable"}, {"href": "/mdr/sdtmig/3-3/datasets/TU/variables/TUTESTCD", "title": "Tumor/Lesion ID Short Name", "type": "SDTM Dataset Variable"}], "self": {"href": "/mdr/cdashig/2-2/domains/TU/fields/TUTEST", "title": "Tumor/Lesion Identification Test Name", "type": "Data Collection Field"}}, "completionInstructions": "Record the name of the TU test, if not pre-printed on the CRF. If collected on the CRF, the sponsor may provide additional instructions to ensure the data is entered as intended.", "core": "HR", "definition": "Descriptive name of the measurement or finding.", "implementationNotes": "Required to identify which test the result is for. It is recommended that test names be pre-printed on the CRF rather than collected in a free-text field. If the form is laid out as a grid, then words such as \"Test\" can be included in the column heading.", "label": "Tumor/Lesion Identification Test Name", "mappingInstructions": "Maps directly to the SDTMIG variable listed in the SDTMIG Target column. The SDTMIG variable TUTESTCD may be determined from the value collected in TUTEST. The SDTMIG variables TUTESTCD and TUTEST are required in SDTM submission datasets. Use appropriate CDISC Controlled Terminology for the test and test code.", "name": "TUTEST", "ordinal": "16", "prompt": "[Tumor/Lesion Identification Test Name]", "questionText": "What was the [tumor/lesion] Identification test name?", "simpleDatatype": "Char"}, {"_links": {"implements": {"href": "/mdr/cdash/1-2/classes/Findings/fields/--ORRES", "title": "Result or Finding in Original Units", "type": "Class Variable"}, "parentDomain": {"href": "/mdr/cdashig/2-2/domains/TU", "title": "Tumor/Lesion Identification", "type": "CDASH Domain"}, "parentProduct": {"href": "/mdr/cdashig/2-2", "title": "Clinical Data Acquisition Standards Harmonization Implementation Guide for Human Clinical Trials Version 2.2", "type": "Implementation Guide"}, "priorVersion": {"href": "/mdr/cdashig/2-1/domains/TU/fields/TUORRES", "title": "Tumor/Lesion Identification Result", "type": "Data Collection Field"}, "rootItem": {"href": "/mdr/root/cdashig/domains/TU/fields/TUORRES", "title": "Tumor/Lesion Identification Result", "type": "Root Data Element"}, "sdtmigDatasetMappingTargets": [{"href": "/mdr/sdtmig/3-3/datasets/TU/variables/TUORRES", "title": "Tumor/Lesion ID Result", "type": "SDTM Dataset Variable"}], "self": {"href": "/mdr/cdashig/2-2/domains/TU/fields/TUORRES", "title": "Tumor/Lesion Identification Result", "type": "Data Collection Field"}}, "completionInstructions": "Record the TU classification. This may be pre-printed on the CRF. If collected on the CRF, the sponsor may provide additional instructions to ensure the data is entered as intended.", "core": "HR", "definition": "Result of the tumor identification (e.g., classification or type of tumor).", "implementationNotes": "Each test may be collected using the CDASH variable [TESTCD], for example, TUMERGE, TUSPLIT, TUMIDENT or [TESTCD]_TUORRES where TESTCD is the appropriate CT for the TU test code. This is an example of the types of CDASH variable names that can be used in a denormalized data structure.", "label": "Tumor/Lesion Identification Result", "mappingInstructions": "Maps directly to the SDTMIG variable listed in the SDTMIG Target column.", "name": "TUORRES", "ordinal": "17", "prompt": "(Result)", "questionText": "What is the [type/classification] of [tumor/lesion] as defined by the criteria being employed?", "simpleDatatype": "Char"}, {"_links": {"codelist": [{"href": "/mdr/root/ct/sdtmct/codelists/C74456", "title": "Version-agnostic anchor resource for codelist C74456", "type": "Root Value Domain"}], "implements": {"href": "/mdr/cdash/1-2/classes/Findings/fields/--LOC", "title": "Location Used for the Measurement", "type": "Class Variable"}, "parentDomain": {"href": "/mdr/cdashig/2-2/domains/TU", "title": "Tumor/Lesion Identification", "type": "CDASH Domain"}, "parentProduct": {"href": "/mdr/cdashig/2-2", "title": "Clinical Data Acquisition Standards Harmonization Implementation Guide for Human Clinical Trials Version 2.2", "type": "Implementation Guide"}, "priorVersion": {"href": "/mdr/cdashig/2-1/domains/TU/fields/TULOC", "title": "Location of the Tumor/Lesion", "type": "Data Collection Field"}, "rootItem": {"href": "/mdr/root/cdashig/domains/TU/fields/TULOC", "title": "Location of the Tumor/Lesion", "type": "Root Data Element"}, "sdtmigDatasetMappingTargets": [{"href": "/mdr/sdtmig/3-3/datasets/TU/variables/TULOC", "title": "Location of the Tumor/Lesion", "type": "SDTM Dataset Variable"}], "self": {"href": "/mdr/cdashig/2-2/domains/TU/fields/TULOC", "title": "Location of the Tumor/Lesion", "type": "Data Collection Field"}}, "completionInstructions": "Record or select the anatomical location of the identified tumor/lesion.", "core": "O", "definition": "A description of the anatomical location of the identified tumor/lesion.", "implementationNotes": "Collected or pre-printed when the sponsor needs to identify the specific anatomical location. Sponsors may collect the data using a subset list of controlled terminology on the CRF. LAT, DIR, and PORTOT are used to further describe the anatomical location. A location detail text field (TULOCDTL) is conditional for entry (i.e., can be left blank) and allows the study site to specify the lesion in its own terms or can be used to distinguish tumors within the same location if other location qualifiers are not specific enough.", "label": "Location of the Tumor/Lesion", "mappingInstructions": "Maps directly to the SDTMIG variable listed in the SDTMIG Target column.", "name": "TULOC", "ordinal": "18", "prompt": "Anatomical Location", "questionText": "What was the anatomical location of the [tumor/lesion] (identified)?", "simpleDatatype": "Char"}, {"_links": {"codelist": [{"href": "/mdr/root/ct/sdtmct/codelists/C99073", "title": "Version-agnostic anchor resource for codelist C99073", "type": "Root Value Domain"}], "implements": {"href": "/mdr/cdash/1-2/classes/Findings/fields/--LAT", "title": "Laterality", "type": "Class Variable"}, "parentDomain": {"href": "/mdr/cdashig/2-2/domains/TU", "title": "Tumor/Lesion Identification", "type": "CDASH Domain"}, "parentProduct": {"href": "/mdr/cdashig/2-2", "title": "Clinical Data Acquisition Standards Harmonization Implementation Guide for Human Clinical Trials Version 2.2", "type": "Implementation Guide"}, "priorVersion": {"href": "/mdr/cdashig/2-1/domains/TU/fields/TULAT", "title": "Tumor/Lesion Identification Laterality", "type": "Data Collection Field"}, "rootItem": {"href": "/mdr/root/cdashig/domains/TU/fields/TULAT", "title": "Tumor/Lesion Identification Laterality", "type": "Root Data Element"}, "sdtmigDatasetMappingTargets": [{"href": "/mdr/sdtmig/3-3/datasets/TU/variables/TULAT", "title": "Laterality", "type": "SDTM Dataset Variable"}], "self": {"href": "/mdr/cdashig/2-2/domains/TU/fields/TULAT", "title": "Tumor/Lesion Identification Laterality", "type": "Data Collection Field"}}, "completionInstructions": "Record the side of the body within the anatomical location of the identified [tumor/lesion].", "core": "O", "definition": "Qualifier for anatomical location, further detailing the side of the body relevant for the event.", "implementationNotes": "May be pre-printed or collected when the sponsor needs to identify the specific side of the anatomical location. Sponsors may collect the data using a subset list of controlled terminology on the CRF.", "label": "Tumor/Lesion Identification Laterality", "mappingInstructions": "Maps directly to the SDTMIG variable listed in the SDTMIG Target column.", "name": "TULAT", "ordinal": "19", "prompt": "[Tumor/Lesion Identification] Side", "questionText": "What was the laterality of the anatomical location?", "simpleDatatype": "Char"}, {"_links": {"codelist": [{"href": "/mdr/root/ct/sdtmct/codelists/C99074", "title": "Version-agnostic anchor resource for codelist C99074", "type": "Root Value Domain"}], "implements": {"href": "/mdr/cdash/1-2/classes/Findings/fields/--DIR", "title": "Directionality", "type": "Class Variable"}, "parentDomain": {"href": "/mdr/cdashig/2-2/domains/TU", "title": "Tumor/Lesion Identification", "type": "CDASH Domain"}, "parentProduct": {"href": "/mdr/cdashig/2-2", "title": "Clinical Data Acquisition Standards Harmonization Implementation Guide for Human Clinical Trials Version 2.2", "type": "Implementation Guide"}, "priorVersion": {"href": "/mdr/cdashig/2-1/domains/TU/fields/TUDIR", "title": "Tumor/Lesion Directionality", "type": "Data Collection Field"}, "rootItem": {"href": "/mdr/root/cdashig/domains/TU/fields/TUDIR", "title": "Tumor/Lesion Directionality", "type": "Root Data Element"}, "sdtmigDatasetMappingTargets": [{"href": "/mdr/sdtmig/3-3/datasets/TU/variables/TUDIR", "title": "Directionality", "type": "SDTM Dataset Variable"}], "self": {"href": "/mdr/cdashig/2-2/domains/TU/fields/TUDIR", "title": "Tumor/Lesion Directionality", "type": "Data Collection Field"}}, "completionInstructions": "Record the directionality within the anatomical location of the identified [tumor/lesion].", "core": "O", "definition": "Qualifier further detailing the position of the anatomical location, relative to the center of the body, organ, or specimen.", "implementationNotes": "May be pre-printed or collected when the sponsor needs to identify the directionality of the anatomical location. Sponsors may collect the data using a subset list of controlled terminology on the CRF.", "label": "Tumor/Lesion Directionality", "mappingInstructions": "Maps directly to the SDTMIG variable listed in the SDTMIG Target column.", "name": "TUDIR", "ordinal": "20", "prompt": "[Tumor/Lesion Identification] Directionality", "questionText": "What was the directionality of the anatomical location?", "simpleDatatype": "Char"}, {"_links": {"implements": {"href": "/mdr/cdash/1-2/classes/Findings/fields/--LOCDTL", "title": "Location Detail", "type": "Class Variable"}, "parentDomain": {"href": "/mdr/cdashig/2-2/domains/TU", "title": "Tumor/Lesion Identification", "type": "CDASH Domain"}, "parentProduct": {"href": "/mdr/cdashig/2-2", "title": "Clinical Data Acquisition Standards Harmonization Implementation Guide for Human Clinical Trials Version 2.2", "type": "Implementation Guide"}, "priorVersion": {"href": "/mdr/cdashig/2-1/domains/TU/fields/TULOCDTL", "title": "TU Identification Location Detail", "type": "Data Collection Field"}, "rootItem": {"href": "/mdr/root/cdashig/domains/TU/fields/TULOCDTL", "title": "TU Identification Location Detail", "type": "Root Data Element"}, "sdtmigDatasetMappingTargets": [{"href": "/mdr/sdtmig/3-3/datasets/SUPPQUAL/variables/QVAL", "title": "Data Value", "type": "SDTM Dataset Variable"}], "self": {"href": "/mdr/cdashig/2-2/domains/TU/fields/TULOCDTL", "title": "TU Identification Location Detail", "type": "Data Collection Field"}}, "completionInstructions": "Describe additional detail on the exact location of the tumor so that it can be distinguished from other tumors in the same anatomical location.", "core": "O", "definition": "A detailed description of the location of the identified tumor/lesion.", "implementationNotes": "Use if TULOC and TULAT and/or TUDIR values cannot provide uniqueness from other identified tumors. TULOCDTL is not meant to replace TULOC, TULAT, and/or TUDIR or serve as the free-text description field for TULOC (e.g., Location, Other).", "label": "TU Identification Location Detail", "mappingInstructions": "This does not map directly to an SDTMIG variable. This information could be submitted in a SUPPTU dataset as the value of SUPPTU.QVAL where SUPPTU.QNAM=\"TULOCDTL\" and SUPPTU.QLABEL= \"TU Identification Location Detail\".", "name": "TULOCDTL", "ordinal": "21", "prompt": "[Tumor/Lesion Identification] Location Detail", "questionText": "What [were/are] additional details on the exact location of the [tumor/lesion] so that it can be distinguished from other [tumor/lesion] in the same anatomical location?", "simpleDatatype": "Char"}, {"_links": {"implements": {"href": "/mdr/cdash/1-2/classes/Findings/fields/--NAM", "title": "Laboratory/Vendor Name", "type": "Class Variable"}, "parentDomain": {"href": "/mdr/cdashig/2-2/domains/TU", "title": "Tumor/Lesion Identification", "type": "CDASH Domain"}, "parentProduct": {"href": "/mdr/cdashig/2-2", "title": "Clinical Data Acquisition Standards Harmonization Implementation Guide for Human Clinical Trials Version 2.2", "type": "Implementation Guide"}, "priorVersion": {"href": "/mdr/cdashig/2-1/domains/TU/fields/TUNAM", "title": "Tumor/Lesion Identification Vendor Name", "type": "Data Collection Field"}, "rootItem": {"href": "/mdr/root/cdashig/domains/TU/fields/TUNAM", "title": "Tumor/Lesion Identification Vendor Name", "type": "Root Data Element"}, "sdtmigDatasetMappingTargets": [{"href": "/mdr/sdtmig/3-3/datasets/TU/variables/TUNAM", "title": "Laboratory/Vendor Name", "type": "SDTM Dataset Variable"}], "self": {"href": "/mdr/cdashig/2-2/domains/TU/fields/TUNAM", "title": "Tumor/Lesion Identification Vendor Name", "type": "Data Collection Field"}}, "completionInstructions": "Record the name of the vendor providing the evaluation.", "core": "O", "definition": "The name or identifier of the vendor (e.g., laboratory) that provided the test results.", "implementationNotes": "Recommended to collect on the CRF if vendor name was not collected at the site/study level or if multiple vendors are used by a site.", "label": "Tumor/Lesion Identification Vendor Name", "mappingInstructions": "Maps directly to the SDTMIG variable listed in the SDTMIG Target column.", "name": "TUNAM", "ordinal": "22", "prompt": "[Tumor/Lesion Identification] Vendor Name", "questionText": "What was the name of the vendor used?", "simpleDatatype": "Char"}], "label": "Tumor/Lesion Identification", "name": "TU", "ordinal": "34"}
