{"_links": {"parentClass": {"href": "/mdr/sdtmig/3-2/classes/Events", "title": "Events Observation Class", "type": "Class"}, "parentProduct": {"href": "/mdr/sdtmig/3-2", "title": "Study Data Tabulation Model Implementation Guide: Human Clinical Trials Version 3.2 (Final)", "type": "Implementation Guide"}, "self": {"href": "/mdr/sdtmig/3-2/datasets/HO", "title": "Healthcare Encounters", "type": "SDTM Dataset"}}, "datasetStructure": "One record per healthcare encounter per subject", "datasetVariables": [{"_links": {"modelClassVariable": {"href": "/mdr/sdtm/1-4/classes/GeneralObservations/variables/STUDYID", "title": "Study Identifier", "type": "Class Variable"}, "parentDataset": {"href": "/mdr/sdtmig/3-2/datasets/HO", "title": "Healthcare Encounters", "type": "SDTM Dataset"}, "parentProduct": {"href": "/mdr/sdtmig/3-2", "title": "Study Data Tabulation Model Implementation Guide: Human Clinical Trials Version 3.2 (Final)", "type": "Implementation Guide"}, "rootItem": {"href": "/mdr/root/sdtmig/datasets/HO/variables/STUDYID", "title": "Version-agnostic anchor resource for SDTMIG variable HO.STUDYID", "type": "Root Data Element"}, "self": {"href": "/mdr/sdtmig/3-2/datasets/HO/variables/STUDYID", "title": "Study Identifier", "type": "SDTM Dataset Variable"}}, "core": "Req", "description": "Unique identifier for a study.", "label": "Study Identifier", "name": "STUDYID", "ordinal": "1", "role": "Identifier", "simpleDatatype": "Char"}, {"_links": {"modelClassVariable": {"href": "/mdr/sdtm/1-4/classes/GeneralObservations/variables/DOMAIN", "title": "Domain Abbreviation", "type": "Class Variable"}, "parentDataset": {"href": "/mdr/sdtmig/3-2/datasets/HO", "title": "Healthcare Encounters", "type": "SDTM Dataset"}, "parentProduct": {"href": "/mdr/sdtmig/3-2", "title": "Study Data Tabulation Model Implementation Guide: Human Clinical Trials Version 3.2 (Final)", "type": "Implementation Guide"}, "rootItem": {"href": "/mdr/root/sdtmig/datasets/HO/variables/DOMAIN", "title": "Version-agnostic anchor resource for SDTMIG variable HO.DOMAIN", "type": "Root Data Element"}, "self": {"href": "/mdr/sdtmig/3-2/datasets/HO/variables/DOMAIN", "title": "Domain Abbreviation", "type": "SDTM Dataset Variable"}}, "core": "Req", "description": "Two-character abbreviation for the domain.", "label": "Domain Abbreviation", "name": "DOMAIN", "ordinal": "2", "role": "Identifier", "simpleDatatype": "Char", "valueList": ["HO"]}, {"_links": {"modelClassVariable": {"href": "/mdr/sdtm/1-4/classes/GeneralObservations/variables/USUBJID", "title": "Unique Subject Identifier", "type": "Class Variable"}, "parentDataset": {"href": "/mdr/sdtmig/3-2/datasets/HO", "title": "Healthcare Encounters", "type": "SDTM Dataset"}, "parentProduct": {"href": "/mdr/sdtmig/3-2", "title": "Study Data Tabulation Model Implementation Guide: Human Clinical Trials Version 3.2 (Final)", "type": "Implementation Guide"}, "rootItem": {"href": "/mdr/root/sdtmig/datasets/HO/variables/USUBJID", "title": "Version-agnostic anchor resource for SDTMIG variable HO.USUBJID", "type": "Root Data Element"}, "self": {"href": "/mdr/sdtmig/3-2/datasets/HO/variables/USUBJID", "title": "Unique Subject Identifier", "type": "SDTM Dataset Variable"}}, "core": "Req", "description": "Identifier used to uniquely identify a subject across all studies for all applications or submissions involving the product.", "label": "Unique Subject Identifier", "name": "USUBJID", "ordinal": "3", "role": "Identifier", "simpleDatatype": "Char"}, {"_links": {"modelClassVariable": {"href": "/mdr/sdtm/1-4/classes/GeneralObservations/variables/--SEQ", "title": "Sequence Number", "type": "Class Variable"}, "parentDataset": {"href": "/mdr/sdtmig/3-2/datasets/HO", "title": "Healthcare Encounters", "type": "SDTM Dataset"}, "parentProduct": {"href": "/mdr/sdtmig/3-2", "title": "Study Data Tabulation Model Implementation Guide: Human Clinical Trials Version 3.2 (Final)", "type": "Implementation Guide"}, "rootItem": {"href": "/mdr/root/sdtmig/datasets/HO/variables/HOSEQ", "title": "Version-agnostic anchor resource for SDTMIG variable HO.HOSEQ", "type": "Root Data Element"}, "self": {"href": "/mdr/sdtmig/3-2/datasets/HO/variables/HOSEQ", "title": "Sequence Number", "type": "SDTM Dataset Variable"}}, "core": "Req", "description": "Sequence Number given to ensure uniqueness of subject records within a domain. May be any valid number.", "label": "Sequence Number", "name": "HOSEQ", "ordinal": "4", "role": "Identifier", "simpleDatatype": "Num"}, {"_links": {"modelClassVariable": {"href": "/mdr/sdtm/1-4/classes/GeneralObservations/variables/--GRPID", "title": "Group ID", "type": "Class Variable"}, "parentDataset": {"href": "/mdr/sdtmig/3-2/datasets/HO", "title": "Healthcare Encounters", "type": "SDTM Dataset"}, "parentProduct": {"href": "/mdr/sdtmig/3-2", "title": "Study Data Tabulation Model Implementation Guide: Human Clinical Trials Version 3.2 (Final)", "type": "Implementation Guide"}, "rootItem": {"href": "/mdr/root/sdtmig/datasets/HO/variables/HOGRPID", "title": "Version-agnostic anchor resource for SDTMIG variable HO.HOGRPID", "type": "Root Data Element"}, "self": {"href": "/mdr/sdtmig/3-2/datasets/HO/variables/HOGRPID", "title": "Group ID", "type": "SDTM Dataset Variable"}}, "core": "Perm", "description": "Used to tie together a block of related records in a single domain for a subject.", "label": "Group ID", "name": "HOGRPID", "ordinal": "5", "role": "Identifier", "simpleDatatype": "Char"}, {"_links": {"modelClassVariable": {"href": "/mdr/sdtm/1-4/classes/GeneralObservations/variables/--REFID", "title": "Reference ID", "type": "Class Variable"}, "parentDataset": {"href": "/mdr/sdtmig/3-2/datasets/HO", "title": "Healthcare Encounters", "type": "SDTM Dataset"}, "parentProduct": {"href": "/mdr/sdtmig/3-2", "title": "Study Data Tabulation Model Implementation Guide: Human Clinical Trials Version 3.2 (Final)", "type": "Implementation Guide"}, "rootItem": {"href": "/mdr/root/sdtmig/datasets/HO/variables/HOREFID", "title": "Version-agnostic anchor resource for SDTMIG variable HO.HOREFID", "type": "Root Data Element"}, "self": {"href": "/mdr/sdtmig/3-2/datasets/HO/variables/HOREFID", "title": "Reference ID", "type": "SDTM Dataset Variable"}}, "core": "Perm", "description": "Internal or external healthcare encounter identifier.", "label": "Reference ID", "name": "HOREFID", "ordinal": "6", "role": "Identifier", "simpleDatatype": "Char"}, {"_links": {"modelClassVariable": {"href": "/mdr/sdtm/1-4/classes/GeneralObservations/variables/--SPID", "title": "Sponsor-Defined Identifier", "type": "Class Variable"}, "parentDataset": {"href": "/mdr/sdtmig/3-2/datasets/HO", "title": "Healthcare Encounters", "type": "SDTM Dataset"}, "parentProduct": {"href": "/mdr/sdtmig/3-2", "title": "Study Data Tabulation Model Implementation Guide: Human Clinical Trials Version 3.2 (Final)", "type": "Implementation Guide"}, "rootItem": {"href": "/mdr/root/sdtmig/datasets/HO/variables/HOSPID", "title": "Version-agnostic anchor resource for SDTMIG variable HO.HOSPID", "type": "Root Data Element"}, "self": {"href": "/mdr/sdtmig/3-2/datasets/HO/variables/HOSPID", "title": "Sponsor-Defined Identifier", "type": "SDTM Dataset Variable"}}, "core": "Perm", "description": "Sponsor-defined identifier. It may be pre-printed on the CRF as an explicit line identifier or defined in the sponsor's operational database. Example: Line number on a Healthcare encounters page.", "label": "Sponsor-Defined Identifier", "name": "HOSPID", "ordinal": "7", "role": "Identifier", "simpleDatatype": "Char"}, {"_links": {"modelClassVariable": {"href": "/mdr/sdtm/1-4/classes/Events/variables/--TERM", "title": "Reported Term", "type": "Class Variable"}, "parentDataset": {"href": "/mdr/sdtmig/3-2/datasets/HO", "title": "Healthcare Encounters", "type": "SDTM Dataset"}, "parentProduct": {"href": "/mdr/sdtmig/3-2", "title": "Study Data Tabulation Model Implementation Guide: Human Clinical Trials Version 3.2 (Final)", "type": "Implementation Guide"}, "rootItem": {"href": "/mdr/root/sdtmig/datasets/HO/variables/HOTERM", "title": "Version-agnostic anchor resource for SDTMIG variable HO.HOTERM", "type": "Root Data Element"}, "self": {"href": "/mdr/sdtmig/3-2/datasets/HO/variables/HOTERM", "title": "Reported Term for the Healthcare Encounter", "type": "SDTM Dataset Variable"}}, "core": "Req", "description": "Verbatim or preprinted CRF term for the healthcare encounter.", "label": "Reported Term for the Healthcare Encounter", "name": "HOTERM", "ordinal": "8", "role": "Topic", "simpleDatatype": "Char"}, {"_links": {"modelClassVariable": {"href": "/mdr/sdtm/1-4/classes/Events/variables/--DECOD", "title": "Dictionary-Derived Term", "type": "Class Variable"}, "parentDataset": {"href": "/mdr/sdtmig/3-2/datasets/HO", "title": "Healthcare Encounters", "type": "SDTM Dataset"}, "parentProduct": {"href": "/mdr/sdtmig/3-2", "title": "Study Data Tabulation Model Implementation Guide: Human Clinical Trials Version 3.2 (Final)", "type": "Implementation Guide"}, "rootItem": {"href": "/mdr/root/sdtmig/datasets/HO/variables/HODECOD", "title": "Version-agnostic anchor resource for SDTMIG variable HO.HODECOD", "type": "Root Data Element"}, "self": {"href": "/mdr/sdtmig/3-2/datasets/HO/variables/HODECOD", "title": "Dictionary-Derived Term for the Healthcare Encounter", "type": "SDTM Dataset Variable"}}, "core": "Perm", "description": "Dictionary or sponsor-defined derived text description of HOTERM or the modified topic variable (HOMODIFY).", "label": "Dictionary-Derived Term for the Healthcare Encounter", "name": "HODECOD", "ordinal": "9", "role": "Synonym Qualifier", "simpleDatatype": "Char"}, {"_links": {"modelClassVariable": {"href": "/mdr/sdtm/1-4/classes/Events/variables/--CAT", "title": "Category", "type": "Class Variable"}, "parentDataset": {"href": "/mdr/sdtmig/3-2/datasets/HO", "title": "Healthcare Encounters", "type": "SDTM Dataset"}, "parentProduct": {"href": "/mdr/sdtmig/3-2", "title": "Study Data Tabulation Model Implementation Guide: Human Clinical Trials Version 3.2 (Final)", "type": "Implementation Guide"}, "rootItem": {"href": "/mdr/root/sdtmig/datasets/HO/variables/HOCAT", "title": "Version-agnostic anchor resource for SDTMIG variable HO.HOCAT", "type": "Root Data Element"}, "self": {"href": "/mdr/sdtmig/3-2/datasets/HO/variables/HOCAT", "title": "Category for Healthcare Encounter", "type": "SDTM Dataset Variable"}}, "core": "Perm", "description": "Used to define a category of topic-related values.", "label": "Category for Healthcare Encounter", "name": "HOCAT", "ordinal": "10", "role": "Grouping Qualifier", "simpleDatatype": "Char"}, {"_links": {"modelClassVariable": {"href": "/mdr/sdtm/1-4/classes/Events/variables/--SCAT", "title": "Subcategory", "type": "Class Variable"}, "parentDataset": {"href": "/mdr/sdtmig/3-2/datasets/HO", "title": "Healthcare Encounters", "type": "SDTM Dataset"}, "parentProduct": {"href": "/mdr/sdtmig/3-2", "title": "Study Data Tabulation Model Implementation Guide: Human Clinical Trials Version 3.2 (Final)", "type": "Implementation Guide"}, "rootItem": {"href": "/mdr/root/sdtmig/datasets/HO/variables/HOSCAT", "title": "Version-agnostic anchor resource for SDTMIG variable HO.HOSCAT", "type": "Root Data Element"}, "self": {"href": "/mdr/sdtmig/3-2/datasets/HO/variables/HOSCAT", "title": "Subcategory for Healthcare Encounter", "type": "SDTM Dataset Variable"}}, "core": "Perm", "description": "A further categorization of HOCAT values.", "label": "Subcategory for Healthcare Encounter", "name": "HOSCAT", "ordinal": "11", "role": "Grouping Qualifier", "simpleDatatype": "Char"}, {"_links": {"codelist": [{"href": "/mdr/root/ct/sdtmct/codelists/C66742", "title": "Version-agnostic anchor resource for codelist C66742", "type": "Root Value Domain"}], "modelClassVariable": {"href": "/mdr/sdtm/1-4/classes/Events/variables/--PRESP", "title": "Pre-specified", "type": "Class Variable"}, "parentDataset": {"href": "/mdr/sdtmig/3-2/datasets/HO", "title": "Healthcare Encounters", "type": "SDTM Dataset"}, "parentProduct": {"href": "/mdr/sdtmig/3-2", "title": "Study Data Tabulation Model Implementation Guide: Human Clinical Trials Version 3.2 (Final)", "type": "Implementation Guide"}, "rootItem": {"href": "/mdr/root/sdtmig/datasets/HO/variables/HOPRESP", "title": "Version-agnostic anchor resource for SDTMIG variable HO.HOPRESP", "type": "Root Data Element"}, "self": {"href": "/mdr/sdtmig/3-2/datasets/HO/variables/HOPRESP", "title": "Pre-Specified Healthcare Encounter", "type": "SDTM Dataset Variable"}}, "core": "Perm", "description": "A value of \"Y\" indicates that this healthcare encounter event was pre-specified on the CRF. Values are null for spontaneously reported events (i.e., those collected as free-text verbatim terms)", "label": "Pre-Specified Healthcare Encounter", "name": "HOPRESP", "ordinal": "12", "role": "Record Qualifier", "simpleDatatype": "Char"}, {"_links": {"codelist": [{"href": "/mdr/root/ct/sdtmct/codelists/C66742", "title": "Version-agnostic anchor resource for codelist C66742", "type": "Root Value Domain"}], "modelClassVariable": {"href": "/mdr/sdtm/1-4/classes/Events/variables/--OCCUR", "title": "Occurrence", "type": "Class Variable"}, "parentDataset": {"href": "/mdr/sdtmig/3-2/datasets/HO", "title": "Healthcare Encounters", "type": "SDTM Dataset"}, "parentProduct": {"href": "/mdr/sdtmig/3-2", "title": "Study Data Tabulation Model Implementation Guide: Human Clinical Trials Version 3.2 (Final)", "type": "Implementation Guide"}, "rootItem": {"href": "/mdr/root/sdtmig/datasets/HO/variables/HOOCCUR", "title": "Version-agnostic anchor resource for SDTMIG variable HO.HOOCCUR", "type": "Root Data Element"}, "self": {"href": "/mdr/sdtmig/3-2/datasets/HO/variables/HOOCCUR", "title": "Healthcare Encounter Occurrence", "type": "SDTM Dataset Variable"}}, "core": "Perm", "description": "Used when the occurrence of specific healthcare encounters is solicited to indicate whether or not an encounter occurred. Values are null for spontaneously reported events.", "label": "Healthcare Encounter Occurrence", "name": "HOOCCUR", "ordinal": "13", "role": "Record Qualifier", "simpleDatatype": "Char"}, {"_links": {"codelist": [{"href": "/mdr/root/ct/sdtmct/codelists/C66789", "title": "Version-agnostic anchor resource for codelist C66789", "type": "Root Value Domain"}], "modelClassVariable": {"href": "/mdr/sdtm/1-4/classes/Events/variables/--STAT", "title": "Completion Status", "type": "Class Variable"}, "parentDataset": {"href": "/mdr/sdtmig/3-2/datasets/HO", "title": "Healthcare Encounters", "type": "SDTM Dataset"}, "parentProduct": {"href": "/mdr/sdtmig/3-2", "title": "Study Data Tabulation Model Implementation Guide: Human Clinical Trials Version 3.2 (Final)", "type": "Implementation Guide"}, "rootItem": {"href": "/mdr/root/sdtmig/datasets/HO/variables/HOSTAT", "title": "Version-agnostic anchor resource for SDTMIG variable HO.HOSTAT", "type": "Root Data Element"}, "self": {"href": "/mdr/sdtmig/3-2/datasets/HO/variables/HOSTAT", "title": "Completion Status", "type": "SDTM Dataset Variable"}}, "core": "Perm", "description": "The status indicates that the pre-specified question was not answered.", "label": "Completion Status", "name": "HOSTAT", "ordinal": "14", "role": "Record Qualifier", "simpleDatatype": "Char"}, {"_links": {"modelClassVariable": {"href": "/mdr/sdtm/1-4/classes/Events/variables/--REASND", "title": "Reason Not Done", "type": "Class Variable"}, "parentDataset": {"href": "/mdr/sdtmig/3-2/datasets/HO", "title": "Healthcare Encounters", "type": "SDTM Dataset"}, "parentProduct": {"href": "/mdr/sdtmig/3-2", "title": "Study Data Tabulation Model Implementation Guide: Human Clinical Trials Version 3.2 (Final)", "type": "Implementation Guide"}, "rootItem": {"href": "/mdr/root/sdtmig/datasets/HO/variables/HOREASND", "title": "Version-agnostic anchor resource for SDTMIG variable HO.HOREASND", "type": "Root Data Element"}, "self": {"href": "/mdr/sdtmig/3-2/datasets/HO/variables/HOREASND", "title": "Reason Healthcare Encounter Not Done", "type": "SDTM Dataset Variable"}}, "core": "Perm", "description": "Describes the reason data for a pre-specified event was not collected. Used in conjunction with HOSTAT when value is NOT DONE.", "label": "Reason Healthcare Encounter Not Done", "name": "HOREASND", "ordinal": "15", "role": "Record Qualifier", "simpleDatatype": "Char"}, {"_links": {"modelClassVariable": {"href": "/mdr/sdtm/1-4/classes/GeneralObservations/variables/--DTC", "title": "Date/Time of Collection", "type": "Class Variable"}, "parentDataset": {"href": "/mdr/sdtmig/3-2/datasets/HO", "title": "Healthcare Encounters", "type": "SDTM Dataset"}, "parentProduct": {"href": "/mdr/sdtmig/3-2", "title": "Study Data Tabulation Model Implementation Guide: Human Clinical Trials Version 3.2 (Final)", "type": "Implementation Guide"}, "rootItem": {"href": "/mdr/root/sdtmig/datasets/HO/variables/HODTC", "title": "Version-agnostic anchor resource for SDTMIG variable HO.HODTC", "type": "Root Data Element"}, "self": {"href": "/mdr/sdtmig/3-2/datasets/HO/variables/HODTC", "title": "Date/Time of Event Collection", "type": "SDTM Dataset Variable"}}, "core": "Perm", "describedValueDomain": "ISO 8601", "description": "Collection date and time of the healthcare encounter.", "label": "Date/Time of Event Collection", "name": "HODTC", "ordinal": "16", "role": "Timing", "simpleDatatype": "Char"}, {"_links": {"modelClassVariable": {"href": "/mdr/sdtm/1-4/classes/GeneralObservations/variables/--STDTC", "title": "Start Date/Time of Observation", "type": "Class Variable"}, "parentDataset": {"href": "/mdr/sdtmig/3-2/datasets/HO", "title": "Healthcare Encounters", "type": "SDTM Dataset"}, "parentProduct": {"href": "/mdr/sdtmig/3-2", "title": "Study Data Tabulation Model Implementation Guide: Human Clinical Trials Version 3.2 (Final)", "type": "Implementation Guide"}, "rootItem": {"href": "/mdr/root/sdtmig/datasets/HO/variables/HOSTDTC", "title": "Version-agnostic anchor resource for SDTMIG variable HO.HOSTDTC", "type": "Root Data Element"}, "self": {"href": "/mdr/sdtmig/3-2/datasets/HO/variables/HOSTDTC", "title": "Start Date/Time of Healthcare Encounter", "type": "SDTM Dataset Variable"}}, "core": "Exp", "describedValueDomain": "ISO 8601", "description": "Start date/time of the healthcare encounter (e.g., date of admission).", "label": "Start Date/Time of Healthcare Encounter", "name": "HOSTDTC", "ordinal": "17", "role": "Timing", "simpleDatatype": "Char"}, {"_links": {"modelClassVariable": {"href": "/mdr/sdtm/1-4/classes/GeneralObservations/variables/--ENDTC", "title": "End Date/Time of Observation", "type": "Class Variable"}, "parentDataset": {"href": "/mdr/sdtmig/3-2/datasets/HO", "title": "Healthcare Encounters", "type": "SDTM Dataset"}, "parentProduct": {"href": "/mdr/sdtmig/3-2", "title": "Study Data Tabulation Model Implementation Guide: Human Clinical Trials Version 3.2 (Final)", "type": "Implementation Guide"}, "rootItem": {"href": "/mdr/root/sdtmig/datasets/HO/variables/HOENDTC", "title": "Version-agnostic anchor resource for SDTMIG variable HO.HOENDTC", "type": "Root Data Element"}, "self": {"href": "/mdr/sdtmig/3-2/datasets/HO/variables/HOENDTC", "title": "End Date/Time of Healthcare Encounter", "type": "SDTM Dataset Variable"}}, "core": "Perm", "describedValueDomain": "ISO 8601", "description": "End date/time of the healthcare encounter (date of discharge).", "label": "End Date/Time of Healthcare Encounter", "name": "HOENDTC", "ordinal": "18", "role": "Timing", "simpleDatatype": "Char"}, {"_links": {"modelClassVariable": {"href": "/mdr/sdtm/1-4/classes/GeneralObservations/variables/--DY", "title": "Study Day of Visit/Collection/Exam", "type": "Class Variable"}, "parentDataset": {"href": "/mdr/sdtmig/3-2/datasets/HO", "title": "Healthcare Encounters", "type": "SDTM Dataset"}, "parentProduct": {"href": "/mdr/sdtmig/3-2", "title": "Study Data Tabulation Model Implementation Guide: Human Clinical Trials Version 3.2 (Final)", "type": "Implementation Guide"}, "rootItem": {"href": "/mdr/root/sdtmig/datasets/HO/variables/HODY", "title": "Version-agnostic anchor resource for SDTMIG variable HO.HODY", "type": "Root Data Element"}, "self": {"href": "/mdr/sdtmig/3-2/datasets/HO/variables/HODY", "title": "Study Day of Event Collection", "type": "SDTM Dataset Variable"}}, "core": "Perm", "description": "Study day of event collection relative to the sponsor-defined RFSTDTC.", "label": "Study Day of Event Collection", "name": "HODY", "ordinal": "19", "role": "Timing", "simpleDatatype": "Num"}, {"_links": {"modelClassVariable": {"href": "/mdr/sdtm/1-4/classes/GeneralObservations/variables/--STDY", "title": "Study Day of Start of Observation", "type": "Class Variable"}, "parentDataset": {"href": "/mdr/sdtmig/3-2/datasets/HO", "title": "Healthcare Encounters", "type": "SDTM Dataset"}, "parentProduct": {"href": "/mdr/sdtmig/3-2", "title": "Study Data Tabulation Model Implementation Guide: Human Clinical Trials Version 3.2 (Final)", "type": "Implementation Guide"}, "rootItem": {"href": "/mdr/root/sdtmig/datasets/HO/variables/HOSTDY", "title": "Version-agnostic anchor resource for SDTMIG variable HO.HOSTDY", "type": "Root Data Element"}, "self": {"href": "/mdr/sdtmig/3-2/datasets/HO/variables/HOSTDY", "title": "Study Day of Start of Healthcare Encounter", "type": "SDTM Dataset Variable"}}, "core": "Perm", "description": "Study day of the start of the healthcare encounter relative to the sponsor-defined RFSTDTC.", "label": "Study Day of Start of Healthcare Encounter", "name": "HOSTDY", "ordinal": "20", "role": "Timing", "simpleDatatype": "Num"}, {"_links": {"modelClassVariable": {"href": "/mdr/sdtm/1-4/classes/GeneralObservations/variables/--ENDY", "title": "Study Day of End of Observation", "type": "Class Variable"}, "parentDataset": {"href": "/mdr/sdtmig/3-2/datasets/HO", "title": "Healthcare Encounters", "type": "SDTM Dataset"}, "parentProduct": {"href": "/mdr/sdtmig/3-2", "title": "Study Data Tabulation Model Implementation Guide: Human Clinical Trials Version 3.2 (Final)", "type": "Implementation Guide"}, "rootItem": {"href": "/mdr/root/sdtmig/datasets/HO/variables/HOENDY", "title": "Version-agnostic anchor resource for SDTMIG variable HO.HOENDY", "type": "Root Data Element"}, "self": {"href": "/mdr/sdtmig/3-2/datasets/HO/variables/HOENDY", "title": "Study Day of End of Healthcare Encounter", "type": "SDTM Dataset Variable"}}, "core": "Perm", "description": "Study day of the end of the healthcare encounter relative to the sponsor-defined RFSTDTC.", "label": "Study Day of End of Healthcare Encounter", "name": "HOENDY", "ordinal": "21", "role": "Timing", "simpleDatatype": "Num"}, {"_links": {"modelClassVariable": {"href": "/mdr/sdtm/1-4/classes/GeneralObservations/variables/--DUR", "title": "Duration", "type": "Class Variable"}, "parentDataset": {"href": "/mdr/sdtmig/3-2/datasets/HO", "title": "Healthcare Encounters", "type": "SDTM Dataset"}, "parentProduct": {"href": "/mdr/sdtmig/3-2", "title": "Study Data Tabulation Model Implementation Guide: Human Clinical Trials Version 3.2 (Final)", "type": "Implementation Guide"}, "rootItem": {"href": "/mdr/root/sdtmig/datasets/HO/variables/HODUR", "title": "Version-agnostic anchor resource for SDTMIG variable HO.HODUR", "type": "Root Data Element"}, "self": {"href": "/mdr/sdtmig/3-2/datasets/HO/variables/HODUR", "title": "Duration of Healthcare Encounter", "type": "SDTM Dataset Variable"}}, "core": "Perm", "describedValueDomain": "ISO 8601", "description": "Collected duration of the healthcare encounter. Used only if collected on the CRF and not derived from the start and end date/times. Example: P1DT2H (for 1 day, 2 hours).", "label": "Duration of Healthcare Encounter", "name": "HODUR", "ordinal": "22", "role": "Timing", "simpleDatatype": "Char"}, {"_links": {"codelist": [{"href": "/mdr/root/ct/sdtmct/codelists/C66728", "title": "Version-agnostic anchor resource for codelist C66728", "type": "Root Value Domain"}], "modelClassVariable": {"href": "/mdr/sdtm/1-4/classes/GeneralObservations/variables/--STRTPT", "title": "Start Relative to Reference Time Point", "type": "Class Variable"}, "parentDataset": {"href": "/mdr/sdtmig/3-2/datasets/HO", "title": "Healthcare Encounters", "type": "SDTM Dataset"}, "parentProduct": {"href": "/mdr/sdtmig/3-2", "title": "Study Data Tabulation Model Implementation Guide: Human Clinical Trials Version 3.2 (Final)", "type": "Implementation Guide"}, "rootItem": {"href": "/mdr/root/sdtmig/datasets/HO/variables/HOSTRTPT", "title": "Version-agnostic anchor resource for SDTMIG variable HO.HOSTRTPT", "type": "Root Data Element"}, "self": {"href": "/mdr/sdtmig/3-2/datasets/HO/variables/HOSTRTPT", "title": "Start Relative to Reference Time Point", "type": "SDTM Dataset Variable"}}, "core": "Perm", "description": "Identifies the start of the observation as being before or after the sponsor-defined reference time point defined by variable --STTPT.", "label": "Start Relative to Reference Time Point", "name": "HOSTRTPT", "ordinal": "23", "role": "Timing", "simpleDatatype": "Char"}, {"_links": {"modelClassVariable": {"href": "/mdr/sdtm/1-4/classes/GeneralObservations/variables/--STTPT", "title": "Start Reference Time Point", "type": "Class Variable"}, "parentDataset": {"href": "/mdr/sdtmig/3-2/datasets/HO", "title": "Healthcare Encounters", "type": "SDTM Dataset"}, "parentProduct": {"href": "/mdr/sdtmig/3-2", "title": "Study Data Tabulation Model Implementation Guide: Human Clinical Trials Version 3.2 (Final)", "type": "Implementation Guide"}, "rootItem": {"href": "/mdr/root/sdtmig/datasets/HO/variables/HOSTTPT", "title": "Version-agnostic anchor resource for SDTMIG variable HO.HOSTTPT", "type": "Root Data Element"}, "self": {"href": "/mdr/sdtmig/3-2/datasets/HO/variables/HOSTTPT", "title": "Start Reference Time Point", "type": "SDTM Dataset Variable"}}, "core": "Perm", "description": "Description or date/time in ISO 8601 character format of the sponsor-defined reference point referred to by STRTPT. Examples: \"2003-12-15\" or \"VISIT 1\".", "label": "Start Reference Time Point", "name": "HOSTTPT", "ordinal": "24", "role": "Timing", "simpleDatatype": "Char"}, {"_links": {"codelist": [{"href": "/mdr/root/ct/sdtmct/codelists/C66728", "title": "Version-agnostic anchor resource for codelist C66728", "type": "Root Value Domain"}], "modelClassVariable": {"href": "/mdr/sdtm/1-4/classes/GeneralObservations/variables/--ENRTPT", "title": "End Relative to Reference Time Point", "type": "Class Variable"}, "parentDataset": {"href": "/mdr/sdtmig/3-2/datasets/HO", "title": "Healthcare Encounters", "type": "SDTM Dataset"}, "parentProduct": {"href": "/mdr/sdtmig/3-2", "title": "Study Data Tabulation Model Implementation Guide: Human Clinical Trials Version 3.2 (Final)", "type": "Implementation Guide"}, "rootItem": {"href": "/mdr/root/sdtmig/datasets/HO/variables/HOENRTPT", "title": "Version-agnostic anchor resource for SDTMIG variable HO.HOENRTPT", "type": "Root Data Element"}, "self": {"href": "/mdr/sdtmig/3-2/datasets/HO/variables/HOENRTPT", "title": "End Relative to Reference Time Point", "type": "SDTM Dataset Variable"}}, "core": "Perm", "description": "Identifies the end of the event as being before or after the reference time point defined by variable HOENTPT.", "label": "End Relative to Reference Time Point", "name": "HOENRTPT", "ordinal": "25", "role": "Timing", "simpleDatatype": "Char"}, {"_links": {"modelClassVariable": {"href": "/mdr/sdtm/1-4/classes/GeneralObservations/variables/--ENTPT", "title": "End Reference Time Point", "type": "Class Variable"}, "parentDataset": {"href": "/mdr/sdtmig/3-2/datasets/HO", "title": "Healthcare Encounters", "type": "SDTM Dataset"}, "parentProduct": {"href": "/mdr/sdtmig/3-2", "title": "Study Data Tabulation Model Implementation Guide: Human Clinical Trials Version 3.2 (Final)", "type": "Implementation Guide"}, "rootItem": {"href": "/mdr/root/sdtmig/datasets/HO/variables/HOENTPT", "title": "Version-agnostic anchor resource for SDTMIG variable HO.HOENTPT", "type": "Root Data Element"}, "self": {"href": "/mdr/sdtmig/3-2/datasets/HO/variables/HOENTPT", "title": "End Reference Time Point", "type": "SDTM Dataset Variable"}}, "core": "Perm", "description": "Description or date/time in ISO 8601 character format of the reference point referred to by HOENRTPT. Examples: \"2003-12-25\" or \"VISIT 2\".", "label": "End Reference Time Point", "name": "HOENTPT", "ordinal": "26", "role": "Timing", "simpleDatatype": "Char"}], "description": "A events domain that contains data for inpatient and outpatient healthcare events (e.g., hospitalization, nursing home stay, rehabilitation facility stay, ambulatory surgery). (Source: CDISC Controlled Terminology, DOMAIN, C117757, 2018-06-29)", "label": "Healthcare Encounters", "name": "HO", "ordinal": "14"}
