{"_links": {"parentClass": {"href": "/mdr/sdtmig/3-2/classes/Findings", "title": "Findings Observation Class", "type": "Class"}, "parentProduct": {"href": "/mdr/sdtmig/3-2", "title": "Study Data Tabulation Model Implementation Guide: Human Clinical Trials Version 3.2 (Final)", "type": "Implementation Guide"}, "self": {"href": "/mdr/sdtmig/3-2/datasets/IS", "title": "Immunogenicity Specimen Assessments", "type": "SDTM Dataset"}}, "datasetStructure": "One record per test per visit per subject", "datasetVariables": [{"_links": {"modelClassVariable": {"href": "/mdr/sdtm/1-4/classes/GeneralObservations/variables/STUDYID", "title": "Study Identifier", "type": "Class Variable"}, "parentDataset": {"href": "/mdr/sdtmig/3-2/datasets/IS", "title": "Immunogenicity Specimen Assessments", "type": "SDTM Dataset"}, "parentProduct": {"href": "/mdr/sdtmig/3-2", "title": "Study Data Tabulation Model Implementation Guide: Human Clinical Trials Version 3.2 (Final)", "type": "Implementation Guide"}, "rootItem": {"href": "/mdr/root/sdtmig/datasets/IS/variables/STUDYID", "title": "Version-agnostic anchor resource for SDTMIG variable IS.STUDYID", "type": "Root Data Element"}, "self": {"href": "/mdr/sdtmig/3-2/datasets/IS/variables/STUDYID", "title": "Study Identifier", "type": "SDTM Dataset Variable"}}, "core": "Req", "description": "Unique Identifier for a study.", "label": "Study Identifier", "name": "STUDYID", "ordinal": "1", "role": "Identifier", "simpleDatatype": "Char"}, {"_links": {"modelClassVariable": {"href": "/mdr/sdtm/1-4/classes/GeneralObservations/variables/DOMAIN", "title": "Domain Abbreviation", "type": "Class Variable"}, "parentDataset": {"href": "/mdr/sdtmig/3-2/datasets/IS", "title": "Immunogenicity Specimen Assessments", "type": "SDTM Dataset"}, "parentProduct": {"href": "/mdr/sdtmig/3-2", "title": "Study Data Tabulation Model Implementation Guide: Human Clinical Trials Version 3.2 (Final)", "type": "Implementation Guide"}, "rootItem": {"href": "/mdr/root/sdtmig/datasets/IS/variables/DOMAIN", "title": "Version-agnostic anchor resource for SDTMIG variable IS.DOMAIN", "type": "Root Data Element"}, "self": {"href": "/mdr/sdtmig/3-2/datasets/IS/variables/DOMAIN", "title": "Domain Abbreviation", "type": "SDTM Dataset Variable"}}, "core": "Req", "description": "Two-character abbreviation for the domain.", "label": "Domain Abbreviation", "name": "DOMAIN", "ordinal": "2", "role": "Identifier", "simpleDatatype": "Char", "valueList": ["IS"]}, {"_links": {"modelClassVariable": {"href": "/mdr/sdtm/1-4/classes/GeneralObservations/variables/USUBJID", "title": "Unique Subject Identifier", "type": "Class Variable"}, "parentDataset": {"href": "/mdr/sdtmig/3-2/datasets/IS", "title": "Immunogenicity Specimen Assessments", "type": "SDTM Dataset"}, "parentProduct": {"href": "/mdr/sdtmig/3-2", "title": "Study Data Tabulation Model Implementation Guide: Human Clinical Trials Version 3.2 (Final)", "type": "Implementation Guide"}, "rootItem": {"href": "/mdr/root/sdtmig/datasets/IS/variables/USUBJID", "title": "Version-agnostic anchor resource for SDTMIG variable IS.USUBJID", "type": "Root Data Element"}, "self": {"href": "/mdr/sdtmig/3-2/datasets/IS/variables/USUBJID", "title": "Unique Subject Identifier", "type": "SDTM Dataset Variable"}}, "core": "Req", "description": "Identifier used to uniquely identify a subject across a submission.", "label": "Unique Subject Identifier", "name": "USUBJID", "ordinal": "3", "role": "Identifier", "simpleDatatype": "Char"}, {"_links": {"modelClassVariable": {"href": "/mdr/sdtm/1-4/classes/GeneralObservations/variables/--SEQ", "title": "Sequence Number", "type": "Class Variable"}, "parentDataset": {"href": "/mdr/sdtmig/3-2/datasets/IS", "title": "Immunogenicity Specimen Assessments", "type": "SDTM Dataset"}, "parentProduct": {"href": "/mdr/sdtmig/3-2", "title": "Study Data Tabulation Model Implementation Guide: Human Clinical Trials Version 3.2 (Final)", "type": "Implementation Guide"}, "rootItem": {"href": "/mdr/root/sdtmig/datasets/IS/variables/ISSEQ", "title": "Version-agnostic anchor resource for SDTMIG variable IS.ISSEQ", "type": "Root Data Element"}, "self": {"href": "/mdr/sdtmig/3-2/datasets/IS/variables/ISSEQ", "title": "Sequence Number", "type": "SDTM Dataset Variable"}}, "core": "Req", "description": "Sequence number given to ensure uniqueness of subject records within a domain. May be any valid number.", "label": "Sequence Number", "name": "ISSEQ", "ordinal": "4", "role": "Identifier", "simpleDatatype": "Char"}, {"_links": {"modelClassVariable": {"href": "/mdr/sdtm/1-4/classes/GeneralObservations/variables/--GRPID", "title": "Group ID", "type": "Class Variable"}, "parentDataset": {"href": "/mdr/sdtmig/3-2/datasets/IS", "title": "Immunogenicity Specimen Assessments", "type": "SDTM Dataset"}, "parentProduct": {"href": "/mdr/sdtmig/3-2", "title": "Study Data Tabulation Model Implementation Guide: Human Clinical Trials Version 3.2 (Final)", "type": "Implementation Guide"}, "rootItem": {"href": "/mdr/root/sdtmig/datasets/IS/variables/ISGRPID", "title": "Version-agnostic anchor resource for SDTMIG variable IS.ISGRPID", "type": "Root Data Element"}, "self": {"href": "/mdr/sdtmig/3-2/datasets/IS/variables/ISGRPID", "title": "Group ID", "type": "SDTM Dataset Variable"}}, "core": "Perm", "description": "Used to tie together a block of related records in a single domain for a subject.", "label": "Group ID", "name": "ISGRPID", "ordinal": "5", "role": "Identifier", "simpleDatatype": "Num"}, {"_links": {"modelClassVariable": {"href": "/mdr/sdtm/1-4/classes/GeneralObservations/variables/--REFID", "title": "Reference ID", "type": "Class Variable"}, "parentDataset": {"href": "/mdr/sdtmig/3-2/datasets/IS", "title": "Immunogenicity Specimen Assessments", "type": "SDTM Dataset"}, "parentProduct": {"href": "/mdr/sdtmig/3-2", "title": "Study Data Tabulation Model Implementation Guide: Human Clinical Trials Version 3.2 (Final)", "type": "Implementation Guide"}, "rootItem": {"href": "/mdr/root/sdtmig/datasets/IS/variables/ISREFID", "title": "Version-agnostic anchor resource for SDTMIG variable IS.ISREFID", "type": "Root Data Element"}, "self": {"href": "/mdr/sdtmig/3-2/datasets/IS/variables/ISREFID", "title": "Reference ID", "type": "SDTM Dataset Variable"}}, "core": "Perm", "description": "Internal or external specimen identifier.  Example: 458975-01.", "label": "Reference ID", "name": "ISREFID", "ordinal": "6", "role": "Identifier", "simpleDatatype": "Char"}, {"_links": {"modelClassVariable": {"href": "/mdr/sdtm/1-4/classes/GeneralObservations/variables/--SPID", "title": "Sponsor-Defined Identifier", "type": "Class Variable"}, "parentDataset": {"href": "/mdr/sdtmig/3-2/datasets/IS", "title": "Immunogenicity Specimen Assessments", "type": "SDTM Dataset"}, "parentProduct": {"href": "/mdr/sdtmig/3-2", "title": "Study Data Tabulation Model Implementation Guide: Human Clinical Trials Version 3.2 (Final)", "type": "Implementation Guide"}, "rootItem": {"href": "/mdr/root/sdtmig/datasets/IS/variables/ISSPID", "title": "Version-agnostic anchor resource for SDTMIG variable IS.ISSPID", "type": "Root Data Element"}, "self": {"href": "/mdr/sdtmig/3-2/datasets/IS/variables/ISSPID", "title": "Sponsor-Defined Identifier", "type": "SDTM Dataset Variable"}}, "core": "Perm", "description": "Sponsor-defined identifier.", "label": "Sponsor-Defined Identifier", "name": "ISSPID", "ordinal": "7", "role": "Identifier", "simpleDatatype": "Char"}, {"_links": {"modelClassVariable": {"href": "/mdr/sdtm/1-4/classes/Findings/variables/--TESTCD", "title": "Short Name of Measurement, Test or Examination", "type": "Class Variable"}, "parentDataset": {"href": "/mdr/sdtmig/3-2/datasets/IS", "title": "Immunogenicity Specimen Assessments", "type": "SDTM Dataset"}, "parentProduct": {"href": "/mdr/sdtmig/3-2", "title": "Study Data Tabulation Model Implementation Guide: Human Clinical Trials Version 3.2 (Final)", "type": "Implementation Guide"}, "rootItem": {"href": "/mdr/root/sdtmig/datasets/IS/variables/ISTESTCD", "title": "Version-agnostic anchor resource for SDTMIG variable IS.ISTESTCD", "type": "Root Data Element"}, "self": {"href": "/mdr/sdtmig/3-2/datasets/IS/variables/ISTESTCD", "title": "Immunogenicity Test/Exam Short Name", "type": "SDTM Dataset Variable"}}, "core": "Req", "description": "Short name of the measurement, test, or examination described in ISTEST. It can be used as a column name when converting a dataset from a vertical to a horizontal format. The value in ISTESTCD cannot be longer than 8 characters, nor can it start with a number. ISTESTCD cannot contain characters other than letters, numbers, or underscores.  Sponsor should first check the lab terminology for the LBTEST/LBTESTCD values until CDISC attaches published controlled terminology.", "label": "Immunogenicity Test/Exam Short Name", "name": "ISTESTCD", "ordinal": "8", "role": "Identifier", "simpleDatatype": "Char"}, {"_links": {"modelClassVariable": {"href": "/mdr/sdtm/1-4/classes/Findings/variables/--TEST", "title": "Name of Measurement, Test or Examination", "type": "Class Variable"}, "parentDataset": {"href": "/mdr/sdtmig/3-2/datasets/IS", "title": "Immunogenicity Specimen Assessments", "type": "SDTM Dataset"}, "parentProduct": {"href": "/mdr/sdtmig/3-2", "title": "Study Data Tabulation Model Implementation Guide: Human Clinical Trials Version 3.2 (Final)", "type": "Implementation Guide"}, "rootItem": {"href": "/mdr/root/sdtmig/datasets/IS/variables/ISTEST", "title": "Version-agnostic anchor resource for SDTMIG variable IS.ISTEST", "type": "Root Data Element"}, "self": {"href": "/mdr/sdtmig/3-2/datasets/IS/variables/ISTEST", "title": "Immunogenicity Test or Examination Name", "type": "SDTM Dataset Variable"}}, "core": "Req", "description": "Verbatim name of the test or examination used to obtain the measurement or finding. The value in ISTEST cannot be longer than 40 characters.      (Example: Immunoglobulin E). Sponsor should first check the lab terminology for the LBTEST/LBTESTCD values until CDISC attaches published controlled terminology.", "label": "Immunogenicity Test or Examination Name", "name": "ISTEST", "ordinal": "9", "role": "Topic", "simpleDatatype": "Char"}, {"_links": {"modelClassVariable": {"href": "/mdr/sdtm/1-4/classes/Findings/variables/--CAT", "title": "Category", "type": "Class Variable"}, "parentDataset": {"href": "/mdr/sdtmig/3-2/datasets/IS", "title": "Immunogenicity Specimen Assessments", "type": "SDTM Dataset"}, "parentProduct": {"href": "/mdr/sdtmig/3-2", "title": "Study Data Tabulation Model Implementation Guide: Human Clinical Trials Version 3.2 (Final)", "type": "Implementation Guide"}, "rootItem": {"href": "/mdr/root/sdtmig/datasets/IS/variables/ISCAT", "title": "Version-agnostic anchor resource for SDTMIG variable IS.ISCAT", "type": "Root Data Element"}, "self": {"href": "/mdr/sdtmig/3-2/datasets/IS/variables/ISCAT", "title": "Category for Immunogenicity Test", "type": "SDTM Dataset Variable"}}, "core": "Perm", "description": "Used to define a category of Topic-variable values across subjects. Example: SEROLOGY", "label": "Category for Immunogenicity Test", "name": "ISCAT", "ordinal": "10", "role": "Synonym Qualifier", "simpleDatatype": "Char"}, {"_links": {"modelClassVariable": {"href": "/mdr/sdtm/1-4/classes/Findings/variables/--SCAT", "title": "Subcategory", "type": "Class Variable"}, "parentDataset": {"href": "/mdr/sdtmig/3-2/datasets/IS", "title": "Immunogenicity Specimen Assessments", "type": "SDTM Dataset"}, "parentProduct": {"href": "/mdr/sdtmig/3-2", "title": "Study Data Tabulation Model Implementation Guide: Human Clinical Trials Version 3.2 (Final)", "type": "Implementation Guide"}, "rootItem": {"href": "/mdr/root/sdtmig/datasets/IS/variables/ISSCAT", "title": "Version-agnostic anchor resource for SDTMIG variable IS.ISSCAT", "type": "Root Data Element"}, "self": {"href": "/mdr/sdtmig/3-2/datasets/IS/variables/ISSCAT", "title": "Subcategory for Immunogenicity Test", "type": "SDTM Dataset Variable"}}, "core": "Perm", "description": "A further categorization of ISCAT.", "label": "Subcategory for Immunogenicity Test", "name": "ISSCAT", "ordinal": "11", "role": "Grouping Qualifier", "simpleDatatype": "Char"}, {"_links": {"modelClassVariable": {"href": "/mdr/sdtm/1-4/classes/Findings/variables/--ORRES", "title": "Result or Finding in Original Units", "type": "Class Variable"}, "parentDataset": {"href": "/mdr/sdtmig/3-2/datasets/IS", "title": "Immunogenicity Specimen Assessments", "type": "SDTM Dataset"}, "parentProduct": {"href": "/mdr/sdtmig/3-2", "title": "Study Data Tabulation Model Implementation Guide: Human Clinical Trials Version 3.2 (Final)", "type": "Implementation Guide"}, "rootItem": {"href": "/mdr/root/sdtmig/datasets/IS/variables/ISORRES", "title": "Version-agnostic anchor resource for SDTMIG variable IS.ISORRES", "type": "Root Data Element"}, "self": {"href": "/mdr/sdtmig/3-2/datasets/IS/variables/ISORRES", "title": "Results or Findings in Original Units", "type": "SDTM Dataset Variable"}}, "core": "Exp", "description": "Results of measurement or finding as originally received or collected.", "label": "Results or Findings in Original Units", "name": "ISORRES", "ordinal": "12", "role": "Result Qualifier", "simpleDatatype": "Char"}, {"_links": {"codelist": [{"href": "/mdr/root/ct/sdtmct/codelists/C71620", "title": "Version-agnostic anchor resource for codelist C71620", "type": "Root Value Domain"}], "modelClassVariable": {"href": "/mdr/sdtm/1-4/classes/Findings/variables/--ORRESU", "title": "Original Units", "type": "Class Variable"}, "parentDataset": {"href": "/mdr/sdtmig/3-2/datasets/IS", "title": "Immunogenicity Specimen Assessments", "type": "SDTM Dataset"}, "parentProduct": {"href": "/mdr/sdtmig/3-2", "title": "Study Data Tabulation Model Implementation Guide: Human Clinical Trials Version 3.2 (Final)", "type": "Implementation Guide"}, "rootItem": {"href": "/mdr/root/sdtmig/datasets/IS/variables/ISORRESU", "title": "Version-agnostic anchor resource for SDTMIG variable IS.ISORRESU", "type": "Root Data Element"}, "self": {"href": "/mdr/sdtmig/3-2/datasets/IS/variables/ISORRESU", "title": "Original Units", "type": "SDTM Dataset Variable"}}, "core": "Exp", "description": "Original units in which the data were collected. The unit for ISORRES. Examples: Index Value, gpELISA, unit/mL.", "label": "Original Units", "name": "ISORRESU", "ordinal": "13", "role": "Variable Qualifier", "simpleDatatype": "Char"}, {"_links": {"modelClassVariable": {"href": "/mdr/sdtm/1-4/classes/Findings/variables/--STRESC", "title": "Result or Finding in Standard Format", "type": "Class Variable"}, "parentDataset": {"href": "/mdr/sdtmig/3-2/datasets/IS", "title": "Immunogenicity Specimen Assessments", "type": "SDTM Dataset"}, "parentProduct": {"href": "/mdr/sdtmig/3-2", "title": "Study Data Tabulation Model Implementation Guide: Human Clinical Trials Version 3.2 (Final)", "type": "Implementation Guide"}, "rootItem": {"href": "/mdr/root/sdtmig/datasets/IS/variables/ISSTRESC", "title": "Version-agnostic anchor resource for SDTMIG variable IS.ISSTRESC", "type": "Root Data Element"}, "self": {"href": "/mdr/sdtmig/3-2/datasets/IS/variables/ISSTRESC", "title": "Character Results/Findings in Std. Format", "type": "SDTM Dataset Variable"}}, "core": "Exp", "description": "Contains the result value for all findings, copied or derived from ISORRES, in a standard format or in standard units.  ISSTRESC should store all results or findings in character format; if results are numeric, they should also be stored in numeric format in ISSTRESN.", "label": "Character Results/Findings in Std. Format", "name": "ISSTRESC", "ordinal": "14", "role": "Result Qualifier", "simpleDatatype": "Char"}, {"_links": {"modelClassVariable": {"href": "/mdr/sdtm/1-4/classes/Findings/variables/--STRESN", "title": "Numeric Result/Finding in Standard Units", "type": "Class Variable"}, "parentDataset": {"href": "/mdr/sdtmig/3-2/datasets/IS", "title": "Immunogenicity Specimen Assessments", "type": "SDTM Dataset"}, "parentProduct": {"href": "/mdr/sdtmig/3-2", "title": "Study Data Tabulation Model Implementation Guide: Human Clinical Trials Version 3.2 (Final)", "type": "Implementation Guide"}, "rootItem": {"href": "/mdr/root/sdtmig/datasets/IS/variables/ISSTRESN", "title": "Version-agnostic anchor resource for SDTMIG variable IS.ISSTRESN", "type": "Root Data Element"}, "self": {"href": "/mdr/sdtmig/3-2/datasets/IS/variables/ISSTRESN", "title": "Numeric Results/Findings in Std. Units", "type": "SDTM Dataset Variable"}}, "core": "Exp", "description": "Used for continuous or numeric results or findings in standard format; copied in numeric format from ISSTRESC.  ISSTRESN should store all numeric test results or findings.", "label": "Numeric Results/Findings in Std. Units", "name": "ISSTRESN", "ordinal": "15", "role": "Result Qualifier", "simpleDatatype": "Num"}, {"_links": {"codelist": [{"href": "/mdr/root/ct/sdtmct/codelists/C71620", "title": "Version-agnostic anchor resource for codelist C71620", "type": "Root Value Domain"}], "modelClassVariable": {"href": "/mdr/sdtm/1-4/classes/Findings/variables/--STRESU", "title": "Standard Units", "type": "Class Variable"}, "parentDataset": {"href": "/mdr/sdtmig/3-2/datasets/IS", "title": "Immunogenicity Specimen Assessments", "type": "SDTM Dataset"}, "parentProduct": {"href": "/mdr/sdtmig/3-2", "title": "Study Data Tabulation Model Implementation Guide: Human Clinical Trials Version 3.2 (Final)", "type": "Implementation Guide"}, "rootItem": {"href": "/mdr/root/sdtmig/datasets/IS/variables/ISSTRESU", "title": "Version-agnostic anchor resource for SDTMIG variable IS.ISSTRESU", "type": "Root Data Element"}, "self": {"href": "/mdr/sdtmig/3-2/datasets/IS/variables/ISSTRESU", "title": "Standard Units", "type": "SDTM Dataset Variable"}}, "core": "Exp", "description": "Standardized units used for ISSTRESC and ISSTRESN. Examples: Index Value, gpELISA, unit/mL.", "label": "Standard Units", "name": "ISSTRESU", "ordinal": "16", "role": "Variable Qualifier", "simpleDatatype": "Char"}, {"_links": {"codelist": [{"href": "/mdr/root/ct/sdtmct/codelists/C66789", "title": "Version-agnostic anchor resource for codelist C66789", "type": "Root Value Domain"}], "modelClassVariable": {"href": "/mdr/sdtm/1-4/classes/Findings/variables/--STAT", "title": "Completion Status", "type": "Class Variable"}, "parentDataset": {"href": "/mdr/sdtmig/3-2/datasets/IS", "title": "Immunogenicity Specimen Assessments", "type": "SDTM Dataset"}, "parentProduct": {"href": "/mdr/sdtmig/3-2", "title": "Study Data Tabulation Model Implementation Guide: Human Clinical Trials Version 3.2 (Final)", "type": "Implementation Guide"}, "rootItem": {"href": "/mdr/root/sdtmig/datasets/IS/variables/ISSTAT", "title": "Version-agnostic anchor resource for SDTMIG variable IS.ISSTAT", "type": "Root Data Element"}, "self": {"href": "/mdr/sdtmig/3-2/datasets/IS/variables/ISSTAT", "title": "Completion Status", "type": "SDTM Dataset Variable"}}, "core": "Perm", "description": "Used to indicate a test was not done. Should be null if a result exists in ISORRES.", "label": "Completion Status", "name": "ISSTAT", "ordinal": "17", "role": "Record Qualifier", "simpleDatatype": "Char"}, {"_links": {"modelClassVariable": {"href": "/mdr/sdtm/1-4/classes/Findings/variables/--REASND", "title": "Reason Not Done", "type": "Class Variable"}, "parentDataset": {"href": "/mdr/sdtmig/3-2/datasets/IS", "title": "Immunogenicity Specimen Assessments", "type": "SDTM Dataset"}, "parentProduct": {"href": "/mdr/sdtmig/3-2", "title": "Study Data Tabulation Model Implementation Guide: Human Clinical Trials Version 3.2 (Final)", "type": "Implementation Guide"}, "rootItem": {"href": "/mdr/root/sdtmig/datasets/IS/variables/ISREASND", "title": "Version-agnostic anchor resource for SDTMIG variable IS.ISREASND", "type": "Root Data Element"}, "self": {"href": "/mdr/sdtmig/3-2/datasets/IS/variables/ISREASND", "title": "Reason Not Done", "type": "SDTM Dataset Variable"}}, "core": "Perm", "description": "Describes why a measurement or test was not performed. Used in conjunction with ISSTAT when value is NOT DONE.", "label": "Reason Not Done", "name": "ISREASND", "ordinal": "18", "role": "Record Qualifier", "simpleDatatype": "Char"}, {"_links": {"modelClassVariable": {"href": "/mdr/sdtm/1-4/classes/Findings/variables/--NAM", "title": "Laboratory/Vendor Name", "type": "Class Variable"}, "parentDataset": {"href": "/mdr/sdtmig/3-2/datasets/IS", "title": "Immunogenicity Specimen Assessments", "type": "SDTM Dataset"}, "parentProduct": {"href": "/mdr/sdtmig/3-2", "title": "Study Data Tabulation Model Implementation Guide: Human Clinical Trials Version 3.2 (Final)", "type": "Implementation Guide"}, "rootItem": {"href": "/mdr/root/sdtmig/datasets/IS/variables/ISNAM", "title": "Version-agnostic anchor resource for SDTMIG variable IS.ISNAM", "type": "Root Data Element"}, "self": {"href": "/mdr/sdtmig/3-2/datasets/IS/variables/ISNAM", "title": "Vendor Name", "type": "SDTM Dataset Variable"}}, "core": "Perm", "description": "Name or identifier of the laboratory or vendor who provided the test results", "label": "Vendor Name", "name": "ISNAM", "ordinal": "19", "role": "Record Qualifier", "simpleDatatype": "Char"}, {"_links": {"codelist": [{"href": "/mdr/root/ct/sdtmct/codelists/C78734", "title": "Version-agnostic anchor resource for codelist C78734", "type": "Root Value Domain"}], "modelClassVariable": {"href": "/mdr/sdtm/1-4/classes/Findings/variables/--SPEC", "title": "Specimen Material Type", "type": "Class Variable"}, "parentDataset": {"href": "/mdr/sdtmig/3-2/datasets/IS", "title": "Immunogenicity Specimen Assessments", "type": "SDTM Dataset"}, "parentProduct": {"href": "/mdr/sdtmig/3-2", "title": "Study Data Tabulation Model Implementation Guide: Human Clinical Trials Version 3.2 (Final)", "type": "Implementation Guide"}, "rootItem": {"href": "/mdr/root/sdtmig/datasets/IS/variables/ISSPEC", "title": "Version-agnostic anchor resource for SDTMIG variable IS.ISSPEC", "type": "Root Data Element"}, "self": {"href": "/mdr/sdtmig/3-2/datasets/IS/variables/ISSPEC", "title": "Specimen Type", "type": "SDTM Dataset Variable"}}, "core": "Perm", "description": "Defines the types of specimen used for a measurement. Example: SERUM.", "label": "Specimen Type", "name": "ISSPEC", "ordinal": "20", "role": "Record Qualifier", "simpleDatatype": "Char"}, {"_links": {"modelClassVariable": {"href": "/mdr/sdtm/1-4/classes/Findings/variables/--METHOD", "title": "Method of Test or Examination", "type": "Class Variable"}, "parentDataset": {"href": "/mdr/sdtmig/3-2/datasets/IS", "title": "Immunogenicity Specimen Assessments", "type": "SDTM Dataset"}, "parentProduct": {"href": "/mdr/sdtmig/3-2", "title": "Study Data Tabulation Model Implementation Guide: Human Clinical Trials Version 3.2 (Final)", "type": "Implementation Guide"}, "rootItem": {"href": "/mdr/root/sdtmig/datasets/IS/variables/ISMETHOD", "title": "Version-agnostic anchor resource for SDTMIG variable IS.ISMETHOD", "type": "Root Data Element"}, "self": {"href": "/mdr/sdtmig/3-2/datasets/IS/variables/ISMETHOD", "title": "Method of Test or Examination", "type": "SDTM Dataset Variable"}}, "core": "Perm", "description": "Method of test or examination. Examples: ELISA, ELISPOT.", "label": "Method of Test or Examination", "name": "ISMETHOD", "ordinal": "21", "role": "Record Qualifier", "simpleDatatype": "Char"}, {"_links": {"codelist": [{"href": "/mdr/root/ct/sdtmct/codelists/C66742", "title": "Version-agnostic anchor resource for codelist C66742", "type": "Root Value Domain"}], "modelClassVariable": {"href": "/mdr/sdtm/1-4/classes/Findings/variables/--BLFL", "title": "Baseline Flag", "type": "Class Variable"}, "parentDataset": {"href": "/mdr/sdtmig/3-2/datasets/IS", "title": "Immunogenicity Specimen Assessments", "type": "SDTM Dataset"}, "parentProduct": {"href": "/mdr/sdtmig/3-2", "title": "Study Data Tabulation Model Implementation Guide: Human Clinical Trials Version 3.2 (Final)", "type": "Implementation Guide"}, "rootItem": {"href": "/mdr/root/sdtmig/datasets/IS/variables/ISBLFL", "title": "Version-agnostic anchor resource for SDTMIG variable IS.ISBLFL", "type": "Root Data Element"}, "self": {"href": "/mdr/sdtmig/3-2/datasets/IS/variables/ISBLFL", "title": "Baseline Flag", "type": "SDTM Dataset Variable"}}, "core": "Perm", "description": "Indicator used to identify a baseline value.  Should be Y or null.", "label": "Baseline Flag", "name": "ISBLFL", "ordinal": "22", "role": "Record Qualifier", "simpleDatatype": "Char"}, {"_links": {"modelClassVariable": {"href": "/mdr/sdtm/1-4/classes/Findings/variables/--LLOQ", "title": "Lower Limit of Quantitation", "type": "Class Variable"}, "parentDataset": {"href": "/mdr/sdtmig/3-2/datasets/IS", "title": "Immunogenicity Specimen Assessments", "type": "SDTM Dataset"}, "parentProduct": {"href": "/mdr/sdtmig/3-2", "title": "Study Data Tabulation Model Implementation Guide: Human Clinical Trials Version 3.2 (Final)", "type": "Implementation Guide"}, "rootItem": {"href": "/mdr/root/sdtmig/datasets/IS/variables/ISLLOQ", "title": "Version-agnostic anchor resource for SDTMIG variable IS.ISLLOQ", "type": "Root Data Element"}, "self": {"href": "/mdr/sdtmig/3-2/datasets/IS/variables/ISLLOQ", "title": "Lower Limit of Quantitation", "type": "SDTM Dataset Variable"}}, "core": "Exp", "description": "Indicates the lower limit of quantitation for an assay.  Units will be those used for ISSTRESU.", "label": "Lower Limit of Quantitation", "name": "ISLLOQ", "ordinal": "23", "role": "Variable Qualifier", "simpleDatatype": "Num"}, {"_links": {"modelClassVariable": {"href": "/mdr/sdtm/1-4/classes/GeneralObservations/variables/VISITNUM", "title": "Visit Number", "type": "Class Variable"}, "parentDataset": {"href": "/mdr/sdtmig/3-2/datasets/IS", "title": "Immunogenicity Specimen Assessments", "type": "SDTM Dataset"}, "parentProduct": {"href": "/mdr/sdtmig/3-2", "title": "Study Data Tabulation Model Implementation Guide: Human Clinical Trials Version 3.2 (Final)", "type": "Implementation Guide"}, "rootItem": {"href": "/mdr/root/sdtmig/datasets/IS/variables/VISITNUM", "title": "Version-agnostic anchor resource for SDTMIG variable IS.VISITNUM", "type": "Root Data Element"}, "self": {"href": "/mdr/sdtmig/3-2/datasets/IS/variables/VISITNUM", "title": "Visit Number", "type": "SDTM Dataset Variable"}}, "core": "Exp", "description": "1. Clinical encounter number.  2. Numeric version of VISIT, used for sorting.", "label": "Visit Number", "name": "VISITNUM", "ordinal": "24", "role": "Timing", "simpleDatatype": "Num"}, {"_links": {"modelClassVariable": {"href": "/mdr/sdtm/1-4/classes/GeneralObservations/variables/VISIT", "title": "Visit Name", "type": "Class Variable"}, "parentDataset": {"href": "/mdr/sdtmig/3-2/datasets/IS", "title": "Immunogenicity Specimen Assessments", "type": "SDTM Dataset"}, "parentProduct": {"href": "/mdr/sdtmig/3-2", "title": "Study Data Tabulation Model Implementation Guide: Human Clinical Trials Version 3.2 (Final)", "type": "Implementation Guide"}, "rootItem": {"href": "/mdr/root/sdtmig/datasets/IS/variables/VISIT", "title": "Version-agnostic anchor resource for SDTMIG variable IS.VISIT", "type": "Root Data Element"}, "self": {"href": "/mdr/sdtmig/3-2/datasets/IS/variables/VISIT", "title": "Visit Name", "type": "SDTM Dataset Variable"}}, "core": "Perm", "description": "1. Protocol-defined description of clinical encounter. 2. May be used in addition to VISITNUM and/or VISITDY.", "label": "Visit Name", "name": "VISIT", "ordinal": "25", "role": "Timing", "simpleDatatype": "Char"}, {"_links": {"modelClassVariable": {"href": "/mdr/sdtm/1-4/classes/GeneralObservations/variables/VISITDY", "title": "Planned Study Day of Visit", "type": "Class Variable"}, "parentDataset": {"href": "/mdr/sdtmig/3-2/datasets/IS", "title": "Immunogenicity Specimen Assessments", "type": "SDTM Dataset"}, "parentProduct": {"href": "/mdr/sdtmig/3-2", "title": "Study Data Tabulation Model Implementation Guide: Human Clinical Trials Version 3.2 (Final)", "type": "Implementation Guide"}, "rootItem": {"href": "/mdr/root/sdtmig/datasets/IS/variables/VISITDY", "title": "Version-agnostic anchor resource for SDTMIG variable IS.VISITDY", "type": "Root Data Element"}, "self": {"href": "/mdr/sdtmig/3-2/datasets/IS/variables/VISITDY", "title": "Planned Study Day of Visit", "type": "SDTM Dataset Variable"}}, "core": "Perm", "description": "Planned study day of the visit based upon RFSTDTC in Demographics.", "label": "Planned Study Day of Visit", "name": "VISITDY", "ordinal": "26", "role": "Timing", "simpleDatatype": "Num"}, {"_links": {"modelClassVariable": {"href": "/mdr/sdtm/1-4/classes/GeneralObservations/variables/--DTC", "title": "Date/Time of Collection", "type": "Class Variable"}, "parentDataset": {"href": "/mdr/sdtmig/3-2/datasets/IS", "title": "Immunogenicity Specimen Assessments", "type": "SDTM Dataset"}, "parentProduct": {"href": "/mdr/sdtmig/3-2", "title": "Study Data Tabulation Model Implementation Guide: Human Clinical Trials Version 3.2 (Final)", "type": "Implementation Guide"}, "rootItem": {"href": "/mdr/root/sdtmig/datasets/IS/variables/ISDTC", "title": "Version-agnostic anchor resource for SDTMIG variable IS.ISDTC", "type": "Root Data Element"}, "self": {"href": "/mdr/sdtmig/3-2/datasets/IS/variables/ISDTC", "title": "Date/Time of Collection", "type": "SDTM Dataset Variable"}}, "core": "Exp", "describedValueDomain": "ISO 8601", "description": "Collection date and time of an observation represented in ISO 8601.", "label": "Date/Time of Collection", "name": "ISDTC", "ordinal": "27", "role": "Timing", "simpleDatatype": "Char"}, {"_links": {"modelClassVariable": {"href": "/mdr/sdtm/1-4/classes/GeneralObservations/variables/--DY", "title": "Study Day of Visit/Collection/Exam", "type": "Class Variable"}, "parentDataset": {"href": "/mdr/sdtmig/3-2/datasets/IS", "title": "Immunogenicity Specimen Assessments", "type": "SDTM Dataset"}, "parentProduct": {"href": "/mdr/sdtmig/3-2", "title": "Study Data Tabulation Model Implementation Guide: Human Clinical Trials Version 3.2 (Final)", "type": "Implementation Guide"}, "rootItem": {"href": "/mdr/root/sdtmig/datasets/IS/variables/ISDY", "title": "Version-agnostic anchor resource for SDTMIG variable IS.ISDY", "type": "Root Data Element"}, "self": {"href": "/mdr/sdtmig/3-2/datasets/IS/variables/ISDY", "title": "Study Day of Visit/Collection/Exam", "type": "SDTM Dataset Variable"}}, "core": "Perm", "description": "Actual study day of visit/collection/exam expressed in integer days relative to sponsor- defined RFSTDTC in Demographics.", "label": "Study Day of Visit/Collection/Exam", "name": "ISDY", "ordinal": "28", "role": "Timing", "simpleDatatype": "Num"}], "description": "A findings domain for assessments that determine whether a therapy induced an immune response. (Source: CDISC Controlled Terminology, DOMAIN, C112320, 2018-06-29)", "label": "Immunogenicity Specimen Assessments", "name": "IS", "ordinal": "20"}
