{"_links": {"parentClass": {"href": "/mdr/sdtmig/3-2/classes/Findings", "title": "Findings Observation Class", "type": "Class"}, "parentProduct": {"href": "/mdr/sdtmig/3-2", "title": "Study Data Tabulation Model Implementation Guide: Human Clinical Trials Version 3.2 (Final)", "type": "Implementation Guide"}, "self": {"href": "/mdr/sdtmig/3-2/datasets/RP", "title": "Reproductive System Findings", "type": "SDTM Dataset"}}, "datasetStructure": "One record per Reproductive System Finding per time point per visit per subject", "datasetVariables": [{"_links": {"modelClassVariable": {"href": "/mdr/sdtm/1-4/classes/GeneralObservations/variables/STUDYID", "title": "Study Identifier", "type": "Class Variable"}, "parentDataset": {"href": "/mdr/sdtmig/3-2/datasets/RP", "title": "Reproductive System Findings", "type": "SDTM Dataset"}, "parentProduct": {"href": "/mdr/sdtmig/3-2", "title": "Study Data Tabulation Model Implementation Guide: Human Clinical Trials Version 3.2 (Final)", "type": "Implementation Guide"}, "rootItem": {"href": "/mdr/root/sdtmig/datasets/RP/variables/STUDYID", "title": "Version-agnostic anchor resource for SDTMIG variable RP.STUDYID", "type": "Root Data Element"}, "self": {"href": "/mdr/sdtmig/3-2/datasets/RP/variables/STUDYID", "title": "Study Identifier", "type": "SDTM Dataset Variable"}}, "core": "Req", "description": "Unique identifier for a study.", "label": "Study Identifier", "name": "STUDYID", "ordinal": "1", "role": "Identifier", "simpleDatatype": "Char"}, {"_links": {"modelClassVariable": {"href": "/mdr/sdtm/1-4/classes/GeneralObservations/variables/DOMAIN", "title": "Domain Abbreviation", "type": "Class Variable"}, "parentDataset": {"href": "/mdr/sdtmig/3-2/datasets/RP", "title": "Reproductive System Findings", "type": "SDTM Dataset"}, "parentProduct": {"href": "/mdr/sdtmig/3-2", "title": "Study Data Tabulation Model Implementation Guide: Human Clinical Trials Version 3.2 (Final)", "type": "Implementation Guide"}, "rootItem": {"href": "/mdr/root/sdtmig/datasets/RP/variables/DOMAIN", "title": "Version-agnostic anchor resource for SDTMIG variable RP.DOMAIN", "type": "Root Data Element"}, "self": {"href": "/mdr/sdtmig/3-2/datasets/RP/variables/DOMAIN", "title": "Domain Abbreviation", "type": "SDTM Dataset Variable"}}, "core": "Req", "description": "Two-character abbreviation for the domain.", "label": "Domain Abbreviation", "name": "DOMAIN", "ordinal": "2", "role": "Identifier", "simpleDatatype": "Char", "valueList": ["RP"]}, {"_links": {"modelClassVariable": {"href": "/mdr/sdtm/1-4/classes/GeneralObservations/variables/USUBJID", "title": "Unique Subject Identifier", "type": "Class Variable"}, "parentDataset": {"href": "/mdr/sdtmig/3-2/datasets/RP", "title": "Reproductive System Findings", "type": "SDTM Dataset"}, "parentProduct": {"href": "/mdr/sdtmig/3-2", "title": "Study Data Tabulation Model Implementation Guide: Human Clinical Trials Version 3.2 (Final)", "type": "Implementation Guide"}, "rootItem": {"href": "/mdr/root/sdtmig/datasets/RP/variables/USUBJID", "title": "Version-agnostic anchor resource for SDTMIG variable RP.USUBJID", "type": "Root Data Element"}, "self": {"href": "/mdr/sdtmig/3-2/datasets/RP/variables/USUBJID", "title": "Unique Subject Identifier", "type": "SDTM Dataset Variable"}}, "core": "Req", "description": "Identifier used to uniquely identify a subject across all studies for all applications or submissions involving the product.", "label": "Unique Subject Identifier", "name": "USUBJID", "ordinal": "3", "role": "Identifier", "simpleDatatype": "Char"}, {"_links": {"modelClassVariable": {"href": "/mdr/sdtm/1-4/classes/GeneralObservations/variables/--SEQ", "title": "Sequence Number", "type": "Class Variable"}, "parentDataset": {"href": "/mdr/sdtmig/3-2/datasets/RP", "title": "Reproductive System Findings", "type": "SDTM Dataset"}, "parentProduct": {"href": "/mdr/sdtmig/3-2", "title": "Study Data Tabulation Model Implementation Guide: Human Clinical Trials Version 3.2 (Final)", "type": "Implementation Guide"}, "rootItem": {"href": "/mdr/root/sdtmig/datasets/RP/variables/RPSEQ", "title": "Version-agnostic anchor resource for SDTMIG variable RP.RPSEQ", "type": "Root Data Element"}, "self": {"href": "/mdr/sdtmig/3-2/datasets/RP/variables/RPSEQ", "title": "Sequence Number", "type": "SDTM Dataset Variable"}}, "core": "Req", "description": "Sequence Number given to ensure uniqueness of subject records within a domain. May be any valid number.", "label": "Sequence Number", "name": "RPSEQ", "ordinal": "4", "role": "Identifier", "simpleDatatype": "Num"}, {"_links": {"modelClassVariable": {"href": "/mdr/sdtm/1-4/classes/GeneralObservations/variables/--GRPID", "title": "Group ID", "type": "Class Variable"}, "parentDataset": {"href": "/mdr/sdtmig/3-2/datasets/RP", "title": "Reproductive System Findings", "type": "SDTM Dataset"}, "parentProduct": {"href": "/mdr/sdtmig/3-2", "title": "Study Data Tabulation Model Implementation Guide: Human Clinical Trials Version 3.2 (Final)", "type": "Implementation Guide"}, "rootItem": {"href": "/mdr/root/sdtmig/datasets/RP/variables/RPGRPID", "title": "Version-agnostic anchor resource for SDTMIG variable RP.RPGRPID", "type": "Root Data Element"}, "self": {"href": "/mdr/sdtmig/3-2/datasets/RP/variables/RPGRPID", "title": "Group ID", "type": "SDTM Dataset Variable"}}, "core": "Perm", "description": "Used to tie together a block of related records in a single domain for a subject.", "label": "Group ID", "name": "RPGRPID", "ordinal": "5", "role": "Identifier", "simpleDatatype": "Char"}, {"_links": {"modelClassVariable": {"href": "/mdr/sdtm/1-4/classes/GeneralObservations/variables/--REFID", "title": "Reference ID", "type": "Class Variable"}, "parentDataset": {"href": "/mdr/sdtmig/3-2/datasets/RP", "title": "Reproductive System Findings", "type": "SDTM Dataset"}, "parentProduct": {"href": "/mdr/sdtmig/3-2", "title": "Study Data Tabulation Model Implementation Guide: Human Clinical Trials Version 3.2 (Final)", "type": "Implementation Guide"}, "rootItem": {"href": "/mdr/root/sdtmig/datasets/RP/variables/RPREFID", "title": "Version-agnostic anchor resource for SDTMIG variable RP.RPREFID", "type": "Root Data Element"}, "self": {"href": "/mdr/sdtmig/3-2/datasets/RP/variables/RPREFID", "title": "Reference ID", "type": "SDTM Dataset Variable"}}, "core": "Perm", "description": "Internal or external Reproductive System Findings record identifier.", "label": "Reference ID", "name": "RPREFID", "ordinal": "6", "role": "Identifier", "simpleDatatype": "Char"}, {"_links": {"modelClassVariable": {"href": "/mdr/sdtm/1-4/classes/GeneralObservations/variables/--SPID", "title": "Sponsor-Defined Identifier", "type": "Class Variable"}, "parentDataset": {"href": "/mdr/sdtmig/3-2/datasets/RP", "title": "Reproductive System Findings", "type": "SDTM Dataset"}, "parentProduct": {"href": "/mdr/sdtmig/3-2", "title": "Study Data Tabulation Model Implementation Guide: Human Clinical Trials Version 3.2 (Final)", "type": "Implementation Guide"}, "rootItem": {"href": "/mdr/root/sdtmig/datasets/RP/variables/RPSPID", "title": "Version-agnostic anchor resource for SDTMIG variable RP.RPSPID", "type": "Root Data Element"}, "self": {"href": "/mdr/sdtmig/3-2/datasets/RP/variables/RPSPID", "title": "Sponsor-Defined Identifier", "type": "SDTM Dataset Variable"}}, "core": "Perm", "description": "Sponsor-defined identifier. Perhaps pre-printed on the CRF as an explicit line identifier or defined in the sponsor's operational database.", "label": "Sponsor-Defined Identifier", "name": "RPSPID", "ordinal": "7", "role": "Identifier", "simpleDatatype": "Char"}, {"_links": {"codelist": [{"href": "/mdr/root/ct/sdtmct/codelists/C106479", "title": "Version-agnostic anchor resource for codelist C106479", "type": "Root Value Domain"}], "modelClassVariable": {"href": "/mdr/sdtm/1-4/classes/Findings/variables/--TESTCD", "title": "Short Name of Measurement, Test or Examination", "type": "Class Variable"}, "parentDataset": {"href": "/mdr/sdtmig/3-2/datasets/RP", "title": "Reproductive System Findings", "type": "SDTM Dataset"}, "parentProduct": {"href": "/mdr/sdtmig/3-2", "title": "Study Data Tabulation Model Implementation Guide: Human Clinical Trials Version 3.2 (Final)", "type": "Implementation Guide"}, "rootItem": {"href": "/mdr/root/sdtmig/datasets/RP/variables/RPTESTCD", "title": "Version-agnostic anchor resource for SDTMIG variable RP.RPTESTCD", "type": "Root Data Element"}, "self": {"href": "/mdr/sdtmig/3-2/datasets/RP/variables/RPTESTCD", "title": "Repro System Findings Test Short Name", "type": "SDTM Dataset Variable"}}, "core": "Req", "description": "Short name of the measurement, test, or examination described in RPTEST. It can be used as a column name when converting a dataset from a vertical to a horizontal format. The value in RPTESTCD cannot be longer than 8 characters, nor can it start with a number (e.g.\"1TEST\"). RPTESTCD cannot contain characters other than letters, numbers, or underscores. Examples: NUMLIV, NUMPREG, BCMETHOD, etc.", "label": "Repro System Findings Test Short Name", "name": "RPTESTCD", "ordinal": "8", "role": "Topic", "simpleDatatype": "Char"}, {"_links": {"codelist": [{"href": "/mdr/root/ct/sdtmct/codelists/C106478", "title": "Version-agnostic anchor resource for codelist C106478", "type": "Root Value Domain"}], "modelClassVariable": {"href": "/mdr/sdtm/1-4/classes/Findings/variables/--TEST", "title": "Name of Measurement, Test or Examination", "type": "Class Variable"}, "parentDataset": {"href": "/mdr/sdtmig/3-2/datasets/RP", "title": "Reproductive System Findings", "type": "SDTM Dataset"}, "parentProduct": {"href": "/mdr/sdtmig/3-2", "title": "Study Data Tabulation Model Implementation Guide: Human Clinical Trials Version 3.2 (Final)", "type": "Implementation Guide"}, "rootItem": {"href": "/mdr/root/sdtmig/datasets/RP/variables/RPTEST", "title": "Version-agnostic anchor resource for SDTMIG variable RP.RPTEST", "type": "Root Data Element"}, "self": {"href": "/mdr/sdtmig/3-2/datasets/RP/variables/RPTEST", "title": "Reproductive System Findings Test Name", "type": "SDTM Dataset Variable"}}, "core": "Req", "description": "Verbatim name of the test or examination used to obtain the measurement or finding. The value in RPTEST cannot be longer than 40 characters. Examples: Number of Live Births, Number of Pregnancies, Birth Control Method, etc.", "label": "Reproductive System Findings Test Name", "name": "RPTEST", "ordinal": "9", "role": "Synonym Qualifier", "simpleDatatype": "Char"}, {"_links": {"modelClassVariable": {"href": "/mdr/sdtm/1-4/classes/Findings/variables/--CAT", "title": "Category", "type": "Class Variable"}, "parentDataset": {"href": "/mdr/sdtmig/3-2/datasets/RP", "title": "Reproductive System Findings", "type": "SDTM Dataset"}, "parentProduct": {"href": "/mdr/sdtmig/3-2", "title": "Study Data Tabulation Model Implementation Guide: Human Clinical Trials Version 3.2 (Final)", "type": "Implementation Guide"}, "rootItem": {"href": "/mdr/root/sdtmig/datasets/RP/variables/RPCAT", "title": "Version-agnostic anchor resource for SDTMIG variable RP.RPCAT", "type": "Root Data Element"}, "self": {"href": "/mdr/sdtmig/3-2/datasets/RP/variables/RPCAT", "title": "Category for Repro System Findings", "type": "SDTM Dataset Variable"}}, "core": "Perm", "description": "Used to define a category of related records.", "label": "Category for Repro System Findings", "name": "RPCAT", "ordinal": "10", "role": "Grouping Qualifier", "simpleDatatype": "Char"}, {"_links": {"modelClassVariable": {"href": "/mdr/sdtm/1-4/classes/Findings/variables/--SCAT", "title": "Subcategory", "type": "Class Variable"}, "parentDataset": {"href": "/mdr/sdtmig/3-2/datasets/RP", "title": "Reproductive System Findings", "type": "SDTM Dataset"}, "parentProduct": {"href": "/mdr/sdtmig/3-2", "title": "Study Data Tabulation Model Implementation Guide: Human Clinical Trials Version 3.2 (Final)", "type": "Implementation Guide"}, "rootItem": {"href": "/mdr/root/sdtmig/datasets/RP/variables/RPSCAT", "title": "Version-agnostic anchor resource for SDTMIG variable RP.RPSCAT", "type": "Root Data Element"}, "self": {"href": "/mdr/sdtmig/3-2/datasets/RP/variables/RPSCAT", "title": "Subcategory for Repro System Findings", "type": "SDTM Dataset Variable"}}, "core": "Perm", "description": "A further categorization of RP records.", "label": "Subcategory for Repro System Findings", "name": "RPSCAT", "ordinal": "11", "role": "Grouping Qualifier", "simpleDatatype": "Char"}, {"_links": {"modelClassVariable": {"href": "/mdr/sdtm/1-4/classes/Findings/variables/--ORRES", "title": "Result or Finding in Original Units", "type": "Class Variable"}, "parentDataset": {"href": "/mdr/sdtmig/3-2/datasets/RP", "title": "Reproductive System Findings", "type": "SDTM Dataset"}, "parentProduct": {"href": "/mdr/sdtmig/3-2", "title": "Study Data Tabulation Model Implementation Guide: Human Clinical Trials Version 3.2 (Final)", "type": "Implementation Guide"}, "rootItem": {"href": "/mdr/root/sdtmig/datasets/RP/variables/RPORRES", "title": "Version-agnostic anchor resource for SDTMIG variable RP.RPORRES", "type": "Root Data Element"}, "self": {"href": "/mdr/sdtmig/3-2/datasets/RP/variables/RPORRES", "title": "Result or Finding in Original Units", "type": "SDTM Dataset Variable"}}, "core": "Exp", "description": "Result of the Reproductive System Findings test as originally received or collected.", "label": "Result or Finding in Original Units", "name": "RPORRES", "ordinal": "12", "role": "Result Qualifier", "simpleDatatype": "Char"}, {"_links": {"codelist": [{"href": "/mdr/root/ct/sdtmct/codelists/C71620", "title": "Version-agnostic anchor resource for codelist C71620", "type": "Root Value Domain"}], "modelClassVariable": {"href": "/mdr/sdtm/1-4/classes/Findings/variables/--ORRESU", "title": "Original Units", "type": "Class Variable"}, "parentDataset": {"href": "/mdr/sdtmig/3-2/datasets/RP", "title": "Reproductive System Findings", "type": "SDTM Dataset"}, "parentProduct": {"href": "/mdr/sdtmig/3-2", "title": "Study Data Tabulation Model Implementation Guide: Human Clinical Trials Version 3.2 (Final)", "type": "Implementation Guide"}, "rootItem": {"href": "/mdr/root/sdtmig/datasets/RP/variables/RPORRESU", "title": "Version-agnostic anchor resource for SDTMIG variable RP.RPORRESU", "type": "Root Data Element"}, "self": {"href": "/mdr/sdtmig/3-2/datasets/RP/variables/RPORRESU", "title": "Original Units", "type": "SDTM Dataset Variable"}}, "core": "Exp", "description": "Original units in which the data were collected. The unit for RPORRES. Examples: YEARS.", "label": "Original Units", "name": "RPORRESU", "ordinal": "13", "role": "Variable Qualifier", "simpleDatatype": "Char"}, {"_links": {"modelClassVariable": {"href": "/mdr/sdtm/1-4/classes/Findings/variables/--STRESC", "title": "Result or Finding in Standard Format", "type": "Class Variable"}, "parentDataset": {"href": "/mdr/sdtmig/3-2/datasets/RP", "title": "Reproductive System Findings", "type": "SDTM Dataset"}, "parentProduct": {"href": "/mdr/sdtmig/3-2", "title": "Study Data Tabulation Model Implementation Guide: Human Clinical Trials Version 3.2 (Final)", "type": "Implementation Guide"}, "rootItem": {"href": "/mdr/root/sdtmig/datasets/RP/variables/RPSTRESC", "title": "Version-agnostic anchor resource for SDTMIG variable RP.RPSTRESC", "type": "Root Data Element"}, "self": {"href": "/mdr/sdtmig/3-2/datasets/RP/variables/RPSTRESC", "title": "Character Result/Finding in Std. Format", "type": "SDTM Dataset Variable"}}, "core": "Exp", "description": "Contains the result value for all findings, copied or derived from RPORRES in a standard format or standard units. RPSTRESC should store all results or findings in character format; if results are numeric, they should also be stored in numeric format in RPSTRESN. For example, if a test has results \"NONE\", \"NEG\", and \"NEGATIVE\" in RPORRES and these results effectively have the same meaning; they could be represented in standard format in RPSTRESC as \"NEGATIVE\".", "label": "Character Result/Finding in Std. Format", "name": "RPSTRESC", "ordinal": "14", "role": "Result Qualifier", "simpleDatatype": "Char"}, {"_links": {"modelClassVariable": {"href": "/mdr/sdtm/1-4/classes/Findings/variables/--STRESN", "title": "Numeric Result/Finding in Standard Units", "type": "Class Variable"}, "parentDataset": {"href": "/mdr/sdtmig/3-2/datasets/RP", "title": "Reproductive System Findings", "type": "SDTM Dataset"}, "parentProduct": {"href": "/mdr/sdtmig/3-2", "title": "Study Data Tabulation Model Implementation Guide: Human Clinical Trials Version 3.2 (Final)", "type": "Implementation Guide"}, "rootItem": {"href": "/mdr/root/sdtmig/datasets/RP/variables/RPSTRESN", "title": "Version-agnostic anchor resource for SDTMIG variable RP.RPSTRESN", "type": "Root Data Element"}, "self": {"href": "/mdr/sdtmig/3-2/datasets/RP/variables/RPSTRESN", "title": "Numeric Result/Finding in Standard Units", "type": "SDTM Dataset Variable"}}, "core": "Exp", "description": "Used for continuous or numeric results or findings in standard format; copied in numeric format from RPSTRESC. RPSTRESN should store all numeric test results or findings.", "label": "Numeric Result/Finding in Standard Units", "name": "RPSTRESN", "ordinal": "15", "role": "Result Qualifier", "simpleDatatype": "Num"}, {"_links": {"codelist": [{"href": "/mdr/root/ct/sdtmct/codelists/C71620", "title": "Version-agnostic anchor resource for codelist C71620", "type": "Root Value Domain"}], "modelClassVariable": {"href": "/mdr/sdtm/1-4/classes/Findings/variables/--STRESU", "title": "Standard Units", "type": "Class Variable"}, "parentDataset": {"href": "/mdr/sdtmig/3-2/datasets/RP", "title": "Reproductive System Findings", "type": "SDTM Dataset"}, "parentProduct": {"href": "/mdr/sdtmig/3-2", "title": "Study Data Tabulation Model Implementation Guide: Human Clinical Trials Version 3.2 (Final)", "type": "Implementation Guide"}, "rootItem": {"href": "/mdr/root/sdtmig/datasets/RP/variables/RPSTRESU", "title": "Version-agnostic anchor resource for SDTMIG variable RP.RPSTRESU", "type": "Root Data Element"}, "self": {"href": "/mdr/sdtmig/3-2/datasets/RP/variables/RPSTRESU", "title": "Standard Units", "type": "SDTM Dataset Variable"}}, "core": "Exp", "description": "Standardized unit used for RPSTRESC and RPSTRESN.", "label": "Standard Units", "name": "RPSTRESU", "ordinal": "16", "role": "Variable Qualifier", "simpleDatatype": "Char"}, {"_links": {"codelist": [{"href": "/mdr/root/ct/sdtmct/codelists/C66789", "title": "Version-agnostic anchor resource for codelist C66789", "type": "Root Value Domain"}], "modelClassVariable": {"href": "/mdr/sdtm/1-4/classes/Findings/variables/--STAT", "title": "Completion Status", "type": "Class Variable"}, "parentDataset": {"href": "/mdr/sdtmig/3-2/datasets/RP", "title": "Reproductive System Findings", "type": "SDTM Dataset"}, "parentProduct": {"href": "/mdr/sdtmig/3-2", "title": "Study Data Tabulation Model Implementation Guide: Human Clinical Trials Version 3.2 (Final)", "type": "Implementation Guide"}, "rootItem": {"href": "/mdr/root/sdtmig/datasets/RP/variables/RPSTAT", "title": "Version-agnostic anchor resource for SDTMIG variable RP.RPSTAT", "type": "Root Data Element"}, "self": {"href": "/mdr/sdtmig/3-2/datasets/RP/variables/RPSTAT", "title": "Completion Status", "type": "SDTM Dataset Variable"}}, "core": "Perm", "description": "Used to indicate that a Reproductive System Findings test was not done. Should be null if a result exists in RPORRES.", "label": "Completion Status", "name": "RPSTAT", "ordinal": "17", "role": "Record Qualifier", "simpleDatatype": "Char"}, {"_links": {"modelClassVariable": {"href": "/mdr/sdtm/1-4/classes/Findings/variables/--REASND", "title": "Reason Not Done", "type": "Class Variable"}, "parentDataset": {"href": "/mdr/sdtmig/3-2/datasets/RP", "title": "Reproductive System Findings", "type": "SDTM Dataset"}, "parentProduct": {"href": "/mdr/sdtmig/3-2", "title": "Study Data Tabulation Model Implementation Guide: Human Clinical Trials Version 3.2 (Final)", "type": "Implementation Guide"}, "rootItem": {"href": "/mdr/root/sdtmig/datasets/RP/variables/RPREASND", "title": "Version-agnostic anchor resource for SDTMIG variable RP.RPREASND", "type": "Root Data Element"}, "self": {"href": "/mdr/sdtmig/3-2/datasets/RP/variables/RPREASND", "title": "Reason Not Performed", "type": "SDTM Dataset Variable"}}, "core": "Perm", "description": "Describes why a measurement or test was not performed. Examples: BROKEN EQUIPMENT or SUBJECT REFUSED. Used in conjunction with RPSTAT when value is NOT DONE.", "label": "Reason Not Performed", "name": "RPREASND", "ordinal": "18", "role": "Record Qualifier", "simpleDatatype": "Char"}, {"_links": {"codelist": [{"href": "/mdr/root/ct/sdtmct/codelists/C66742", "title": "Version-agnostic anchor resource for codelist C66742", "type": "Root Value Domain"}], "modelClassVariable": {"href": "/mdr/sdtm/1-4/classes/Findings/variables/--BLFL", "title": "Baseline Flag", "type": "Class Variable"}, "parentDataset": {"href": "/mdr/sdtmig/3-2/datasets/RP", "title": "Reproductive System Findings", "type": "SDTM Dataset"}, "parentProduct": {"href": "/mdr/sdtmig/3-2", "title": "Study Data Tabulation Model Implementation Guide: Human Clinical Trials Version 3.2 (Final)", "type": "Implementation Guide"}, "rootItem": {"href": "/mdr/root/sdtmig/datasets/RP/variables/RPBLFL", "title": "Version-agnostic anchor resource for SDTMIG variable RP.RPBLFL", "type": "Root Data Element"}, "self": {"href": "/mdr/sdtmig/3-2/datasets/RP/variables/RPBLFL", "title": "Baseline Flag", "type": "SDTM Dataset Variable"}}, "core": "Perm", "description": "Indicator used to identify a baseline value. The value should be \"Y\" or null.", "label": "Baseline Flag", "name": "RPBLFL", "ordinal": "19", "role": "Record Qualifier", "simpleDatatype": "Char"}, {"_links": {"codelist": [{"href": "/mdr/root/ct/sdtmct/codelists/C66742", "title": "Version-agnostic anchor resource for codelist C66742", "type": "Root Value Domain"}], "modelClassVariable": {"href": "/mdr/sdtm/1-4/classes/Findings/variables/--DRVFL", "title": "Derived Flag", "type": "Class Variable"}, "parentDataset": {"href": "/mdr/sdtmig/3-2/datasets/RP", "title": "Reproductive System Findings", "type": "SDTM Dataset"}, "parentProduct": {"href": "/mdr/sdtmig/3-2", "title": "Study Data Tabulation Model Implementation Guide: Human Clinical Trials Version 3.2 (Final)", "type": "Implementation Guide"}, "rootItem": {"href": "/mdr/root/sdtmig/datasets/RP/variables/RPDRVFL", "title": "Version-agnostic anchor resource for SDTMIG variable RP.RPDRVFL", "type": "Root Data Element"}, "self": {"href": "/mdr/sdtmig/3-2/datasets/RP/variables/RPDRVFL", "title": "Derived Flag", "type": "SDTM Dataset Variable"}}, "core": "Perm", "description": "Used to indicate a derived record. The value should be Y or null. Records which represent the average of other records or which do not come from the CRF are examples of records that would be derived for the submission datasets. If RPDRVFL=Y, then RPORRES may be null, with RPSTRESC and (if numeric) RPSTRESN having the derived value.", "label": "Derived Flag", "name": "RPDRVFL", "ordinal": "20", "role": "Record Qualifier", "simpleDatatype": "Char"}, {"_links": {"modelClassVariable": {"href": "/mdr/sdtm/1-4/classes/GeneralObservations/variables/VISITNUM", "title": "Visit Number", "type": "Class Variable"}, "parentDataset": {"href": "/mdr/sdtmig/3-2/datasets/RP", "title": "Reproductive System Findings", "type": "SDTM Dataset"}, "parentProduct": {"href": "/mdr/sdtmig/3-2", "title": "Study Data Tabulation Model Implementation Guide: Human Clinical Trials Version 3.2 (Final)", "type": "Implementation Guide"}, "rootItem": {"href": "/mdr/root/sdtmig/datasets/RP/variables/VISITNUM", "title": "Version-agnostic anchor resource for SDTMIG variable RP.VISITNUM", "type": "Root Data Element"}, "self": {"href": "/mdr/sdtmig/3-2/datasets/RP/variables/VISITNUM", "title": "Visit Number", "type": "SDTM Dataset Variable"}}, "core": "Perm", "description": "1. Clinical encounter number.  2. Numeric version of VISIT, used for sorting.", "label": "Visit Number", "name": "VISITNUM", "ordinal": "21", "role": "Timing", "simpleDatatype": "Num"}, {"_links": {"modelClassVariable": {"href": "/mdr/sdtm/1-4/classes/GeneralObservations/variables/VISIT", "title": "Visit Name", "type": "Class Variable"}, "parentDataset": {"href": "/mdr/sdtmig/3-2/datasets/RP", "title": "Reproductive System Findings", "type": "SDTM Dataset"}, "parentProduct": {"href": "/mdr/sdtmig/3-2", "title": "Study Data Tabulation Model Implementation Guide: Human Clinical Trials Version 3.2 (Final)", "type": "Implementation Guide"}, "rootItem": {"href": "/mdr/root/sdtmig/datasets/RP/variables/VISIT", "title": "Version-agnostic anchor resource for SDTMIG variable RP.VISIT", "type": "Root Data Element"}, "self": {"href": "/mdr/sdtmig/3-2/datasets/RP/variables/VISIT", "title": "Visit Name", "type": "SDTM Dataset Variable"}}, "core": "Perm", "description": "1. Protocol-defined description of clinical encounter.  2. May be used in addition to VISITNUM and/or VISITDY.", "label": "Visit Name", "name": "VISIT", "ordinal": "22", "role": "Timing", "simpleDatatype": "Char"}, {"_links": {"modelClassVariable": {"href": "/mdr/sdtm/1-4/classes/GeneralObservations/variables/VISITDY", "title": "Planned Study Day of Visit", "type": "Class Variable"}, "parentDataset": {"href": "/mdr/sdtmig/3-2/datasets/RP", "title": "Reproductive System Findings", "type": "SDTM Dataset"}, "parentProduct": {"href": "/mdr/sdtmig/3-2", "title": "Study Data Tabulation Model Implementation Guide: Human Clinical Trials Version 3.2 (Final)", "type": "Implementation Guide"}, "rootItem": {"href": "/mdr/root/sdtmig/datasets/RP/variables/VISITDY", "title": "Version-agnostic anchor resource for SDTMIG variable RP.VISITDY", "type": "Root Data Element"}, "self": {"href": "/mdr/sdtmig/3-2/datasets/RP/variables/VISITDY", "title": "Planned Study Day of Visit", "type": "SDTM Dataset Variable"}}, "core": "Perm", "description": "Planned study day of the visit based upon RFSTDTC in Demographics.", "label": "Planned Study Day of Visit", "name": "VISITDY", "ordinal": "23", "role": "Timing", "simpleDatatype": "Num"}, {"_links": {"modelClassVariable": {"href": "/mdr/sdtm/1-4/classes/GeneralObservations/variables/--DTC", "title": "Date/Time of Collection", "type": "Class Variable"}, "parentDataset": {"href": "/mdr/sdtmig/3-2/datasets/RP", "title": "Reproductive System Findings", "type": "SDTM Dataset"}, "parentProduct": {"href": "/mdr/sdtmig/3-2", "title": "Study Data Tabulation Model Implementation Guide: Human Clinical Trials Version 3.2 (Final)", "type": "Implementation Guide"}, "rootItem": {"href": "/mdr/root/sdtmig/datasets/RP/variables/RPDTC", "title": "Version-agnostic anchor resource for SDTMIG variable RP.RPDTC", "type": "Root Data Element"}, "self": {"href": "/mdr/sdtmig/3-2/datasets/RP/variables/RPDTC", "title": "Date/Time of Measurements", "type": "SDTM Dataset Variable"}}, "core": "Exp", "describedValueDomain": "ISO 8601", "description": "Date of Reproductive System Finding.", "label": "Date/Time of Measurements", "name": "RPDTC", "ordinal": "24", "role": "Timing", "simpleDatatype": "Char"}, {"_links": {"modelClassVariable": {"href": "/mdr/sdtm/1-4/classes/GeneralObservations/variables/--DY", "title": "Study Day of Visit/Collection/Exam", "type": "Class Variable"}, "parentDataset": {"href": "/mdr/sdtmig/3-2/datasets/RP", "title": "Reproductive System Findings", "type": "SDTM Dataset"}, "parentProduct": {"href": "/mdr/sdtmig/3-2", "title": "Study Data Tabulation Model Implementation Guide: Human Clinical Trials Version 3.2 (Final)", "type": "Implementation Guide"}, "rootItem": {"href": "/mdr/root/sdtmig/datasets/RP/variables/RPDY", "title": "Version-agnostic anchor resource for SDTMIG variable RP.RPDY", "type": "Root Data Element"}, "self": {"href": "/mdr/sdtmig/3-2/datasets/RP/variables/RPDY", "title": "Study Day of Repro System Findings", "type": "SDTM Dataset Variable"}}, "core": "Perm", "description": "1. Study day of Reproductive System Findings observation, measured as integer days.  2. Algorithm for calculations must be relative to the sponsor-defined RFSTDTC variable in Demographics.", "label": "Study Day of Repro System Findings", "name": "RPDY", "ordinal": "25", "role": "Timing", "simpleDatatype": "Num"}], "description": "A findings domain that contains physiological and morphological findings related to the male and female reproductive systems. (Source: CDISC Controlled Terminology, DOMAIN, C102707, 2018-06-29)", "label": "Reproductive System Findings", "name": "RP", "ordinal": "30"}
