{"_links": {"parentClass": {"href": "/mdr/sdtmig/3-2/classes/FindingsAbout", "title": "Findings About Events or Interventions", "type": "Class"}, "parentProduct": {"href": "/mdr/sdtmig/3-2", "title": "Study Data Tabulation Model Implementation Guide: Human Clinical Trials Version 3.2 (Final)", "type": "Implementation Guide"}, "self": {"href": "/mdr/sdtmig/3-2/datasets/SR", "title": "Skin Response", "type": "SDTM Dataset"}}, "datasetStructure": "One record per test per visit per subject", "datasetVariables": [{"_links": {"modelClassVariable": {"href": "/mdr/sdtm/1-4/classes/GeneralObservations/variables/STUDYID", "title": "Study Identifier", "type": "Class Variable"}, "parentDataset": {"href": "/mdr/sdtmig/3-2/datasets/SR", "title": "Skin Response", "type": "SDTM Dataset"}, "parentProduct": {"href": "/mdr/sdtmig/3-2", "title": "Study Data Tabulation Model Implementation Guide: Human Clinical Trials Version 3.2 (Final)", "type": "Implementation Guide"}, "rootItem": {"href": "/mdr/root/sdtmig/datasets/SR/variables/STUDYID", "title": "Version-agnostic anchor resource for SDTMIG variable SR.STUDYID", "type": "Root Data Element"}, "self": {"href": "/mdr/sdtmig/3-2/datasets/SR/variables/STUDYID", "title": "Study Identifier", "type": "SDTM Dataset Variable"}}, "core": "Req", "description": "Unique Identifier for a Study.", "label": "Study Identifier", "name": "STUDYID", "ordinal": "1", "role": "Identifier", "simpleDatatype": "Char"}, {"_links": {"modelClassVariable": {"href": "/mdr/sdtm/1-4/classes/GeneralObservations/variables/DOMAIN", "title": "Domain Abbreviation", "type": "Class Variable"}, "parentDataset": {"href": "/mdr/sdtmig/3-2/datasets/SR", "title": "Skin Response", "type": "SDTM Dataset"}, "parentProduct": {"href": "/mdr/sdtmig/3-2", "title": "Study Data Tabulation Model Implementation Guide: Human Clinical Trials Version 3.2 (Final)", "type": "Implementation Guide"}, "rootItem": {"href": "/mdr/root/sdtmig/datasets/SR/variables/DOMAIN", "title": "Version-agnostic anchor resource for SDTMIG variable SR.DOMAIN", "type": "Root Data Element"}, "self": {"href": "/mdr/sdtmig/3-2/datasets/SR/variables/DOMAIN", "title": "Domain Abbreviation", "type": "SDTM Dataset Variable"}}, "core": "Req", "description": "Two-character abbreviation for the domain.", "label": "Domain Abbreviation", "name": "DOMAIN", "ordinal": "2", "role": "Identifier", "simpleDatatype": "Char", "valueList": ["SR"]}, {"_links": {"modelClassVariable": {"href": "/mdr/sdtm/1-4/classes/GeneralObservations/variables/USUBJID", "title": "Unique Subject Identifier", "type": "Class Variable"}, "parentDataset": {"href": "/mdr/sdtmig/3-2/datasets/SR", "title": "Skin Response", "type": "SDTM Dataset"}, "parentProduct": {"href": "/mdr/sdtmig/3-2", "title": "Study Data Tabulation Model Implementation Guide: Human Clinical Trials Version 3.2 (Final)", "type": "Implementation Guide"}, "rootItem": {"href": "/mdr/root/sdtmig/datasets/SR/variables/USUBJID", "title": "Version-agnostic anchor resource for SDTMIG variable SR.USUBJID", "type": "Root Data Element"}, "self": {"href": "/mdr/sdtmig/3-2/datasets/SR/variables/USUBJID", "title": "Unique Subject Identifier", "type": "SDTM Dataset Variable"}}, "core": "Req", "description": "Identifier used to uniquely identify a subject across submission.", "label": "Unique Subject Identifier", "name": "USUBJID", "ordinal": "3", "role": "Identifier", "simpleDatatype": "Char"}, {"_links": {"modelClassVariable": {"href": "/mdr/sdtm/1-4/classes/GeneralObservations/variables/--SEQ", "title": "Sequence Number", "type": "Class Variable"}, "parentDataset": {"href": "/mdr/sdtmig/3-2/datasets/SR", "title": "Skin Response", "type": "SDTM Dataset"}, "parentProduct": {"href": "/mdr/sdtmig/3-2", "title": "Study Data Tabulation Model Implementation Guide: Human Clinical Trials Version 3.2 (Final)", "type": "Implementation Guide"}, "rootItem": {"href": "/mdr/root/sdtmig/datasets/SR/variables/SRSEQ", "title": "Version-agnostic anchor resource for SDTMIG variable SR.SRSEQ", "type": "Root Data Element"}, "self": {"href": "/mdr/sdtmig/3-2/datasets/SR/variables/SRSEQ", "title": "Sequence Number", "type": "SDTM Dataset Variable"}}, "core": "Req", "description": "Sequence Number given to ensure uniqueness of subject records within a domain. May be any valid number.", "label": "Sequence Number", "name": "SRSEQ", "ordinal": "4", "role": "Identifier", "simpleDatatype": "Num"}, {"_links": {"modelClassVariable": {"href": "/mdr/sdtm/1-4/classes/GeneralObservations/variables/--GRPID", "title": "Group ID", "type": "Class Variable"}, "parentDataset": {"href": "/mdr/sdtmig/3-2/datasets/SR", "title": "Skin Response", "type": "SDTM Dataset"}, "parentProduct": {"href": "/mdr/sdtmig/3-2", "title": "Study Data Tabulation Model Implementation Guide: Human Clinical Trials Version 3.2 (Final)", "type": "Implementation Guide"}, "rootItem": {"href": "/mdr/root/sdtmig/datasets/SR/variables/SRGRPID", "title": "Version-agnostic anchor resource for SDTMIG variable SR.SRGRPID", "type": "Root Data Element"}, "self": {"href": "/mdr/sdtmig/3-2/datasets/SR/variables/SRGRPID", "title": "Group ID", "type": "SDTM Dataset Variable"}}, "core": "Perm", "description": "Used to tie together a block of related records in a single domain for a subject.", "label": "Group ID", "name": "SRGRPID", "ordinal": "5", "role": "Identifier", "simpleDatatype": "Char"}, {"_links": {"modelClassVariable": {"href": "/mdr/sdtm/1-4/classes/GeneralObservations/variables/--REFID", "title": "Reference ID", "type": "Class Variable"}, "parentDataset": {"href": "/mdr/sdtmig/3-2/datasets/SR", "title": "Skin Response", "type": "SDTM Dataset"}, "parentProduct": {"href": "/mdr/sdtmig/3-2", "title": "Study Data Tabulation Model Implementation Guide: Human Clinical Trials Version 3.2 (Final)", "type": "Implementation Guide"}, "rootItem": {"href": "/mdr/root/sdtmig/datasets/SR/variables/SRREFID", "title": "Version-agnostic anchor resource for SDTMIG variable SR.SRREFID", "type": "Root Data Element"}, "self": {"href": "/mdr/sdtmig/3-2/datasets/SR/variables/SRREFID", "title": "Reference ID", "type": "SDTM Dataset Variable"}}, "core": "Perm", "description": "Internal or external specimen identifier.  Example: Specimen ID.", "label": "Reference ID", "name": "SRREFID", "ordinal": "6", "role": "Identifier", "simpleDatatype": "Char"}, {"_links": {"modelClassVariable": {"href": "/mdr/sdtm/1-4/classes/GeneralObservations/variables/--SPID", "title": "Sponsor-Defined Identifier", "type": "Class Variable"}, "parentDataset": {"href": "/mdr/sdtmig/3-2/datasets/SR", "title": "Skin Response", "type": "SDTM Dataset"}, "parentProduct": {"href": "/mdr/sdtmig/3-2", "title": "Study Data Tabulation Model Implementation Guide: Human Clinical Trials Version 3.2 (Final)", "type": "Implementation Guide"}, "rootItem": {"href": "/mdr/root/sdtmig/datasets/SR/variables/SRSPID", "title": "Version-agnostic anchor resource for SDTMIG variable SR.SRSPID", "type": "Root Data Element"}, "self": {"href": "/mdr/sdtmig/3-2/datasets/SR/variables/SRSPID", "title": "Sponsor-Defined Identifier", "type": "SDTM Dataset Variable"}}, "core": "Perm", "description": "Sponsor defined identifier.", "label": "Sponsor-Defined Identifier", "name": "SRSPID", "ordinal": "7", "role": "Identifier", "simpleDatatype": "Char"}, {"_links": {"modelClassVariable": {"href": "/mdr/sdtm/1-4/classes/Findings/variables/--TESTCD", "title": "Short Name of Measurement, Test or Examination", "type": "Class Variable"}, "parentDataset": {"href": "/mdr/sdtmig/3-2/datasets/SR", "title": "Skin Response", "type": "SDTM Dataset"}, "parentProduct": {"href": "/mdr/sdtmig/3-2", "title": "Study Data Tabulation Model Implementation Guide: Human Clinical Trials Version 3.2 (Final)", "type": "Implementation Guide"}, "rootItem": {"href": "/mdr/root/sdtmig/datasets/SR/variables/SRTESTCD", "title": "Version-agnostic anchor resource for SDTMIG variable SR.SRTESTCD", "type": "Root Data Element"}, "self": {"href": "/mdr/sdtmig/3-2/datasets/SR/variables/SRTESTCD", "title": "Skin Response Test or Exam Short Name", "type": "SDTM Dataset Variable"}}, "core": "Req", "description": "Short name of the measurement, test, or examination described in SRTEST. It can be used as a column name when converting a dataset from a vertical to a horizontal format. The value in SRTESTCD cannot be longer than 8 characters, nor can it start with a number. SRTESTCD cannot contain characters other than letters, numbers, or underscores.", "label": "Skin Response Test or Exam Short Name", "name": "SRTESTCD", "ordinal": "8", "role": "Topic", "simpleDatatype": "Char"}, {"_links": {"modelClassVariable": {"href": "/mdr/sdtm/1-4/classes/Findings/variables/--TEST", "title": "Name of Measurement, Test or Examination", "type": "Class Variable"}, "parentDataset": {"href": "/mdr/sdtmig/3-2/datasets/SR", "title": "Skin Response", "type": "SDTM Dataset"}, "parentProduct": {"href": "/mdr/sdtmig/3-2", "title": "Study Data Tabulation Model Implementation Guide: Human Clinical Trials Version 3.2 (Final)", "type": "Implementation Guide"}, "rootItem": {"href": "/mdr/root/sdtmig/datasets/SR/variables/SRTEST", "title": "Version-agnostic anchor resource for SDTMIG variable SR.SRTEST", "type": "Root Data Element"}, "self": {"href": "/mdr/sdtmig/3-2/datasets/SR/variables/SRTEST", "title": "Skin Response Test or Examination Name", "type": "SDTM Dataset Variable"}}, "core": "Req", "description": "Verbatim name of the test or examination used to obtain the measurement or finding. The value in SRTEST cannot be longer than 40 characters. (E.g., Wheal Diameter).", "label": "Skin Response Test or Examination Name", "name": "SRTEST", "ordinal": "9", "role": "Synonym Qualifier", "simpleDatatype": "Char"}, {"_links": {"modelClassVariable": {"href": "/mdr/sdtm/1-4/classes/FindingsAbout/variables/--OBJ", "title": "Object of the Observation", "type": "Class Variable"}, "parentDataset": {"href": "/mdr/sdtmig/3-2/datasets/SR", "title": "Skin Response", "type": "SDTM Dataset"}, "parentProduct": {"href": "/mdr/sdtmig/3-2", "title": "Study Data Tabulation Model Implementation Guide: Human Clinical Trials Version 3.2 (Final)", "type": "Implementation Guide"}, "rootItem": {"href": "/mdr/root/sdtmig/datasets/SR/variables/SROBJ", "title": "Version-agnostic anchor resource for SDTMIG variable SR.SROBJ", "type": "Root Data Element"}, "self": {"href": "/mdr/sdtmig/3-2/datasets/SR/variables/SROBJ", "title": "Object of the Observation", "type": "SDTM Dataset Variable"}}, "core": "Req", "description": "Used to describe the object or focal point of the findings observation that is represented by --TEST.  Examples: the dose of the immunogenic material or the allergen associated with the response. (e.g., Johnson Grass IgE 0.15 BAU mL).", "label": "Object of the Observation", "name": "SROBJ", "ordinal": "10", "role": "Record Qualifier", "simpleDatatype": "Char"}, {"_links": {"modelClassVariable": {"href": "/mdr/sdtm/1-4/classes/Findings/variables/--CAT", "title": "Category", "type": "Class Variable"}, "parentDataset": {"href": "/mdr/sdtmig/3-2/datasets/SR", "title": "Skin Response", "type": "SDTM Dataset"}, "parentProduct": {"href": "/mdr/sdtmig/3-2", "title": "Study Data Tabulation Model Implementation Guide: Human Clinical Trials Version 3.2 (Final)", "type": "Implementation Guide"}, "rootItem": {"href": "/mdr/root/sdtmig/datasets/SR/variables/SRCAT", "title": "Version-agnostic anchor resource for SDTMIG variable SR.SRCAT", "type": "Root Data Element"}, "self": {"href": "/mdr/sdtmig/3-2/datasets/SR/variables/SRCAT", "title": "Category for Test", "type": "SDTM Dataset Variable"}}, "core": "Perm", "description": "Used to define a category of Topic-variable values across subjects.", "label": "Category for Test", "name": "SRCAT", "ordinal": "11", "role": "Grouping Qualifier", "simpleDatatype": "Char"}, {"_links": {"modelClassVariable": {"href": "/mdr/sdtm/1-4/classes/Findings/variables/--SCAT", "title": "Subcategory", "type": "Class Variable"}, "parentDataset": {"href": "/mdr/sdtmig/3-2/datasets/SR", "title": "Skin Response", "type": "SDTM Dataset"}, "parentProduct": {"href": "/mdr/sdtmig/3-2", "title": "Study Data Tabulation Model Implementation Guide: Human Clinical Trials Version 3.2 (Final)", "type": "Implementation Guide"}, "rootItem": {"href": "/mdr/root/sdtmig/datasets/SR/variables/SRSCAT", "title": "Version-agnostic anchor resource for SDTMIG variable SR.SRSCAT", "type": "Root Data Element"}, "self": {"href": "/mdr/sdtmig/3-2/datasets/SR/variables/SRSCAT", "title": "Subcategory for Test", "type": "SDTM Dataset Variable"}}, "core": "Perm", "description": "A further categorization of SRCAT values.", "label": "Subcategory for Test", "name": "SRSCAT", "ordinal": "12", "role": "Grouping Qualifier", "simpleDatatype": "Char"}, {"_links": {"modelClassVariable": {"href": "/mdr/sdtm/1-4/classes/Findings/variables/--ORRES", "title": "Result or Finding in Original Units", "type": "Class Variable"}, "parentDataset": {"href": "/mdr/sdtmig/3-2/datasets/SR", "title": "Skin Response", "type": "SDTM Dataset"}, "parentProduct": {"href": "/mdr/sdtmig/3-2", "title": "Study Data Tabulation Model Implementation Guide: Human Clinical Trials Version 3.2 (Final)", "type": "Implementation Guide"}, "rootItem": {"href": "/mdr/root/sdtmig/datasets/SR/variables/SRORRES", "title": "Version-agnostic anchor resource for SDTMIG variable SR.SRORRES", "type": "Root Data Element"}, "self": {"href": "/mdr/sdtmig/3-2/datasets/SR/variables/SRORRES", "title": "Results or Findings in Original Units", "type": "SDTM Dataset Variable"}}, "core": "Exp", "description": "Results of measurement or finding as originally received or collected.", "label": "Results or Findings in Original Units", "name": "SRORRES", "ordinal": "13", "role": "Result Qualifier", "simpleDatatype": "Char"}, {"_links": {"codelist": [{"href": "/mdr/root/ct/sdtmct/codelists/C71620", "title": "Version-agnostic anchor resource for codelist C71620", "type": "Root Value Domain"}], "modelClassVariable": {"href": "/mdr/sdtm/1-4/classes/Findings/variables/--ORRESU", "title": "Original Units", "type": "Class Variable"}, "parentDataset": {"href": "/mdr/sdtmig/3-2/datasets/SR", "title": "Skin Response", "type": "SDTM Dataset"}, "parentProduct": {"href": "/mdr/sdtmig/3-2", "title": "Study Data Tabulation Model Implementation Guide: Human Clinical Trials Version 3.2 (Final)", "type": "Implementation Guide"}, "rootItem": {"href": "/mdr/root/sdtmig/datasets/SR/variables/SRORRESU", "title": "Version-agnostic anchor resource for SDTMIG variable SR.SRORRESU", "type": "Root Data Element"}, "self": {"href": "/mdr/sdtmig/3-2/datasets/SR/variables/SRORRESU", "title": "Original Units", "type": "SDTM Dataset Variable"}}, "core": "Exp", "description": "Original units in which the data were collected. The unit for SRORRES. Example: mm.", "label": "Original Units", "name": "SRORRESU", "ordinal": "14", "role": "Variable Qualifier", "simpleDatatype": "Char"}, {"_links": {"modelClassVariable": {"href": "/mdr/sdtm/1-4/classes/Findings/variables/--STRESC", "title": "Result or Finding in Standard Format", "type": "Class Variable"}, "parentDataset": {"href": "/mdr/sdtmig/3-2/datasets/SR", "title": "Skin Response", "type": "SDTM Dataset"}, "parentProduct": {"href": "/mdr/sdtmig/3-2", "title": "Study Data Tabulation Model Implementation Guide: Human Clinical Trials Version 3.2 (Final)", "type": "Implementation Guide"}, "rootItem": {"href": "/mdr/root/sdtmig/datasets/SR/variables/SRSTRESC", "title": "Version-agnostic anchor resource for SDTMIG variable SR.SRSTRESC", "type": "Root Data Element"}, "self": {"href": "/mdr/sdtmig/3-2/datasets/SR/variables/SRSTRESC", "title": "Character Results/Findings in Std. Format", "type": "SDTM Dataset Variable"}}, "core": "Exp", "description": "Contains the result value for all findings, copied or derived from SRORRES in a standard format or in standard units. SRSTRESC should store all results or findings in character format; if results are numeric, they should also be stored in numeric format in SRSTRESN.", "label": "Character Results/Findings in Std. Format", "name": "SRSTRESC", "ordinal": "15", "role": "Result Qualifier", "simpleDatatype": "Char"}, {"_links": {"modelClassVariable": {"href": "/mdr/sdtm/1-4/classes/Findings/variables/--STRESN", "title": "Numeric Result/Finding in Standard Units", "type": "Class Variable"}, "parentDataset": {"href": "/mdr/sdtmig/3-2/datasets/SR", "title": "Skin Response", "type": "SDTM Dataset"}, "parentProduct": {"href": "/mdr/sdtmig/3-2", "title": "Study Data Tabulation Model Implementation Guide: Human Clinical Trials Version 3.2 (Final)", "type": "Implementation Guide"}, "rootItem": {"href": "/mdr/root/sdtmig/datasets/SR/variables/SRSTRESN", "title": "Version-agnostic anchor resource for SDTMIG variable SR.SRSTRESN", "type": "Root Data Element"}, "self": {"href": "/mdr/sdtmig/3-2/datasets/SR/variables/SRSTRESN", "title": "Numeric Results/Findings in Std. Units", "type": "SDTM Dataset Variable"}}, "core": "Exp", "description": "Used for continuous or numeric results or findings in standard format; copied in numeric format from SRSTRESC. SRSTRESN should store all numeric test results or findings.", "label": "Numeric Results/Findings in Std. Units", "name": "SRSTRESN", "ordinal": "16", "role": "Result Qualifier", "simpleDatatype": "Num"}, {"_links": {"codelist": [{"href": "/mdr/root/ct/sdtmct/codelists/C71620", "title": "Version-agnostic anchor resource for codelist C71620", "type": "Root Value Domain"}], "modelClassVariable": {"href": "/mdr/sdtm/1-4/classes/Findings/variables/--STRESU", "title": "Standard Units", "type": "Class Variable"}, "parentDataset": {"href": "/mdr/sdtmig/3-2/datasets/SR", "title": "Skin Response", "type": "SDTM Dataset"}, "parentProduct": {"href": "/mdr/sdtmig/3-2", "title": "Study Data Tabulation Model Implementation Guide: Human Clinical Trials Version 3.2 (Final)", "type": "Implementation Guide"}, "rootItem": {"href": "/mdr/root/sdtmig/datasets/SR/variables/SRSTRESU", "title": "Version-agnostic anchor resource for SDTMIG variable SR.SRSTRESU", "type": "Root Data Element"}, "self": {"href": "/mdr/sdtmig/3-2/datasets/SR/variables/SRSTRESU", "title": "Standard Units", "type": "SDTM Dataset Variable"}}, "core": "Exp", "description": "Standardized units used for SRSTRESC and SRSTRESN, Example: mm.", "label": "Standard Units", "name": "SRSTRESU", "ordinal": "17", "role": "Variable Qualifier", "simpleDatatype": "Char"}, {"_links": {"codelist": [{"href": "/mdr/root/ct/sdtmct/codelists/C66789", "title": "Version-agnostic anchor resource for codelist C66789", "type": "Root Value Domain"}], "modelClassVariable": {"href": "/mdr/sdtm/1-4/classes/Findings/variables/--STAT", "title": "Completion Status", "type": "Class Variable"}, "parentDataset": {"href": "/mdr/sdtmig/3-2/datasets/SR", "title": "Skin Response", "type": "SDTM Dataset"}, "parentProduct": {"href": "/mdr/sdtmig/3-2", "title": "Study Data Tabulation Model Implementation Guide: Human Clinical Trials Version 3.2 (Final)", "type": "Implementation Guide"}, "rootItem": {"href": "/mdr/root/sdtmig/datasets/SR/variables/SRSTAT", "title": "Version-agnostic anchor resource for SDTMIG variable SR.SRSTAT", "type": "Root Data Element"}, "self": {"href": "/mdr/sdtmig/3-2/datasets/SR/variables/SRSTAT", "title": "Completion Status", "type": "SDTM Dataset Variable"}}, "core": "Perm", "description": "Used to indicate exam not done. Should be null if a result exists in SRORRES.", "label": "Completion Status", "name": "SRSTAT", "ordinal": "18", "role": "Record Qualifier", "simpleDatatype": "Char"}, {"_links": {"modelClassVariable": {"href": "/mdr/sdtm/1-4/classes/Findings/variables/--REASND", "title": "Reason Not Done", "type": "Class Variable"}, "parentDataset": {"href": "/mdr/sdtmig/3-2/datasets/SR", "title": "Skin Response", "type": "SDTM Dataset"}, "parentProduct": {"href": "/mdr/sdtmig/3-2", "title": "Study Data Tabulation Model Implementation Guide: Human Clinical Trials Version 3.2 (Final)", "type": "Implementation Guide"}, "rootItem": {"href": "/mdr/root/sdtmig/datasets/SR/variables/SRREASND", "title": "Version-agnostic anchor resource for SDTMIG variable SR.SRREASND", "type": "Root Data Element"}, "self": {"href": "/mdr/sdtmig/3-2/datasets/SR/variables/SRREASND", "title": "Reason Not Done", "type": "SDTM Dataset Variable"}}, "core": "Perm", "description": "Describes why a measurement or test was not performed. Used in conjunction with SRSTAT when value is NOT DONE.", "label": "Reason Not Done", "name": "SRREASND", "ordinal": "19", "role": "Record Qualifier", "simpleDatatype": "Char"}, {"_links": {"modelClassVariable": {"href": "/mdr/sdtm/1-4/classes/Findings/variables/--NAM", "title": "Laboratory/Vendor Name", "type": "Class Variable"}, "parentDataset": {"href": "/mdr/sdtmig/3-2/datasets/SR", "title": "Skin Response", "type": "SDTM Dataset"}, "parentProduct": {"href": "/mdr/sdtmig/3-2", "title": "Study Data Tabulation Model Implementation Guide: Human Clinical Trials Version 3.2 (Final)", "type": "Implementation Guide"}, "rootItem": {"href": "/mdr/root/sdtmig/datasets/SR/variables/SRNAM", "title": "Version-agnostic anchor resource for SDTMIG variable SR.SRNAM", "type": "Root Data Element"}, "self": {"href": "/mdr/sdtmig/3-2/datasets/SR/variables/SRNAM", "title": "Vendor Name", "type": "SDTM Dataset Variable"}}, "core": "Perm", "description": "Name or identifier of the laboratory or vendor who provided the test results", "label": "Vendor Name", "name": "SRNAM", "ordinal": "20", "role": "Record Qualifier", "simpleDatatype": "Char"}, {"_links": {"codelist": [{"href": "/mdr/root/ct/sdtmct/codelists/C78734", "title": "Version-agnostic anchor resource for codelist C78734", "type": "Root Value Domain"}], "modelClassVariable": {"href": "/mdr/sdtm/1-4/classes/Findings/variables/--SPEC", "title": "Specimen Material Type", "type": "Class Variable"}, "parentDataset": {"href": "/mdr/sdtmig/3-2/datasets/SR", "title": "Skin Response", "type": "SDTM Dataset"}, "parentProduct": {"href": "/mdr/sdtmig/3-2", "title": "Study Data Tabulation Model Implementation Guide: Human Clinical Trials Version 3.2 (Final)", "type": "Implementation Guide"}, "rootItem": {"href": "/mdr/root/sdtmig/datasets/SR/variables/SRSPEC", "title": "Version-agnostic anchor resource for SDTMIG variable SR.SRSPEC", "type": "Root Data Element"}, "self": {"href": "/mdr/sdtmig/3-2/datasets/SR/variables/SRSPEC", "title": "Specimen Type", "type": "SDTM Dataset Variable"}}, "core": "Perm", "description": "Defines the types of specimen used for a measurement. E.g., SKIN.", "label": "Specimen Type", "name": "SRSPEC", "ordinal": "21", "role": "Record Qualifier", "simpleDatatype": "Char"}, {"_links": {"codelist": [{"href": "/mdr/root/ct/sdtmct/codelists/C74456", "title": "Version-agnostic anchor resource for codelist C74456", "type": "Root Value Domain"}], "modelClassVariable": {"href": "/mdr/sdtm/1-4/classes/Findings/variables/--LOC", "title": "Location Used for the Measurement", "type": "Class Variable"}, "parentDataset": {"href": "/mdr/sdtmig/3-2/datasets/SR", "title": "Skin Response", "type": "SDTM Dataset"}, "parentProduct": {"href": "/mdr/sdtmig/3-2", "title": "Study Data Tabulation Model Implementation Guide: Human Clinical Trials Version 3.2 (Final)", "type": "Implementation Guide"}, "rootItem": {"href": "/mdr/root/sdtmig/datasets/SR/variables/SRLOC", "title": "Version-agnostic anchor resource for SDTMIG variable SR.SRLOC", "type": "Root Data Element"}, "self": {"href": "/mdr/sdtmig/3-2/datasets/SR/variables/SRLOC", "title": "Location used for Measurement", "type": "SDTM Dataset Variable"}}, "core": "Perm", "description": "Location relevant to the collection of the measurement.", "label": "Location used for Measurement", "name": "SRLOC", "ordinal": "22", "role": "Record Qualifier", "simpleDatatype": "Char"}, {"_links": {"codelist": [{"href": "/mdr/root/ct/sdtmct/codelists/C99073", "title": "Version-agnostic anchor resource for codelist C99073", "type": "Root Value Domain"}], "modelClassVariable": {"href": "/mdr/sdtm/1-4/classes/Findings/variables/--LAT", "title": "Laterality", "type": "Class Variable"}, "parentDataset": {"href": "/mdr/sdtmig/3-2/datasets/SR", "title": "Skin Response", "type": "SDTM Dataset"}, "parentProduct": {"href": "/mdr/sdtmig/3-2", "title": "Study Data Tabulation Model Implementation Guide: Human Clinical Trials Version 3.2 (Final)", "type": "Implementation Guide"}, "rootItem": {"href": "/mdr/root/sdtmig/datasets/SR/variables/SRLAT", "title": "Version-agnostic anchor resource for SDTMIG variable SR.SRLAT", "type": "Root Data Element"}, "self": {"href": "/mdr/sdtmig/3-2/datasets/SR/variables/SRLAT", "title": "Laterality", "type": "SDTM Dataset Variable"}}, "core": "Perm", "description": "Qualifier for anatomical location further detailing laterality of intervention administration. Examples: RIGHT, LEFT, BILATERAL", "label": "Laterality", "name": "SRLAT", "ordinal": "23", "role": "Result Qualifier", "simpleDatatype": "Char"}, {"_links": {"codelist": [{"href": "/mdr/root/ct/sdtmct/codelists/C85492", "title": "Version-agnostic anchor resource for codelist C85492", "type": "Root Value Domain"}], "modelClassVariable": {"href": "/mdr/sdtm/1-4/classes/Findings/variables/--METHOD", "title": "Method of Test or Examination", "type": "Class Variable"}, "parentDataset": {"href": "/mdr/sdtmig/3-2/datasets/SR", "title": "Skin Response", "type": "SDTM Dataset"}, "parentProduct": {"href": "/mdr/sdtmig/3-2", "title": "Study Data Tabulation Model Implementation Guide: Human Clinical Trials Version 3.2 (Final)", "type": "Implementation Guide"}, "rootItem": {"href": "/mdr/root/sdtmig/datasets/SR/variables/SRMETHOD", "title": "Version-agnostic anchor resource for SDTMIG variable SR.SRMETHOD", "type": "Root Data Element"}, "self": {"href": "/mdr/sdtmig/3-2/datasets/SR/variables/SRMETHOD", "title": "Method of Test or Examination", "type": "SDTM Dataset Variable"}}, "core": "Perm", "description": "Method of test or examination (ELISA, EIA Microneutralization, PRNT (Plaque Reduction Neutralization Tests)", "label": "Method of Test or Examination", "name": "SRMETHOD", "ordinal": "24", "role": "Record Qualifier", "simpleDatatype": "Char"}, {"_links": {"codelist": [{"href": "/mdr/root/ct/sdtmct/codelists/C78735", "title": "Version-agnostic anchor resource for codelist C78735", "type": "Root Value Domain"}], "modelClassVariable": {"href": "/mdr/sdtm/1-4/classes/Findings/variables/--EVAL", "title": "Evaluator", "type": "Class Variable"}, "parentDataset": {"href": "/mdr/sdtmig/3-2/datasets/SR", "title": "Skin Response", "type": "SDTM Dataset"}, "parentProduct": {"href": "/mdr/sdtmig/3-2", "title": "Study Data Tabulation Model Implementation Guide: Human Clinical Trials Version 3.2 (Final)", "type": "Implementation Guide"}, "rootItem": {"href": "/mdr/root/sdtmig/datasets/SR/variables/SREVAL", "title": "Version-agnostic anchor resource for SDTMIG variable SR.SREVAL", "type": "Root Data Element"}, "self": {"href": "/mdr/sdtmig/3-2/datasets/SR/variables/SREVAL", "title": "Evaluator", "type": "SDTM Dataset Variable"}}, "core": "Perm", "description": "Role of person who provided evaluation. Used only for results that are subjective (e.g., assigned by a person or a group). Should be null for records that contain collected or derived data. Examples: INVESTIGATOR, ADJUDICATION COMMITTEE, VENDOR", "label": "Evaluator", "name": "SREVAL", "ordinal": "25", "role": "Record Qualifier", "simpleDatatype": "Char"}, {"_links": {"modelClassVariable": {"href": "/mdr/sdtm/1-4/classes/GeneralObservations/variables/VISITNUM", "title": "Visit Number", "type": "Class Variable"}, "parentDataset": {"href": "/mdr/sdtmig/3-2/datasets/SR", "title": "Skin Response", "type": "SDTM Dataset"}, "parentProduct": {"href": "/mdr/sdtmig/3-2", "title": "Study Data Tabulation Model Implementation Guide: Human Clinical Trials Version 3.2 (Final)", "type": "Implementation Guide"}, "rootItem": {"href": "/mdr/root/sdtmig/datasets/SR/variables/VISITNUM", "title": "Version-agnostic anchor resource for SDTMIG variable SR.VISITNUM", "type": "Root Data Element"}, "self": {"href": "/mdr/sdtmig/3-2/datasets/SR/variables/VISITNUM", "title": "Visit Number", "type": "SDTM Dataset Variable"}}, "core": "Exp", "description": "1. Clinical encounter number.  2. Numeric version of VISIT, used for sorting", "label": "Visit Number", "name": "VISITNUM", "ordinal": "26", "role": "Timing", "simpleDatatype": "Num"}, {"_links": {"modelClassVariable": {"href": "/mdr/sdtm/1-4/classes/GeneralObservations/variables/VISIT", "title": "Visit Name", "type": "Class Variable"}, "parentDataset": {"href": "/mdr/sdtmig/3-2/datasets/SR", "title": "Skin Response", "type": "SDTM Dataset"}, "parentProduct": {"href": "/mdr/sdtmig/3-2", "title": "Study Data Tabulation Model Implementation Guide: Human Clinical Trials Version 3.2 (Final)", "type": "Implementation Guide"}, "rootItem": {"href": "/mdr/root/sdtmig/datasets/SR/variables/VISIT", "title": "Version-agnostic anchor resource for SDTMIG variable SR.VISIT", "type": "Root Data Element"}, "self": {"href": "/mdr/sdtmig/3-2/datasets/SR/variables/VISIT", "title": "Visit Name", "type": "SDTM Dataset Variable"}}, "core": "Perm", "description": "1. Protocol-defined description of clinical encounter 2. May be used in addition to VISITNUM and/or VISITDY", "label": "Visit Name", "name": "VISIT", "ordinal": "27", "role": "Timing", "simpleDatatype": "Char"}, {"_links": {"modelClassVariable": {"href": "/mdr/sdtm/1-4/classes/GeneralObservations/variables/VISITDY", "title": "Planned Study Day of Visit", "type": "Class Variable"}, "parentDataset": {"href": "/mdr/sdtmig/3-2/datasets/SR", "title": "Skin Response", "type": "SDTM Dataset"}, "parentProduct": {"href": "/mdr/sdtmig/3-2", "title": "Study Data Tabulation Model Implementation Guide: Human Clinical Trials Version 3.2 (Final)", "type": "Implementation Guide"}, "rootItem": {"href": "/mdr/root/sdtmig/datasets/SR/variables/VISITDY", "title": "Version-agnostic anchor resource for SDTMIG variable SR.VISITDY", "type": "Root Data Element"}, "self": {"href": "/mdr/sdtmig/3-2/datasets/SR/variables/VISITDY", "title": "Planned Study Day of Visit", "type": "SDTM Dataset Variable"}}, "core": "Perm", "description": "Planned study day of the visit based upon RFSTDTC in Demographics.", "label": "Planned Study Day of Visit", "name": "VISITDY", "ordinal": "28", "role": "Timing", "simpleDatatype": "Num"}, {"_links": {"modelClassVariable": {"href": "/mdr/sdtm/1-4/classes/GeneralObservations/variables/--DTC", "title": "Date/Time of Collection", "type": "Class Variable"}, "parentDataset": {"href": "/mdr/sdtmig/3-2/datasets/SR", "title": "Skin Response", "type": "SDTM Dataset"}, "parentProduct": {"href": "/mdr/sdtmig/3-2", "title": "Study Data Tabulation Model Implementation Guide: Human Clinical Trials Version 3.2 (Final)", "type": "Implementation Guide"}, "rootItem": {"href": "/mdr/root/sdtmig/datasets/SR/variables/SRDTC", "title": "Version-agnostic anchor resource for SDTMIG variable SR.SRDTC", "type": "Root Data Element"}, "self": {"href": "/mdr/sdtmig/3-2/datasets/SR/variables/SRDTC", "title": "Date/Time of Collection", "type": "SDTM Dataset Variable"}}, "core": "Exp", "describedValueDomain": "ISO 8601", "description": "Collection date and time of an observation represented in ISO 8601", "label": "Date/Time of Collection", "name": "SRDTC", "ordinal": "29", "role": "Timing", "simpleDatatype": "Char"}, {"_links": {"modelClassVariable": {"href": "/mdr/sdtm/1-4/classes/GeneralObservations/variables/--DY", "title": "Study Day of Visit/Collection/Exam", "type": "Class Variable"}, "parentDataset": {"href": "/mdr/sdtmig/3-2/datasets/SR", "title": "Skin Response", "type": "SDTM Dataset"}, "parentProduct": {"href": "/mdr/sdtmig/3-2", "title": "Study Data Tabulation Model Implementation Guide: Human Clinical Trials Version 3.2 (Final)", "type": "Implementation Guide"}, "rootItem": {"href": "/mdr/root/sdtmig/datasets/SR/variables/SRDY", "title": "Version-agnostic anchor resource for SDTMIG variable SR.SRDY", "type": "Root Data Element"}, "self": {"href": "/mdr/sdtmig/3-2/datasets/SR/variables/SRDY", "title": "Study Day of Visit/Collection/Exam", "type": "SDTM Dataset Variable"}}, "core": "Perm", "description": "Actual study day of visit/collection/exam expressed in integer days relative to sponsor- defined RFSTDTC in Demographics", "label": "Study Day of Visit/Collection/Exam", "name": "SRDY", "ordinal": "30", "role": "Timing", "simpleDatatype": "Num"}, {"_links": {"modelClassVariable": {"href": "/mdr/sdtm/1-4/classes/GeneralObservations/variables/--TPT", "title": "Planned Time Point Name", "type": "Class Variable"}, "parentDataset": {"href": "/mdr/sdtmig/3-2/datasets/SR", "title": "Skin Response", "type": "SDTM Dataset"}, "parentProduct": {"href": "/mdr/sdtmig/3-2", "title": "Study Data Tabulation Model Implementation Guide: Human Clinical Trials Version 3.2 (Final)", "type": "Implementation Guide"}, "rootItem": {"href": "/mdr/root/sdtmig/datasets/SR/variables/SRTPT", "title": "Version-agnostic anchor resource for SDTMIG variable SR.SRTPT", "type": "Root Data Element"}, "self": {"href": "/mdr/sdtmig/3-2/datasets/SR/variables/SRTPT", "title": "Planned Time Point Name", "type": "SDTM Dataset Variable"}}, "core": "Perm", "description": "1. Text Description of time when measurement should be taken.", "label": "Planned Time Point Name", "name": "SRTPT", "ordinal": "31", "role": "Timing", "simpleDatatype": "Char"}, {"_links": {"modelClassVariable": {"href": "/mdr/sdtm/1-4/classes/GeneralObservations/variables/--TPTNUM", "title": "Planned Time Point Number", "type": "Class Variable"}, "parentDataset": {"href": "/mdr/sdtmig/3-2/datasets/SR", "title": "Skin Response", "type": "SDTM Dataset"}, "parentProduct": {"href": "/mdr/sdtmig/3-2", "title": "Study Data Tabulation Model Implementation Guide: Human Clinical Trials Version 3.2 (Final)", "type": "Implementation Guide"}, "rootItem": {"href": "/mdr/root/sdtmig/datasets/SR/variables/SRTPTNUM", "title": "Version-agnostic anchor resource for SDTMIG variable SR.SRTPTNUM", "type": "Root Data Element"}, "self": {"href": "/mdr/sdtmig/3-2/datasets/SR/variables/SRTPTNUM", "title": "Planned Time Point Number", "type": "SDTM Dataset Variable"}}, "core": "Perm", "description": "Numerical version of SRTPT to aid in sorting.", "label": "Planned Time Point Number", "name": "SRTPTNUM", "ordinal": "32", "role": "Timing", "simpleDatatype": "Num"}, {"_links": {"modelClassVariable": {"href": "/mdr/sdtm/1-4/classes/GeneralObservations/variables/--ELTM", "title": "Planned Elapsed Time from Time Point Ref", "type": "Class Variable"}, "parentDataset": {"href": "/mdr/sdtmig/3-2/datasets/SR", "title": "Skin Response", "type": "SDTM Dataset"}, "parentProduct": {"href": "/mdr/sdtmig/3-2", "title": "Study Data Tabulation Model Implementation Guide: Human Clinical Trials Version 3.2 (Final)", "type": "Implementation Guide"}, "rootItem": {"href": "/mdr/root/sdtmig/datasets/SR/variables/SRELTM", "title": "Version-agnostic anchor resource for SDTMIG variable SR.SRELTM", "type": "Root Data Element"}, "self": {"href": "/mdr/sdtmig/3-2/datasets/SR/variables/SRELTM", "title": "Planned Elapsed Time from Time Point Ref", "type": "SDTM Dataset Variable"}}, "core": "Perm", "describedValueDomain": "ISO 8601", "description": "Planned elapsed time (in ISO 8601) relative to a fixed time point reference (SRTPTREF). Not a clock time or a date time variable. Represented as an ISO 8601 duration. Examples: \"-PT15M\" to represent the period of 15 minutes prior to the reference point indicated by EGTPTREF, or \"PT8H\" to represent the period of 8 hours after the reference point indicated by SRTPTREF.", "label": "Planned Elapsed Time from Time Point Ref", "name": "SRELTM", "ordinal": "33", "role": "Timing", "simpleDatatype": "Char"}, {"_links": {"modelClassVariable": {"href": "/mdr/sdtm/1-4/classes/GeneralObservations/variables/--TPTREF", "title": "Time Point Reference", "type": "Class Variable"}, "parentDataset": {"href": "/mdr/sdtmig/3-2/datasets/SR", "title": "Skin Response", "type": "SDTM Dataset"}, "parentProduct": {"href": "/mdr/sdtmig/3-2", "title": "Study Data Tabulation Model Implementation Guide: Human Clinical Trials Version 3.2 (Final)", "type": "Implementation Guide"}, "rootItem": {"href": "/mdr/root/sdtmig/datasets/SR/variables/SRTPTREF", "title": "Version-agnostic anchor resource for SDTMIG variable SR.SRTPTREF", "type": "Root Data Element"}, "self": {"href": "/mdr/sdtmig/3-2/datasets/SR/variables/SRTPTREF", "title": "Time Point Reference", "type": "SDTM Dataset Variable"}}, "core": "Perm", "description": "Name of the fixed reference point referred to by SRELTM, SRTPTNUM, and SRTPT. Example: INTRADERMAL INJECTION.", "label": "Time Point Reference", "name": "SRTPTREF", "ordinal": "34", "role": "Timing", "simpleDatatype": "Char"}, {"_links": {"modelClassVariable": {"href": "/mdr/sdtm/1-4/classes/GeneralObservations/variables/--RFTDTC", "title": "Date/Time of Reference Time Point", "type": "Class Variable"}, "parentDataset": {"href": "/mdr/sdtmig/3-2/datasets/SR", "title": "Skin Response", "type": "SDTM Dataset"}, "parentProduct": {"href": "/mdr/sdtmig/3-2", "title": "Study Data Tabulation Model Implementation Guide: Human Clinical Trials Version 3.2 (Final)", "type": "Implementation Guide"}, "rootItem": {"href": "/mdr/root/sdtmig/datasets/SR/variables/SRRFTDTC", "title": "Version-agnostic anchor resource for SDTMIG variable SR.SRRFTDTC", "type": "Root Data Element"}, "self": {"href": "/mdr/sdtmig/3-2/datasets/SR/variables/SRRFTDTC", "title": "Date/Time of Reference Time Point", "type": "SDTM Dataset Variable"}}, "core": "Perm", "describedValueDomain": "ISO 8601", "description": "Date/time of the reference time point, SRTPTREF.", "label": "Date/Time of Reference Time Point", "name": "SRRFTDTC", "ordinal": "35", "role": "Timing", "simpleDatatype": "Char"}], "description": "A findings about domain for submitting dermal responses to antigens. (Source: CDISC Controlled Terminology, DOMAIN, C112420, 2018-06-29)", "label": "Skin Response", "name": "SR", "ordinal": "38"}
