{"_links": {"parentClass": {"href": "/mdr/sdtmig/md-1-0/classes/Findings", "title": "Findings Observation Class", "type": "Class"}, "parentProduct": {"href": "/mdr/sdtmig/md-1-0", "title": "SDTM Implementation Guide for Medical Devices SDTMIG-MD 1.0 (Provisional)", "type": "Implementation Guide"}, "self": {"href": "/mdr/sdtmig/md-1-0/datasets/DU", "title": "Device In-Use", "type": "SDTM Dataset"}}, "datasetStructure": "One record per property or setting per time point per visit or test date per subject", "datasetVariables": [{"_links": {"modelClassVariable": {"href": "/mdr/sdtm/1-2/classes/GeneralObservations/variables/STUDYID", "title": "Study Identifier", "type": "Class Variable"}, "parentDataset": {"href": "/mdr/sdtmig/md-1-0/datasets/DU", "title": "Device In-Use", "type": "SDTM Dataset"}, "parentProduct": {"href": "/mdr/sdtmig/md-1-0", "title": "SDTM Implementation Guide for Medical Devices SDTMIG-MD 1.0 (Provisional)", "type": "Implementation Guide"}, "rootItem": {"href": "/mdr/root/sdtmig/datasets/DU/variables/STUDYID", "title": "Version-agnostic anchor resource for SDTMIG variable DU.STUDYID", "type": "Root Data Element"}, "self": {"href": "/mdr/sdtmig/md-1-0/datasets/DU/variables/STUDYID", "title": "Study Identifier", "type": "SDTM Dataset Variable"}}, "core": "Req", "description": "Unique identifier for a study.", "label": "Study Identifier", "name": "STUDYID", "ordinal": "1", "role": "Identifier", "simpleDatatype": "Char"}, {"_links": {"modelClassVariable": {"href": "/mdr/sdtm/1-2/classes/GeneralObservations/variables/DOMAIN", "title": "Domain Abbreviation", "type": "Class Variable"}, "parentDataset": {"href": "/mdr/sdtmig/md-1-0/datasets/DU", "title": "Device In-Use", "type": "SDTM Dataset"}, "parentProduct": {"href": "/mdr/sdtmig/md-1-0", "title": "SDTM Implementation Guide for Medical Devices SDTMIG-MD 1.0 (Provisional)", "type": "Implementation Guide"}, "rootItem": {"href": "/mdr/root/sdtmig/datasets/DU/variables/DOMAIN", "title": "Version-agnostic anchor resource for SDTMIG variable DU.DOMAIN", "type": "Root Data Element"}, "self": {"href": "/mdr/sdtmig/md-1-0/datasets/DU/variables/DOMAIN", "title": "Domain Abbreviation", "type": "SDTM Dataset Variable"}}, "core": "Req", "description": "Two-character abbreviation for the domain.", "label": "Domain Abbreviation", "name": "DOMAIN", "ordinal": "2", "role": "Identifier", "simpleDatatype": "Char", "valueList": ["DU"]}, {"_links": {"modelClassVariable": {"href": "/mdr/sdtm/1-2/classes/GeneralObservations/variables/USUBJID", "title": "Unique Subject Identifier", "type": "Class Variable"}, "parentDataset": {"href": "/mdr/sdtmig/md-1-0/datasets/DU", "title": "Device In-Use", "type": "SDTM Dataset"}, "parentProduct": {"href": "/mdr/sdtmig/md-1-0", "title": "SDTM Implementation Guide for Medical Devices SDTMIG-MD 1.0 (Provisional)", "type": "Implementation Guide"}, "rootItem": {"href": "/mdr/root/sdtmig/datasets/DU/variables/USUBJID", "title": "Version-agnostic anchor resource for SDTMIG variable DU.USUBJID", "type": "Root Data Element"}, "self": {"href": "/mdr/sdtmig/md-1-0/datasets/DU/variables/USUBJID", "title": "Unique Subject Identifier", "type": "SDTM Dataset Variable"}}, "core": "Exp", "description": "Expected in this domain as devices may have settings or uses that either may not involve subjects (e.g., diagnostic tools) or devices that are removed from the study prior to contact with a subject (e.g., device has malfunction)", "label": "Unique Subject Identifier", "name": "USUBJID", "ordinal": "3", "role": "Identifier", "simpleDatatype": "Char"}, {"_links": {"parentDataset": {"href": "/mdr/sdtmig/md-1-0/datasets/DU", "title": "Device In-Use", "type": "SDTM Dataset"}, "parentProduct": {"href": "/mdr/sdtmig/md-1-0", "title": "SDTM Implementation Guide for Medical Devices SDTMIG-MD 1.0 (Provisional)", "type": "Implementation Guide"}, "rootItem": {"href": "/mdr/root/sdtmig/datasets/DU/variables/SPDEVID", "title": "Version-agnostic anchor resource for SDTMIG variable DU.SPDEVID", "type": "Root Data Element"}, "self": {"href": "/mdr/sdtmig/md-1-0/datasets/DU/variables/SPDEVID", "title": "Sponsor Device Identifier", "type": "SDTM Dataset Variable"}}, "core": "Exp", "description": "It must be unique for each tracked unit of the device under study, and can be at whatever level of granularity the device should be identified (e.g., model or serial number, or combination of identifiers).", "label": "Sponsor Device Identifier", "name": "SPDEVID", "ordinal": "4", "role": "Identifier", "simpleDatatype": "Char"}, {"_links": {"modelClassVariable": {"href": "/mdr/sdtm/1-2/classes/GeneralObservations/variables/--SEQ", "title": "Sequence Number", "type": "Class Variable"}, "parentDataset": {"href": "/mdr/sdtmig/md-1-0/datasets/DU", "title": "Device In-Use", "type": "SDTM Dataset"}, "parentProduct": {"href": "/mdr/sdtmig/md-1-0", "title": "SDTM Implementation Guide for Medical Devices SDTMIG-MD 1.0 (Provisional)", "type": "Implementation Guide"}, "rootItem": {"href": "/mdr/root/sdtmig/datasets/DU/variables/DUSEQ", "title": "Version-agnostic anchor resource for SDTMIG variable DU.DUSEQ", "type": "Root Data Element"}, "self": {"href": "/mdr/sdtmig/md-1-0/datasets/DU/variables/DUSEQ", "title": "Sequence Number", "type": "SDTM Dataset Variable"}}, "core": "Req", "description": "May be any valid number. It should be unique within every subject/device combination.", "label": "Sequence Number", "name": "DUSEQ", "ordinal": "5", "role": "Identifier", "simpleDatatype": "Num"}, {"_links": {"modelClassVariable": {"href": "/mdr/sdtm/1-2/classes/GeneralObservations/variables/--GRPID", "title": "Group ID", "type": "Class Variable"}, "parentDataset": {"href": "/mdr/sdtmig/md-1-0/datasets/DU", "title": "Device In-Use", "type": "SDTM Dataset"}, "parentProduct": {"href": "/mdr/sdtmig/md-1-0", "title": "SDTM Implementation Guide for Medical Devices SDTMIG-MD 1.0 (Provisional)", "type": "Implementation Guide"}, "rootItem": {"href": "/mdr/root/sdtmig/datasets/DU/variables/DUGRPID", "title": "Version-agnostic anchor resource for SDTMIG variable DU.DUGRPID", "type": "Root Data Element"}, "self": {"href": "/mdr/sdtmig/md-1-0/datasets/DU/variables/DUGRPID", "title": "Group ID", "type": "SDTM Dataset Variable"}}, "core": "Perm", "description": "Used to tie together a block of related records in a single domain for a subject or a group of subject related records. Example: group records specifying all the settings for a specific imaging scan, such as field strength, repetition time and echo time.", "label": "Group ID", "name": "DUGRPID", "ordinal": "6", "role": "Identifier", "simpleDatatype": "Char"}, {"_links": {"modelClassVariable": {"href": "/mdr/sdtm/1-2/classes/GeneralObservations/variables/--REFID", "title": "Reference ID", "type": "Class Variable"}, "parentDataset": {"href": "/mdr/sdtmig/md-1-0/datasets/DU", "title": "Device In-Use", "type": "SDTM Dataset"}, "parentProduct": {"href": "/mdr/sdtmig/md-1-0", "title": "SDTM Implementation Guide for Medical Devices SDTMIG-MD 1.0 (Provisional)", "type": "Implementation Guide"}, "rootItem": {"href": "/mdr/root/sdtmig/datasets/DU/variables/DUREFID", "title": "Version-agnostic anchor resource for SDTMIG variable DU.DUREFID", "type": "Root Data Element"}, "self": {"href": "/mdr/sdtmig/md-1-0/datasets/DU/variables/DUREFID", "title": "Reference ID", "type": "SDTM Dataset Variable"}}, "core": "Perm", "description": "This could be a scan code or equivalent.", "label": "Reference ID", "name": "DUREFID", "ordinal": "7", "role": "Identifier", "simpleDatatype": "Char"}, {"_links": {"modelClassVariable": {"href": "/mdr/sdtm/1-2/classes/GeneralObservations/variables/--SPID", "title": "Sponsor ID", "type": "Class Variable"}, "parentDataset": {"href": "/mdr/sdtmig/md-1-0/datasets/DU", "title": "Device In-Use", "type": "SDTM Dataset"}, "parentProduct": {"href": "/mdr/sdtmig/md-1-0", "title": "SDTM Implementation Guide for Medical Devices SDTMIG-MD 1.0 (Provisional)", "type": "Implementation Guide"}, "rootItem": {"href": "/mdr/root/sdtmig/datasets/DU/variables/DUSPID", "title": "Version-agnostic anchor resource for SDTMIG variable DU.DUSPID", "type": "Root Data Element"}, "self": {"href": "/mdr/sdtmig/md-1-0/datasets/DU/variables/DUSPID", "title": "Sponsor-Defined Identifier", "type": "SDTM Dataset Variable"}}, "core": "Perm", "description": "Perhaps pre-printed on the CRF as an explicit line identifier or defined in the sponsor's operational database.", "label": "Sponsor-Defined Identifier", "name": "DUSPID", "ordinal": "8", "role": "Identifier", "simpleDatatype": "Char"}, {"_links": {"codelist": [{"href": "/mdr/root/ct/sdtmct/codelists/C106483", "title": "Version-agnostic anchor resource for codelist C106483", "type": "Root Value Domain"}], "modelClassVariable": {"href": "/mdr/sdtm/1-2/classes/Findings/variables/--TESTCD", "title": "Short Name of Measurement, Test or Examination", "type": "Class Variable"}, "parentDataset": {"href": "/mdr/sdtmig/md-1-0/datasets/DU", "title": "Device In-Use", "type": "SDTM Dataset"}, "parentProduct": {"href": "/mdr/sdtmig/md-1-0", "title": "SDTM Implementation Guide for Medical Devices SDTMIG-MD 1.0 (Provisional)", "type": "Implementation Guide"}, "rootItem": {"href": "/mdr/root/sdtmig/datasets/DU/variables/DUTESTCD", "title": "Version-agnostic anchor resource for SDTMIG variable DU.DUTESTCD", "type": "Root Data Element"}, "self": {"href": "/mdr/sdtmig/md-1-0/datasets/DU/variables/DUTESTCD", "title": "Device In-Use Test Short Name", "type": "SDTM Dataset Variable"}}, "core": "Req", "description": "It can be used as a column name when converting a dataset from a vertical to a horizontal format. The value in DUTESTCD cannot be longer than 8 characters, nor can it start with a number (e.g.\"1TEST\"). DUTESTCD cannot contain characters other than letters, numbers, or underscores. Examples: COILSTR, CNTMEDIA.", "label": "Device In-Use Test Short Name", "name": "DUTESTCD", "ordinal": "9", "role": "Topic", "simpleDatatype": "Char"}, {"_links": {"codelist": [{"href": "/mdr/root/ct/sdtmct/codelists/C106482", "title": "Version-agnostic anchor resource for codelist C106482", "type": "Root Value Domain"}], "modelClassVariable": {"href": "/mdr/sdtm/1-2/classes/Findings/variables/--TEST", "title": "Name of Measurement, Test or Examination", "type": "Class Variable"}, "parentDataset": {"href": "/mdr/sdtmig/md-1-0/datasets/DU", "title": "Device In-Use", "type": "SDTM Dataset"}, "parentProduct": {"href": "/mdr/sdtmig/md-1-0", "title": "SDTM Implementation Guide for Medical Devices SDTMIG-MD 1.0 (Provisional)", "type": "Implementation Guide"}, "rootItem": {"href": "/mdr/root/sdtmig/datasets/DU/variables/DUTEST", "title": "Version-agnostic anchor resource for SDTMIG variable DU.DUTEST", "type": "Root Data Element"}, "self": {"href": "/mdr/sdtmig/md-1-0/datasets/DU/variables/DUTEST", "title": "Device In-Use Test Name", "type": "SDTM Dataset Variable"}}, "core": "Req", "description": "The value in DUTEST cannot be longer than 40 characters. Examples: Coil Strength, Contrast Media.", "label": "Device In-Use Test Name", "name": "DUTEST", "ordinal": "10", "role": "Synonym Qualifier", "simpleDatatype": "Char"}, {"_links": {"modelClassVariable": {"href": "/mdr/sdtm/1-2/classes/Findings/variables/--CAT", "title": "Category", "type": "Class Variable"}, "parentDataset": {"href": "/mdr/sdtmig/md-1-0/datasets/DU", "title": "Device In-Use", "type": "SDTM Dataset"}, "parentProduct": {"href": "/mdr/sdtmig/md-1-0", "title": "SDTM Implementation Guide for Medical Devices SDTMIG-MD 1.0 (Provisional)", "type": "Implementation Guide"}, "rootItem": {"href": "/mdr/root/sdtmig/datasets/DU/variables/DUCAT", "title": "Version-agnostic anchor resource for SDTMIG variable DU.DUCAT", "type": "Root Data Element"}, "self": {"href": "/mdr/sdtmig/md-1-0/datasets/DU/variables/DUCAT", "title": "Category for Device In-Use", "type": "SDTM Dataset Variable"}}, "core": "Perm", "description": "For example, it can be used to define the type of device for which settings are recorded if DI is not used, for example, if the device is not under study.  Alternatively, it could record the type of setting, e.g., HARDWARE vs. SOFTWARE", "label": "Category for Device In-Use", "name": "DUCAT", "ordinal": "11", "role": "Grouping Qualifier", "simpleDatatype": "Char"}, {"_links": {"modelClassVariable": {"href": "/mdr/sdtm/1-2/classes/Findings/variables/--SCAT", "title": "Subcategory", "type": "Class Variable"}, "parentDataset": {"href": "/mdr/sdtmig/md-1-0/datasets/DU", "title": "Device In-Use", "type": "SDTM Dataset"}, "parentProduct": {"href": "/mdr/sdtmig/md-1-0", "title": "SDTM Implementation Guide for Medical Devices SDTMIG-MD 1.0 (Provisional)", "type": "Implementation Guide"}, "rootItem": {"href": "/mdr/root/sdtmig/datasets/DU/variables/DUSCAT", "title": "Version-agnostic anchor resource for SDTMIG variable DU.DUSCAT", "type": "Root Data Element"}, "self": {"href": "/mdr/sdtmig/md-1-0/datasets/DU/variables/DUSCAT", "title": "Subcategory for Device In-Use", "type": "SDTM Dataset Variable"}}, "core": "Perm", "description": "For example, if DUCAT = SOFTWARE, DUSCAT might be NOMINAL or POST-ADJUSTMENT.", "label": "Subcategory for Device In-Use", "name": "DUSCAT", "ordinal": "12", "role": "Grouping Qualifier", "simpleDatatype": "Char"}, {"_links": {"modelClassVariable": {"href": "/mdr/sdtm/1-2/classes/Findings/variables/--ORRES", "title": "Result or Finding in Original Units", "type": "Class Variable"}, "parentDataset": {"href": "/mdr/sdtmig/md-1-0/datasets/DU", "title": "Device In-Use", "type": "SDTM Dataset"}, "parentProduct": {"href": "/mdr/sdtmig/md-1-0", "title": "SDTM Implementation Guide for Medical Devices SDTMIG-MD 1.0 (Provisional)", "type": "Implementation Guide"}, "rootItem": {"href": "/mdr/root/sdtmig/datasets/DU/variables/DUORRES", "title": "Version-agnostic anchor resource for SDTMIG variable DU.DUORRES", "type": "Root Data Element"}, "self": {"href": "/mdr/sdtmig/md-1-0/datasets/DU/variables/DUORRES", "title": "Result or Finding in Original Units", "type": "SDTM Dataset Variable"}}, "core": "Exp", "description": "DUORRES should contain the setting or other device condition in effect at the time the device was used.", "label": "Result or Finding in Original Units", "name": "DUORRES", "ordinal": "13", "role": "Result Qualifier", "simpleDatatype": "Char"}, {"_links": {"codelist": [{"href": "/mdr/root/ct/sdtmct/codelists/C71620", "title": "Version-agnostic anchor resource for codelist C71620", "type": "Root Value Domain"}], "modelClassVariable": {"href": "/mdr/sdtm/1-2/classes/Findings/variables/--ORRESU", "title": "Original Units", "type": "Class Variable"}, "parentDataset": {"href": "/mdr/sdtmig/md-1-0/datasets/DU", "title": "Device In-Use", "type": "SDTM Dataset"}, "parentProduct": {"href": "/mdr/sdtmig/md-1-0", "title": "SDTM Implementation Guide for Medical Devices SDTMIG-MD 1.0 (Provisional)", "type": "Implementation Guide"}, "rootItem": {"href": "/mdr/root/sdtmig/datasets/DU/variables/DUORRESU", "title": "Version-agnostic anchor resource for SDTMIG variable DU.DUORRESU", "type": "Root Data Element"}, "self": {"href": "/mdr/sdtmig/md-1-0/datasets/DU/variables/DUORRESU", "title": "Original Units", "type": "SDTM Dataset Variable"}}, "core": "Exp", "description": "The unit for DUORRES. Examples: Tesla, mm.", "label": "Original Units", "name": "DUORRESU", "ordinal": "14", "role": "Variable Qualifier", "simpleDatatype": "Char"}, {"_links": {"modelClassVariable": {"href": "/mdr/sdtm/1-2/classes/Findings/variables/--STRESC", "title": "Result or Finding in Standard Format", "type": "Class Variable"}, "parentDataset": {"href": "/mdr/sdtmig/md-1-0/datasets/DU", "title": "Device In-Use", "type": "SDTM Dataset"}, "parentProduct": {"href": "/mdr/sdtmig/md-1-0", "title": "SDTM Implementation Guide for Medical Devices SDTMIG-MD 1.0 (Provisional)", "type": "Implementation Guide"}, "rootItem": {"href": "/mdr/root/sdtmig/datasets/DU/variables/DUSTRESC", "title": "Version-agnostic anchor resource for SDTMIG variable DU.DUSTRESC", "type": "Root Data Element"}, "self": {"href": "/mdr/sdtmig/md-1-0/datasets/DU/variables/DUSTRESC", "title": "Character Result/Finding in Std Format", "type": "SDTM Dataset Variable"}}, "core": "Exp", "description": "DUSTRESC should store all results or findings in character format; if results are numeric, they should also be stored in numeric format in DUSTRESN. For example, if a test has results \"NONE\", \"NEG\", and \"NEGATIVE\" in DUORRES, and these results effectively have the same meaning, they could be represented in standard format in DUSTRESC as \"NEGATIVE\".", "label": "Character Result/Finding in Std Format", "name": "DUSTRESC", "ordinal": "15", "role": "Result Qualifier", "simpleDatatype": "Char"}, {"_links": {"modelClassVariable": {"href": "/mdr/sdtm/1-2/classes/Findings/variables/--STRESN", "title": "Numeric Result/Finding in Standard Units", "type": "Class Variable"}, "parentDataset": {"href": "/mdr/sdtmig/md-1-0/datasets/DU", "title": "Device In-Use", "type": "SDTM Dataset"}, "parentProduct": {"href": "/mdr/sdtmig/md-1-0", "title": "SDTM Implementation Guide for Medical Devices SDTMIG-MD 1.0 (Provisional)", "type": "Implementation Guide"}, "rootItem": {"href": "/mdr/root/sdtmig/datasets/DU/variables/DUSTRESN", "title": "Version-agnostic anchor resource for SDTMIG variable DU.DUSTRESN", "type": "Root Data Element"}, "self": {"href": "/mdr/sdtmig/md-1-0/datasets/DU/variables/DUSTRESN", "title": "Numeric Result/Finding in Standard Units", "type": "SDTM Dataset Variable"}}, "core": "Exp", "description": "Is copied in numeric format from DUSTRESC. DUSTRESN should store all numeric test results or findings.", "label": "Numeric Result/Finding in Standard Units", "name": "DUSTRESN", "ordinal": "16", "role": "Result Qualifier", "simpleDatatype": "Num"}, {"_links": {"codelist": [{"href": "/mdr/root/ct/sdtmct/codelists/C71620", "title": "Version-agnostic anchor resource for codelist C71620", "type": "Root Value Domain"}], "modelClassVariable": {"href": "/mdr/sdtm/1-2/classes/Findings/variables/--STRESU", "title": "Standard Units", "type": "Class Variable"}, "parentDataset": {"href": "/mdr/sdtmig/md-1-0/datasets/DU", "title": "Device In-Use", "type": "SDTM Dataset"}, "parentProduct": {"href": "/mdr/sdtmig/md-1-0", "title": "SDTM Implementation Guide for Medical Devices SDTMIG-MD 1.0 (Provisional)", "type": "Implementation Guide"}, "rootItem": {"href": "/mdr/root/sdtmig/datasets/DU/variables/DUSTRESU", "title": "Version-agnostic anchor resource for SDTMIG variable DU.DUSTRESU", "type": "Root Data Element"}, "self": {"href": "/mdr/sdtmig/md-1-0/datasets/DU/variables/DUSTRESU", "title": "Standard Units", "type": "SDTM Dataset Variable"}}, "core": "Exp", "description": "The unit for standardized results may or may not be the same as for the original results.", "label": "Standard Units", "name": "DUSTRESU", "ordinal": "17", "role": "Variable Qualifier", "simpleDatatype": "Char"}, {"_links": {"modelClassVariable": {"href": "/mdr/sdtm/1-2/classes/GeneralObservations/variables/VISITNUM", "title": "Visit Number", "type": "Class Variable"}, "parentDataset": {"href": "/mdr/sdtmig/md-1-0/datasets/DU", "title": "Device In-Use", "type": "SDTM Dataset"}, "parentProduct": {"href": "/mdr/sdtmig/md-1-0", "title": "SDTM Implementation Guide for Medical Devices SDTMIG-MD 1.0 (Provisional)", "type": "Implementation Guide"}, "rootItem": {"href": "/mdr/root/sdtmig/datasets/DU/variables/VISITNUM", "title": "Version-agnostic anchor resource for SDTMIG variable DU.VISITNUM", "type": "Root Data Element"}, "self": {"href": "/mdr/sdtmig/md-1-0/datasets/DU/variables/VISITNUM", "title": "Visit Number", "type": "SDTM Dataset Variable"}}, "core": "Exp", "description": "A Numeric version of VISIT, used for sorting.", "label": "Visit Number", "name": "VISITNUM", "ordinal": "18", "role": "Timing", "simpleDatatype": "Num"}, {"_links": {"modelClassVariable": {"href": "/mdr/sdtm/1-2/classes/GeneralObservations/variables/VISIT", "title": "Visit Name", "type": "Class Variable"}, "parentDataset": {"href": "/mdr/sdtmig/md-1-0/datasets/DU", "title": "Device In-Use", "type": "SDTM Dataset"}, "parentProduct": {"href": "/mdr/sdtmig/md-1-0", "title": "SDTM Implementation Guide for Medical Devices SDTMIG-MD 1.0 (Provisional)", "type": "Implementation Guide"}, "rootItem": {"href": "/mdr/root/sdtmig/datasets/DU/variables/VISIT", "title": "Version-agnostic anchor resource for SDTMIG variable DU.VISIT", "type": "Root Data Element"}, "self": {"href": "/mdr/sdtmig/md-1-0/datasets/DU/variables/VISIT", "title": "Visit Name", "type": "SDTM Dataset Variable"}}, "core": "Perm", "description": "May be used in addition to VISITNUM and/or VISITDY.", "label": "Visit Name", "name": "VISIT", "ordinal": "19", "role": "Timing", "simpleDatatype": "Char"}, {"_links": {"modelClassVariable": {"href": "/mdr/sdtm/1-2/classes/GeneralObservations/variables/VISITDY", "title": "Planned Study Day of Visit", "type": "Class Variable"}, "parentDataset": {"href": "/mdr/sdtmig/md-1-0/datasets/DU", "title": "Device In-Use", "type": "SDTM Dataset"}, "parentProduct": {"href": "/mdr/sdtmig/md-1-0", "title": "SDTM Implementation Guide for Medical Devices SDTMIG-MD 1.0 (Provisional)", "type": "Implementation Guide"}, "rootItem": {"href": "/mdr/root/sdtmig/datasets/DU/variables/VISITDY", "title": "Version-agnostic anchor resource for SDTMIG variable DU.VISITDY", "type": "Root Data Element"}, "self": {"href": "/mdr/sdtmig/md-1-0/datasets/DU/variables/VISITDY", "title": "Planned Study Day of Visit", "type": "SDTM Dataset Variable"}}, "core": "Perm", "description": "This value is usually derived.", "label": "Planned Study Day of Visit", "name": "VISITDY", "ordinal": "20", "role": "Timing", "simpleDatatype": "Num"}, {"_links": {"modelClassVariable": {"href": "/mdr/sdtm/1-2/classes/GeneralObservations/variables/--DTC", "title": "Date/Time of Collection", "type": "Class Variable"}, "parentDataset": {"href": "/mdr/sdtmig/md-1-0/datasets/DU", "title": "Device In-Use", "type": "SDTM Dataset"}, "parentProduct": {"href": "/mdr/sdtmig/md-1-0", "title": "SDTM Implementation Guide for Medical Devices SDTMIG-MD 1.0 (Provisional)", "type": "Implementation Guide"}, "rootItem": {"href": "/mdr/root/sdtmig/datasets/DU/variables/DUDTC", "title": "Version-agnostic anchor resource for SDTMIG variable DU.DUDTC", "type": "Root Data Element"}, "self": {"href": "/mdr/sdtmig/md-1-0/datasets/DU/variables/DUDTC", "title": "Date/Time Device Used With Test/ Setting", "type": "SDTM Dataset Variable"}}, "core": "Exp", "describedValueDomain": "ISO 8601", "description": "This is not the date/time that the setting was set on the device, but rather that date/time that a measurement or test was done using that setting.", "label": "Date/Time Device Used With Test/ Setting", "name": "DUDTC", "ordinal": "21", "role": "Timing", "simpleDatatype": "Char"}, {"_links": {"modelClassVariable": {"href": "/mdr/sdtm/1-2/classes/GeneralObservations/variables/--DY", "title": "Study Day of Visit/Collection/Exam", "type": "Class Variable"}, "parentDataset": {"href": "/mdr/sdtmig/md-1-0/datasets/DU", "title": "Device In-Use", "type": "SDTM Dataset"}, "parentProduct": {"href": "/mdr/sdtmig/md-1-0", "title": "SDTM Implementation Guide for Medical Devices SDTMIG-MD 1.0 (Provisional)", "type": "Implementation Guide"}, "rootItem": {"href": "/mdr/root/sdtmig/datasets/DU/variables/DUDY", "title": "Version-agnostic anchor resource for SDTMIG variable DU.DUDY", "type": "Root Data Element"}, "self": {"href": "/mdr/sdtmig/md-1-0/datasets/DU/variables/DUDY", "title": "Study Day of Observation", "type": "SDTM Dataset Variable"}}, "core": "Perm", "description": "Algorithm for calculations must be relative to the sponsor-defined RFSTDTC variable in Demographics.", "label": "Study Day of Observation", "name": "DUDY", "ordinal": "22", "role": "Timing", "simpleDatatype": "Num"}], "description": "A findings domain that contains the measurements and settings that are intentionally set on a device when it is in use. These are characteristics that exist for the device, and have a specific setting for a use instance. (Source: CDISC Controlled Terminology, DOMAIN, C102622, 2018-06-29)", "label": "Device In-Use", "name": "DU", "ordinal": "2"}
