{"_links": {"parentClass": {"href": "/mdr/sendig/3-1-1/classes/Findings", "title": "Findings Observation Class", "type": "Class"}, "parentProduct": {"href": "/mdr/sendig/3-1-1", "title": "Standard for Exchange of Nonclinical Data Implementation Guide: Nonclinical Studies Version 3.1.1 (Final)", "type": "Implementation Guide"}, "priorVersion": {"href": "/mdr/sendig/3-1/datasets/CL", "title": "Clinical Observations", "type": "SDTM Dataset"}, "self": {"href": "/mdr/sendig/3-1-1/datasets/CL", "title": "Clinical Observations", "type": "SDTM Dataset"}}, "datasetStructure": "One record per finding per observation time per subject or pool", "datasetVariables": [{"_links": {"modelClassVariable": {"href": "/mdr/sdtm/1-5/classes/GeneralObservations/variables/STUDYID", "title": "Study Identifier", "type": "Class Variable"}, "parentDataset": {"href": "/mdr/sendig/3-1-1/datasets/CL", "title": "Clinical Observations", "type": "SDTM Dataset"}, "parentProduct": {"href": "/mdr/sendig/3-1-1", "title": "Standard for Exchange of Nonclinical Data Implementation Guide: Nonclinical Studies Version 3.1.1 (Final)", "type": "Implementation Guide"}, "priorVersion": {"href": "/mdr/sendig/3-1/datasets/CL/variables/STUDYID", "title": "Study Identifier", "type": "SDTM Dataset Variable"}, "rootItem": {"href": "/mdr/root/sendig/datasets/CL/variables/STUDYID", "title": "Version-agnostic anchor resource for SENDIG variable CL.STUDYID", "type": "Root Data Element"}, "self": {"href": "/mdr/sendig/3-1-1/datasets/CL/variables/STUDYID", "title": "Study Identifier", "type": "SDTM Dataset Variable"}}, "core": "Req", "description": "Unique identifier for a study.", "label": "Study Identifier", "name": "STUDYID", "ordinal": "1", "role": "Identifier", "simpleDatatype": "Char"}, {"_links": {"modelClassVariable": {"href": "/mdr/sdtm/1-5/classes/GeneralObservations/variables/DOMAIN", "title": "Domain Abbreviation", "type": "Class Variable"}, "parentDataset": {"href": "/mdr/sendig/3-1-1/datasets/CL", "title": "Clinical Observations", "type": "SDTM Dataset"}, "parentProduct": {"href": "/mdr/sendig/3-1-1", "title": "Standard for Exchange of Nonclinical Data Implementation Guide: Nonclinical Studies Version 3.1.1 (Final)", "type": "Implementation Guide"}, "priorVersion": {"href": "/mdr/sendig/3-1/datasets/CL/variables/DOMAIN", "title": "Domain Abbreviation", "type": "SDTM Dataset Variable"}, "rootItem": {"href": "/mdr/root/sendig/datasets/CL/variables/DOMAIN", "title": "Version-agnostic anchor resource for SENDIG variable CL.DOMAIN", "type": "Root Data Element"}, "self": {"href": "/mdr/sendig/3-1-1/datasets/CL/variables/DOMAIN", "title": "Domain Abbreviation", "type": "SDTM Dataset Variable"}}, "core": "Req", "description": "Two-character abbreviation for the domain.", "label": "Domain Abbreviation", "name": "DOMAIN", "ordinal": "2", "role": "Identifier", "simpleDatatype": "Char", "valueList": ["CL"]}, {"_links": {"modelClassVariable": {"href": "/mdr/sdtm/1-5/classes/GeneralObservations/variables/USUBJID", "title": "Unique Subject Identifier", "type": "Class Variable"}, "parentDataset": {"href": "/mdr/sendig/3-1-1/datasets/CL", "title": "Clinical Observations", "type": "SDTM Dataset"}, "parentProduct": {"href": "/mdr/sendig/3-1-1", "title": "Standard for Exchange of Nonclinical Data Implementation Guide: Nonclinical Studies Version 3.1.1 (Final)", "type": "Implementation Guide"}, "priorVersion": {"href": "/mdr/sendig/3-1/datasets/CL/variables/USUBJID", "title": "Unique Subject Identifier", "type": "SDTM Dataset Variable"}, "rootItem": {"href": "/mdr/root/sendig/datasets/CL/variables/USUBJID", "title": "Version-agnostic anchor resource for SENDIG variable CL.USUBJID", "type": "Root Data Element"}, "self": {"href": "/mdr/sendig/3-1-1/datasets/CL/variables/USUBJID", "title": "Unique Subject Identifier", "type": "SDTM Dataset Variable"}}, "core": "Exp", "description": "Identifier used to uniquely identify a subject across all studies for all applications or submissions involving the product. Either USUBJID or POOLID must be populated.", "label": "Unique Subject Identifier", "name": "USUBJID", "ordinal": "3", "role": "Identifier", "simpleDatatype": "Char"}, {"_links": {"modelClassVariable": {"href": "/mdr/sdtm/1-5/classes/GeneralObservations/variables/POOLID", "title": "Pool Identifier", "type": "Class Variable"}, "parentDataset": {"href": "/mdr/sendig/3-1-1/datasets/CL", "title": "Clinical Observations", "type": "SDTM Dataset"}, "parentProduct": {"href": "/mdr/sendig/3-1-1", "title": "Standard for Exchange of Nonclinical Data Implementation Guide: Nonclinical Studies Version 3.1.1 (Final)", "type": "Implementation Guide"}, "priorVersion": {"href": "/mdr/sendig/3-1/datasets/CL/variables/POOLID", "title": "Pool Identifier", "type": "SDTM Dataset Variable"}, "rootItem": {"href": "/mdr/root/sendig/datasets/CL/variables/POOLID", "title": "Version-agnostic anchor resource for SENDIG variable CL.POOLID", "type": "Root Data Element"}, "self": {"href": "/mdr/sendig/3-1-1/datasets/CL/variables/POOLID", "title": "Pool Identifier", "type": "SDTM Dataset Variable"}}, "core": "Perm", "description": "Identifier used for pooling subjects to assign a single finding to multiple subjects. If POOLID is entered, POOLDEF records must exist for each subject and the USUBJID must be null. Either USUBJID or POOLID must be populated.", "label": "Pool Identifier", "name": "POOLID", "ordinal": "4", "role": "Identifier", "simpleDatatype": "Char"}, {"_links": {"modelClassVariable": {"href": "/mdr/sdtm/1-5/classes/GeneralObservations/variables/FOCID", "title": "Focus of Study-Specific Interest", "type": "Class Variable"}, "parentDataset": {"href": "/mdr/sendig/3-1-1/datasets/CL", "title": "Clinical Observations", "type": "SDTM Dataset"}, "parentProduct": {"href": "/mdr/sendig/3-1-1", "title": "Standard for Exchange of Nonclinical Data Implementation Guide: Nonclinical Studies Version 3.1.1 (Final)", "type": "Implementation Guide"}, "priorVersion": {"href": "/mdr/sendig/3-1/datasets/CL/variables/FOCID", "title": "Focus of Study-Specific Interest", "type": "SDTM Dataset Variable"}, "rootItem": {"href": "/mdr/root/sendig/datasets/CL/variables/FOCID", "title": "Version-agnostic anchor resource for SENDIG variable CL.FOCID", "type": "Root Data Element"}, "self": {"href": "/mdr/sendig/3-1-1/datasets/CL/variables/FOCID", "title": "Focus of Study-Specific Interest", "type": "SDTM Dataset Variable"}}, "core": "Perm", "description": "Identification of a focus of study-specific interest on or within a subject or specimen as defined in the protocol, for which a measurement, test, or examination was performed. An example could be a drug application site, e.g. \"Injection site 1,\" \"Biopsy site 1,\" \"Treated site 1.\" the value in this variable should have inherent semantic value.", "label": "Focus of Study-Specific Interest", "name": "FOCID", "ordinal": "5", "role": "Identifier", "simpleDatatype": "Char"}, {"_links": {"modelClassVariable": {"href": "/mdr/sdtm/1-5/classes/GeneralObservations/variables/--SEQ", "title": "Sequence Number", "type": "Class Variable"}, "parentDataset": {"href": "/mdr/sendig/3-1-1/datasets/CL", "title": "Clinical Observations", "type": "SDTM Dataset"}, "parentProduct": {"href": "/mdr/sendig/3-1-1", "title": "Standard for Exchange of Nonclinical Data Implementation Guide: Nonclinical Studies Version 3.1.1 (Final)", "type": "Implementation Guide"}, "priorVersion": {"href": "/mdr/sendig/3-1/datasets/CL/variables/CLSEQ", "title": "Sequence Number", "type": "SDTM Dataset Variable"}, "rootItem": {"href": "/mdr/root/sendig/datasets/CL/variables/CLSEQ", "title": "Version-agnostic anchor resource for SENDIG variable CL.CLSEQ", "type": "Root Data Element"}, "self": {"href": "/mdr/sendig/3-1-1/datasets/CL/variables/CLSEQ", "title": "Sequence Number", "type": "SDTM Dataset Variable"}}, "core": "Req", "description": "The sequence number must be unique for each record within a USUBJID or POOLID, whichever applies for the record.", "label": "Sequence Number", "name": "CLSEQ", "ordinal": "6", "role": "Identifier", "simpleDatatype": "Num"}, {"_links": {"modelClassVariable": {"href": "/mdr/sdtm/1-5/classes/GeneralObservations/variables/--GRPID", "title": "Group ID", "type": "Class Variable"}, "parentDataset": {"href": "/mdr/sendig/3-1-1/datasets/CL", "title": "Clinical Observations", "type": "SDTM Dataset"}, "parentProduct": {"href": "/mdr/sendig/3-1-1", "title": "Standard for Exchange of Nonclinical Data Implementation Guide: Nonclinical Studies Version 3.1.1 (Final)", "type": "Implementation Guide"}, "priorVersion": {"href": "/mdr/sendig/3-1/datasets/CL/variables/CLGRPID", "title": "Group Identifier", "type": "SDTM Dataset Variable"}, "rootItem": {"href": "/mdr/root/sendig/datasets/CL/variables/CLGRPID", "title": "Version-agnostic anchor resource for SENDIG variable CL.CLGRPID", "type": "Root Data Element"}, "self": {"href": "/mdr/sendig/3-1-1/datasets/CL/variables/CLGRPID", "title": "Group Identifier", "type": "SDTM Dataset Variable"}}, "core": "Perm", "description": "Used to tie together a block of related records in a single domain for a subject or pool. This is not the treatment group number.", "label": "Group Identifier", "name": "CLGRPID", "ordinal": "7", "role": "Identifier", "simpleDatatype": "Char"}, {"_links": {"modelClassVariable": {"href": "/mdr/sdtm/1-5/classes/GeneralObservations/variables/--SPID", "title": "Sponsor-Defined Identifier", "type": "Class Variable"}, "parentDataset": {"href": "/mdr/sendig/3-1-1/datasets/CL", "title": "Clinical Observations", "type": "SDTM Dataset"}, "parentProduct": {"href": "/mdr/sendig/3-1-1", "title": "Standard for Exchange of Nonclinical Data Implementation Guide: Nonclinical Studies Version 3.1.1 (Final)", "type": "Implementation Guide"}, "priorVersion": {"href": "/mdr/sendig/3-1/datasets/CL/variables/CLSPID", "title": "Mass Identifier", "type": "SDTM Dataset Variable"}, "rootItem": {"href": "/mdr/root/sendig/datasets/CL/variables/CLSPID", "title": "Version-agnostic anchor resource for SENDIG variable CL.CLSPID", "type": "Root Data Element"}, "self": {"href": "/mdr/sendig/3-1-1/datasets/CL/variables/CLSPID", "title": "Mass Identifier", "type": "SDTM Dataset Variable"}}, "core": "Perm", "description": "Mass identifier such as MASS 1 or MASS A. Used when the mass was discovered during the in-life phase and assigned a mass identifier. The mass identification should be unique within the subject, regardless of mass location.", "label": "Mass Identifier", "name": "CLSPID", "ordinal": "8", "role": "Identifier", "simpleDatatype": "Char"}, {"_links": {"modelClassVariable": {"href": "/mdr/sdtm/1-5/classes/Findings/variables/--TESTCD", "title": "Short Name of Measurement, Test or Examination", "type": "Class Variable"}, "parentDataset": {"href": "/mdr/sendig/3-1-1/datasets/CL", "title": "Clinical Observations", "type": "SDTM Dataset"}, "parentProduct": {"href": "/mdr/sendig/3-1-1", "title": "Standard for Exchange of Nonclinical Data Implementation Guide: Nonclinical Studies Version 3.1.1 (Final)", "type": "Implementation Guide"}, "priorVersion": {"href": "/mdr/sendig/3-1/datasets/CL/variables/CLTESTCD", "title": "Test Short Name", "type": "SDTM Dataset Variable"}, "rootItem": {"href": "/mdr/root/sendig/datasets/CL/variables/CLTESTCD", "title": "Version-agnostic anchor resource for SENDIG variable CL.CLTESTCD", "type": "Root Data Element"}, "self": {"href": "/mdr/sendig/3-1-1/datasets/CL/variables/CLTESTCD", "title": "Test Short Name", "type": "SDTM Dataset Variable"}}, "core": "Req", "description": "Short name of the measurement, test, or examination described in CLTEST. It can be used as a column name when converting a dataset from a vertical to a horizontal format. The value in CLTESTCD cannot be longer than 8 characters, nor can it start with a number (e.g., \"1TEST\" is not valid). CLTESTCD cannot contain characters other than letters, numbers, or underscores.", "label": "Test Short Name", "name": "CLTESTCD", "ordinal": "9", "role": "Topic", "simpleDatatype": "Char"}, {"_links": {"modelClassVariable": {"href": "/mdr/sdtm/1-5/classes/Findings/variables/--TEST", "title": "Name of Measurement, Test or Examination", "type": "Class Variable"}, "parentDataset": {"href": "/mdr/sendig/3-1-1/datasets/CL", "title": "Clinical Observations", "type": "SDTM Dataset"}, "parentProduct": {"href": "/mdr/sendig/3-1-1", "title": "Standard for Exchange of Nonclinical Data Implementation Guide: Nonclinical Studies Version 3.1.1 (Final)", "type": "Implementation Guide"}, "priorVersion": {"href": "/mdr/sendig/3-1/datasets/CL/variables/CLTEST", "title": "Test Name", "type": "SDTM Dataset Variable"}, "rootItem": {"href": "/mdr/root/sendig/datasets/CL/variables/CLTEST", "title": "Version-agnostic anchor resource for SENDIG variable CL.CLTEST", "type": "Root Data Element"}, "self": {"href": "/mdr/sendig/3-1-1/datasets/CL/variables/CLTEST", "title": "Test Name", "type": "SDTM Dataset Variable"}}, "core": "Req", "description": "Long name for CLTESTCD. The value in CLTEST cannot be longer than 40 characters.", "label": "Test Name", "name": "CLTEST", "ordinal": "10", "role": "Synonym Qualifier", "simpleDatatype": "Char"}, {"_links": {"codelist": [{"href": "/mdr/root/ct/sendct/codelists/C89963", "title": "Version-agnostic anchor resource for codelist C89963", "type": "Root Value Domain"}], "modelClassVariable": {"href": "/mdr/sdtm/1-5/classes/Findings/variables/--CAT", "title": "Category", "type": "Class Variable"}, "parentDataset": {"href": "/mdr/sendig/3-1-1/datasets/CL", "title": "Clinical Observations", "type": "SDTM Dataset"}, "parentProduct": {"href": "/mdr/sendig/3-1-1", "title": "Standard for Exchange of Nonclinical Data Implementation Guide: Nonclinical Studies Version 3.1.1 (Final)", "type": "Implementation Guide"}, "priorVersion": {"href": "/mdr/sendig/3-1/datasets/CL/variables/CLCAT", "title": "Category for Clinical Observations", "type": "SDTM Dataset Variable"}, "rootItem": {"href": "/mdr/root/sendig/datasets/CL/variables/CLCAT", "title": "Version-agnostic anchor resource for SENDIG variable CL.CLCAT", "type": "Root Data Element"}, "self": {"href": "/mdr/sendig/3-1-1/datasets/CL/variables/CLCAT", "title": "Category for Clinical Observations", "type": "SDTM Dataset Variable"}}, "core": "Req", "description": "Used to define a category of the clinical observation.", "label": "Category for Clinical Observations", "name": "CLCAT", "ordinal": "11", "role": "Grouping Qualifier", "simpleDatatype": "Char"}, {"_links": {"modelClassVariable": {"href": "/mdr/sdtm/1-5/classes/Findings/variables/--SCAT", "title": "Subcategory", "type": "Class Variable"}, "parentDataset": {"href": "/mdr/sendig/3-1-1/datasets/CL", "title": "Clinical Observations", "type": "SDTM Dataset"}, "parentProduct": {"href": "/mdr/sendig/3-1-1", "title": "Standard for Exchange of Nonclinical Data Implementation Guide: Nonclinical Studies Version 3.1.1 (Final)", "type": "Implementation Guide"}, "priorVersion": {"href": "/mdr/sendig/3-1/datasets/CL/variables/CLSCAT", "title": "Subcategory for Clinical Observations", "type": "SDTM Dataset Variable"}, "rootItem": {"href": "/mdr/root/sendig/datasets/CL/variables/CLSCAT", "title": "Version-agnostic anchor resource for SENDIG variable CL.CLSCAT", "type": "Root Data Element"}, "self": {"href": "/mdr/sendig/3-1-1/datasets/CL/variables/CLSCAT", "title": "Subcategory for Clinical Observations", "type": "SDTM Dataset Variable"}}, "core": "Perm", "description": "Used to further categorize a group of clinical observations within a category. For example \"Whole Body Appearance\" and \"Sensory Organ Appearance\" may be subcategories within Clinical Signs.", "label": "Subcategory for Clinical Observations", "name": "CLSCAT", "ordinal": "12", "role": "Grouping Qualifier", "simpleDatatype": "Char"}, {"_links": {"codelist": [{"href": "/mdr/root/ct/sendct/codelists/C88026", "title": "Version-agnostic anchor resource for codelist C88026", "type": "Root Value Domain"}], "modelClassVariable": {"href": "/mdr/sdtm/1-5/classes/Findings/variables/--BODSYS", "title": "Body System or Organ Class", "type": "Class Variable"}, "parentDataset": {"href": "/mdr/sendig/3-1-1/datasets/CL", "title": "Clinical Observations", "type": "SDTM Dataset"}, "parentProduct": {"href": "/mdr/sendig/3-1-1", "title": "Standard for Exchange of Nonclinical Data Implementation Guide: Nonclinical Studies Version 3.1.1 (Final)", "type": "Implementation Guide"}, "priorVersion": {"href": "/mdr/sendig/3-1/datasets/CL/variables/CLBODSYS", "title": "Body System or Organ Class", "type": "SDTM Dataset Variable"}, "rootItem": {"href": "/mdr/root/sendig/datasets/CL/variables/CLBODSYS", "title": "Version-agnostic anchor resource for SENDIG variable CL.CLBODSYS", "type": "Root Data Element"}, "self": {"href": "/mdr/sendig/3-1-1/datasets/CL/variables/CLBODSYS", "title": "Body System or Organ Class", "type": "SDTM Dataset Variable"}}, "core": "Perm", "description": "Body system or organ class associated with the measurement performed.", "label": "Body System or Organ Class", "name": "CLBODSYS", "ordinal": "13", "role": "Record Qualifier", "simpleDatatype": "Char"}, {"_links": {"modelClassVariable": {"href": "/mdr/sdtm/1-5/classes/Findings/variables/--ORRES", "title": "Result or Finding in Original Units", "type": "Class Variable"}, "parentDataset": {"href": "/mdr/sendig/3-1-1/datasets/CL", "title": "Clinical Observations", "type": "SDTM Dataset"}, "parentProduct": {"href": "/mdr/sendig/3-1-1", "title": "Standard for Exchange of Nonclinical Data Implementation Guide: Nonclinical Studies Version 3.1.1 (Final)", "type": "Implementation Guide"}, "priorVersion": {"href": "/mdr/sendig/3-1/datasets/CL/variables/CLORRES", "title": "Result or Findings as Collected", "type": "SDTM Dataset Variable"}, "rootItem": {"href": "/mdr/root/sendig/datasets/CL/variables/CLORRES", "title": "Version-agnostic anchor resource for SENDIG variable CL.CLORRES", "type": "Root Data Element"}, "self": {"href": "/mdr/sendig/3-1-1/datasets/CL/variables/CLORRES", "title": "Result or Findings as Collected", "type": "SDTM Dataset Variable"}}, "core": "Exp", "description": "Text description of the finding as originally received or collected. If the examination was not performed on a particular body system, or at the subject level, then the value should be null, and NOT DONE should appear in CLSTAT.", "label": "Result or Findings as Collected", "name": "CLORRES", "ordinal": "14", "role": "Result Qualifier", "simpleDatatype": "Char"}, {"_links": {"modelClassVariable": {"href": "/mdr/sdtm/1-5/classes/Findings/variables/--STRESC", "title": "Result or Finding in Standard Format", "type": "Class Variable"}, "parentDataset": {"href": "/mdr/sendig/3-1-1/datasets/CL", "title": "Clinical Observations", "type": "SDTM Dataset"}, "parentProduct": {"href": "/mdr/sendig/3-1-1", "title": "Standard for Exchange of Nonclinical Data Implementation Guide: Nonclinical Studies Version 3.1.1 (Final)", "type": "Implementation Guide"}, "priorVersion": {"href": "/mdr/sendig/3-1/datasets/CL/variables/CLSTRESC", "title": "Standardized Result in Character Format", "type": "SDTM Dataset Variable"}, "rootItem": {"href": "/mdr/root/sendig/datasets/CL/variables/CLSTRESC", "title": "Version-agnostic anchor resource for SENDIG variable CL.CLSTRESC", "type": "Root Data Element"}, "self": {"href": "/mdr/sendig/3-1-1/datasets/CL/variables/CLSTRESC", "title": "Standardized Result in Character Format", "type": "SDTM Dataset Variable"}}, "core": "Exp", "description": "The base finding from CLORRES without modifiers. If the examination was completed and there were no abnormal findings, the value must be NORMAL.", "label": "Standardized Result in Character Format", "name": "CLSTRESC", "ordinal": "15", "role": "Result Qualifier", "simpleDatatype": "Char"}, {"_links": {"modelClassVariable": {"href": "/mdr/sdtm/1-5/classes/Findings/variables/--RESCAT", "title": "Result Category", "type": "Class Variable"}, "parentDataset": {"href": "/mdr/sendig/3-1-1/datasets/CL", "title": "Clinical Observations", "type": "SDTM Dataset"}, "parentProduct": {"href": "/mdr/sendig/3-1-1", "title": "Standard for Exchange of Nonclinical Data Implementation Guide: Nonclinical Studies Version 3.1.1 (Final)", "type": "Implementation Guide"}, "priorVersion": {"href": "/mdr/sendig/3-1/datasets/CL/variables/CLRESCAT", "title": "Result Category", "type": "SDTM Dataset Variable"}, "rootItem": {"href": "/mdr/root/sendig/datasets/CL/variables/CLRESCAT", "title": "Version-agnostic anchor resource for SENDIG variable CL.CLRESCAT", "type": "Root Data Element"}, "self": {"href": "/mdr/sendig/3-1-1/datasets/CL/variables/CLRESCAT", "title": "Result Category", "type": "SDTM Dataset Variable"}}, "core": "Perm", "description": "Used to categorize the result of a finding post collection. Examples: Color or Facial.", "label": "Result Category", "name": "CLRESCAT", "ordinal": "16", "role": "Variable Qualifier", "simpleDatatype": "Char"}, {"_links": {"codelist": [{"href": "/mdr/root/ct/sendct/codelists/C66789", "title": "Version-agnostic anchor resource for codelist C66789", "type": "Root Value Domain"}], "modelClassVariable": {"href": "/mdr/sdtm/1-5/classes/Findings/variables/--STAT", "title": "Completion Status", "type": "Class Variable"}, "parentDataset": {"href": "/mdr/sendig/3-1-1/datasets/CL", "title": "Clinical Observations", "type": "SDTM Dataset"}, "parentProduct": {"href": "/mdr/sendig/3-1-1", "title": "Standard for Exchange of Nonclinical Data Implementation Guide: Nonclinical Studies Version 3.1.1 (Final)", "type": "Implementation Guide"}, "priorVersion": {"href": "/mdr/sendig/3-1/datasets/CL/variables/CLSTAT", "title": "Completion Status", "type": "SDTM Dataset Variable"}, "rootItem": {"href": "/mdr/root/sendig/datasets/CL/variables/CLSTAT", "title": "Version-agnostic anchor resource for SENDIG variable CL.CLSTAT", "type": "Root Data Element"}, "self": {"href": "/mdr/sendig/3-1-1/datasets/CL/variables/CLSTAT", "title": "Completion Status", "type": "SDTM Dataset Variable"}}, "core": "Perm", "description": "Used to indicate examination not done or result is missing. Should be null if a result exists in CLORRES.", "label": "Completion Status", "name": "CLSTAT", "ordinal": "17", "role": "Record Qualifier", "simpleDatatype": "Char"}, {"_links": {"modelClassVariable": {"href": "/mdr/sdtm/1-5/classes/Findings/variables/--REASND", "title": "Reason Not Done", "type": "Class Variable"}, "parentDataset": {"href": "/mdr/sendig/3-1-1/datasets/CL", "title": "Clinical Observations", "type": "SDTM Dataset"}, "parentProduct": {"href": "/mdr/sendig/3-1-1", "title": "Standard for Exchange of Nonclinical Data Implementation Guide: Nonclinical Studies Version 3.1.1 (Final)", "type": "Implementation Guide"}, "priorVersion": {"href": "/mdr/sendig/3-1/datasets/CL/variables/CLREASND", "title": "Reason Not Done", "type": "SDTM Dataset Variable"}, "rootItem": {"href": "/mdr/root/sendig/datasets/CL/variables/CLREASND", "title": "Version-agnostic anchor resource for SENDIG variable CL.CLREASND", "type": "Root Data Element"}, "self": {"href": "/mdr/sendig/3-1-1/datasets/CL/variables/CLREASND", "title": "Reason Not Done", "type": "SDTM Dataset Variable"}}, "core": "Perm", "description": "Describes why CLSTAT is NOT DONE, such as SUBJECT MORIBUND.", "label": "Reason Not Done", "name": "CLREASND", "ordinal": "18", "role": "Record Qualifier", "simpleDatatype": "Char"}, {"_links": {"modelClassVariable": {"href": "/mdr/sdtm/1-5/classes/Findings/variables/--LOC", "title": "Location Used for the Measurement", "type": "Class Variable"}, "parentDataset": {"href": "/mdr/sendig/3-1-1/datasets/CL", "title": "Clinical Observations", "type": "SDTM Dataset"}, "parentProduct": {"href": "/mdr/sendig/3-1-1", "title": "Standard for Exchange of Nonclinical Data Implementation Guide: Nonclinical Studies Version 3.1.1 (Final)", "type": "Implementation Guide"}, "priorVersion": {"href": "/mdr/sendig/3-1/datasets/CL/variables/CLLOC", "title": "Location of a Finding", "type": "SDTM Dataset Variable"}, "rootItem": {"href": "/mdr/root/sendig/datasets/CL/variables/CLLOC", "title": "Version-agnostic anchor resource for SENDIG variable CL.CLLOC", "type": "Root Data Element"}, "self": {"href": "/mdr/sendig/3-1-1/datasets/CL/variables/CLLOC", "title": "Location of a Finding", "type": "SDTM Dataset Variable"}}, "core": "Exp", "description": "Can be used to specify where a clinical sign occurred. Example: LEFT EAR for skin rash.", "label": "Location of a Finding", "name": "CLLOC", "ordinal": "19", "role": "Record Qualifier", "simpleDatatype": "Char"}, {"_links": {"modelClassVariable": {"href": "/mdr/sdtm/1-5/classes/Findings/variables/--EVAL", "title": "Evaluator", "type": "Class Variable"}, "parentDataset": {"href": "/mdr/sendig/3-1-1/datasets/CL", "title": "Clinical Observations", "type": "SDTM Dataset"}, "parentProduct": {"href": "/mdr/sendig/3-1-1", "title": "Standard for Exchange of Nonclinical Data Implementation Guide: Nonclinical Studies Version 3.1.1 (Final)", "type": "Implementation Guide"}, "priorVersion": {"href": "/mdr/sendig/3-1/datasets/CL/variables/CLEVAL", "title": "Evaluator", "type": "SDTM Dataset Variable"}, "rootItem": {"href": "/mdr/root/sendig/datasets/CL/variables/CLEVAL", "title": "Version-agnostic anchor resource for SENDIG variable CL.CLEVAL", "type": "Root Data Element"}, "self": {"href": "/mdr/sendig/3-1-1/datasets/CL/variables/CLEVAL", "title": "Evaluator", "type": "SDTM Dataset Variable"}}, "core": "Perm", "description": "Role of the person who provided the evaluation. Example: TOX TECHNICIAN, OPHTHALMOLOGIST, VETERINARIAN.", "label": "Evaluator", "name": "CLEVAL", "ordinal": "20", "role": "Record Qualifier", "simpleDatatype": "Char"}, {"_links": {"modelClassVariable": {"href": "/mdr/sdtm/1-5/classes/Findings/variables/--SEV", "title": "Severity", "type": "Class Variable"}, "parentDataset": {"href": "/mdr/sendig/3-1-1/datasets/CL", "title": "Clinical Observations", "type": "SDTM Dataset"}, "parentProduct": {"href": "/mdr/sendig/3-1-1", "title": "Standard for Exchange of Nonclinical Data Implementation Guide: Nonclinical Studies Version 3.1.1 (Final)", "type": "Implementation Guide"}, "priorVersion": {"href": "/mdr/sendig/3-1/datasets/CL/variables/CLSEV", "title": "Severity", "type": "SDTM Dataset Variable"}, "rootItem": {"href": "/mdr/root/sendig/datasets/CL/variables/CLSEV", "title": "Version-agnostic anchor resource for SENDIG variable CL.CLSEV", "type": "Root Data Element"}, "self": {"href": "/mdr/sendig/3-1-1/datasets/CL/variables/CLSEV", "title": "Severity", "type": "SDTM Dataset Variable"}}, "core": "Perm", "description": "Describes the severity or intensity of a particular finding.", "label": "Severity", "name": "CLSEV", "ordinal": "21", "role": "Record Qualifier", "simpleDatatype": "Char"}, {"_links": {"codelist": [{"href": "/mdr/root/ct/sendct/codelists/C66742", "title": "Version-agnostic anchor resource for codelist C66742", "type": "Root Value Domain"}], "modelClassVariable": {"href": "/mdr/sdtm/1-5/classes/Findings/variables/--EXCLFL", "title": "Exclude from Statistics", "type": "Class Variable"}, "parentDataset": {"href": "/mdr/sendig/3-1-1/datasets/CL", "title": "Clinical Observations", "type": "SDTM Dataset"}, "parentProduct": {"href": "/mdr/sendig/3-1-1", "title": "Standard for Exchange of Nonclinical Data Implementation Guide: Nonclinical Studies Version 3.1.1 (Final)", "type": "Implementation Guide"}, "priorVersion": {"href": "/mdr/sendig/3-1/datasets/CL/variables/CLEXCLFL", "title": "Exclusion Flag", "type": "SDTM Dataset Variable"}, "rootItem": {"href": "/mdr/root/sendig/datasets/CL/variables/CLEXCLFL", "title": "Version-agnostic anchor resource for SENDIG variable CL.CLEXCLFL", "type": "Root Data Element"}, "self": {"href": "/mdr/sendig/3-1-1/datasets/CL/variables/CLEXCLFL", "title": "Exclusion Flag", "type": "SDTM Dataset Variable"}}, "core": "Perm", "description": "Y if the result should be excluded from all calculations, otherwise null.", "label": "Exclusion Flag", "name": "CLEXCLFL", "ordinal": "22", "role": "Record Qualifier", "simpleDatatype": "Char"}, {"_links": {"modelClassVariable": {"href": "/mdr/sdtm/1-5/classes/Findings/variables/--REASEX", "title": "Reason for Exclusion from Statistics", "type": "Class Variable"}, "parentDataset": {"href": "/mdr/sendig/3-1-1/datasets/CL", "title": "Clinical Observations", "type": "SDTM Dataset"}, "parentProduct": {"href": "/mdr/sendig/3-1-1", "title": "Standard for Exchange of Nonclinical Data Implementation Guide: Nonclinical Studies Version 3.1.1 (Final)", "type": "Implementation Guide"}, "priorVersion": {"href": "/mdr/sendig/3-1/datasets/CL/variables/CLREASEX", "title": "Reason for Exclusion", "type": "SDTM Dataset Variable"}, "rootItem": {"href": "/mdr/root/sendig/datasets/CL/variables/CLREASEX", "title": "Version-agnostic anchor resource for SENDIG variable CL.CLREASEX", "type": "Root Data Element"}, "self": {"href": "/mdr/sendig/3-1-1/datasets/CL/variables/CLREASEX", "title": "Reason for Exclusion", "type": "SDTM Dataset Variable"}}, "core": "Perm", "description": "The reason the result should be excluded from all calculations. Used only when CLEXCLFL is Y.", "label": "Reason for Exclusion", "name": "CLREASEX", "ordinal": "23", "role": "Record Qualifier", "simpleDatatype": "Char"}, {"_links": {"codelist": [{"href": "/mdr/root/ct/sendct/codelists/C66742", "title": "Version-agnostic anchor resource for codelist C66742", "type": "Root Value Domain"}], "modelClassVariable": {"href": "/mdr/sdtm/1-5/classes/Findings/variables/--USCHFL", "title": "Unscheduled Flag", "type": "Class Variable"}, "parentDataset": {"href": "/mdr/sendig/3-1-1/datasets/CL", "title": "Clinical Observations", "type": "SDTM Dataset"}, "parentProduct": {"href": "/mdr/sendig/3-1-1", "title": "Standard for Exchange of Nonclinical Data Implementation Guide: Nonclinical Studies Version 3.1.1 (Final)", "type": "Implementation Guide"}, "priorVersion": {"href": "/mdr/sendig/3-1/datasets/CL/variables/CLUSCHFL", "title": "Unscheduled Flag", "type": "SDTM Dataset Variable"}, "rootItem": {"href": "/mdr/root/sendig/datasets/CL/variables/CLUSCHFL", "title": "Version-agnostic anchor resource for SENDIG variable CL.CLUSCHFL", "type": "Root Data Element"}, "self": {"href": "/mdr/sendig/3-1-1/datasets/CL/variables/CLUSCHFL", "title": "Unscheduled Flag", "type": "SDTM Dataset Variable"}}, "core": "Perm", "description": "Indicates whether the timing of a performed test or observation was unscheduled. If a test or observation was performed based upon a schedule defined in the protocol, this flag should be null. Expected values are Y or null.", "label": "Unscheduled Flag", "name": "CLUSCHFL", "ordinal": "24", "role": "Record Qualifier", "simpleDatatype": "Char"}, {"_links": {"modelClassVariable": {"href": "/mdr/sdtm/1-5/classes/GeneralObservations/variables/VISITDY", "title": "Planned Study Day of Visit", "type": "Class Variable"}, "parentDataset": {"href": "/mdr/sendig/3-1-1/datasets/CL", "title": "Clinical Observations", "type": "SDTM Dataset"}, "parentProduct": {"href": "/mdr/sendig/3-1-1", "title": "Standard for Exchange of Nonclinical Data Implementation Guide: Nonclinical Studies Version 3.1.1 (Final)", "type": "Implementation Guide"}, "priorVersion": {"href": "/mdr/sendig/3-1/datasets/CL/variables/VISITDY", "title": "Planned Study Day of Collection", "type": "SDTM Dataset Variable"}, "rootItem": {"href": "/mdr/root/sendig/datasets/CL/variables/VISITDY", "title": "Version-agnostic anchor resource for SENDIG variable CL.VISITDY", "type": "Root Data Element"}, "self": {"href": "/mdr/sendig/3-1-1/datasets/CL/variables/VISITDY", "title": "Planned Study Day of Collection", "type": "SDTM Dataset Variable"}}, "core": "Perm", "description": "Planned study day of collection. Should be an integer.", "label": "Planned Study Day of Collection", "name": "VISITDY", "ordinal": "25", "role": "Timing", "simpleDatatype": "Num"}, {"_links": {"modelClassVariable": {"href": "/mdr/sdtm/1-5/classes/GeneralObservations/variables/--DTC", "title": "Date/Time of Collection", "type": "Class Variable"}, "parentDataset": {"href": "/mdr/sendig/3-1-1/datasets/CL", "title": "Clinical Observations", "type": "SDTM Dataset"}, "parentProduct": {"href": "/mdr/sendig/3-1-1", "title": "Standard for Exchange of Nonclinical Data Implementation Guide: Nonclinical Studies Version 3.1.1 (Final)", "type": "Implementation Guide"}, "priorVersion": {"href": "/mdr/sendig/3-1/datasets/CL/variables/CLDTC", "title": "Date/Time of Observation", "type": "SDTM Dataset Variable"}, "rootItem": {"href": "/mdr/root/sendig/datasets/CL/variables/CLDTC", "title": "Version-agnostic anchor resource for SENDIG variable CL.CLDTC", "type": "Root Data Element"}, "self": {"href": "/mdr/sendig/3-1-1/datasets/CL/variables/CLDTC", "title": "Date/Time of Observation", "type": "SDTM Dataset Variable"}}, "core": "Exp", "describedValueDomain": "ISO 8601", "description": "Date/Time of the clinical observation in ISO 8601 format. For measurements related to a continuous evaluation interval, CLDTC should be used to indicate the start date/time of that interval.", "label": "Date/Time of Observation", "name": "CLDTC", "ordinal": "26", "role": "Timing", "simpleDatatype": "Char"}, {"_links": {"modelClassVariable": {"href": "/mdr/sdtm/1-5/classes/GeneralObservations/variables/--ENDTC", "title": "End Date/Time of Observation", "type": "Class Variable"}, "parentDataset": {"href": "/mdr/sendig/3-1-1/datasets/CL", "title": "Clinical Observations", "type": "SDTM Dataset"}, "parentProduct": {"href": "/mdr/sendig/3-1-1", "title": "Standard for Exchange of Nonclinical Data Implementation Guide: Nonclinical Studies Version 3.1.1 (Final)", "type": "Implementation Guide"}, "priorVersion": {"href": "/mdr/sendig/3-1/datasets/CL/variables/CLENDTC", "title": "End Date/Time of Observation", "type": "SDTM Dataset Variable"}, "rootItem": {"href": "/mdr/root/sendig/datasets/CL/variables/CLENDTC", "title": "Version-agnostic anchor resource for SENDIG variable CL.CLENDTC", "type": "Root Data Element"}, "self": {"href": "/mdr/sendig/3-1-1/datasets/CL/variables/CLENDTC", "title": "End Date/Time of Observation", "type": "SDTM Dataset Variable"}}, "core": "Perm", "describedValueDomain": "ISO 8601", "description": "Date/Time of end of observation interval, in ISO 8601 format. Should be populated when CLDTC represents the start date/time of a continuous evaluation interval.", "label": "End Date/Time of Observation", "name": "CLENDTC", "ordinal": "27", "role": "Timing", "simpleDatatype": "Char"}, {"_links": {"modelClassVariable": {"href": "/mdr/sdtm/1-5/classes/GeneralObservations/variables/--DY", "title": "Study Day of Visit/Collection/Exam", "type": "Class Variable"}, "parentDataset": {"href": "/mdr/sendig/3-1-1/datasets/CL", "title": "Clinical Observations", "type": "SDTM Dataset"}, "parentProduct": {"href": "/mdr/sendig/3-1-1", "title": "Standard for Exchange of Nonclinical Data Implementation Guide: Nonclinical Studies Version 3.1.1 (Final)", "type": "Implementation Guide"}, "priorVersion": {"href": "/mdr/sendig/3-1/datasets/CL/variables/CLDY", "title": "Study Day of Observation", "type": "SDTM Dataset Variable"}, "rootItem": {"href": "/mdr/root/sendig/datasets/CL/variables/CLDY", "title": "Version-agnostic anchor resource for SENDIG variable CL.CLDY", "type": "Root Data Element"}, "self": {"href": "/mdr/sendig/3-1-1/datasets/CL/variables/CLDY", "title": "Study Day of Observation", "type": "SDTM Dataset Variable"}}, "core": "Perm", "description": "Study day of observation, in integer days. For measurements related to a continuous evaluation interval, CLDY can be used to indicate start day of that interval. The algorithm for calculations must be relative to the sponsor-defined RFSTDTC variable in the Demographics (DM) domain.", "label": "Study Day of Observation", "name": "CLDY", "ordinal": "28", "role": "Timing", "simpleDatatype": "Num"}, {"_links": {"modelClassVariable": {"href": "/mdr/sdtm/1-5/classes/GeneralObservations/variables/--ENDY", "title": "Study Day of End of Observation", "type": "Class Variable"}, "parentDataset": {"href": "/mdr/sendig/3-1-1/datasets/CL", "title": "Clinical Observations", "type": "SDTM Dataset"}, "parentProduct": {"href": "/mdr/sendig/3-1-1", "title": "Standard for Exchange of Nonclinical Data Implementation Guide: Nonclinical Studies Version 3.1.1 (Final)", "type": "Implementation Guide"}, "priorVersion": {"href": "/mdr/sendig/3-1/datasets/CL/variables/CLENDY", "title": "Study Day of End of Observation", "type": "SDTM Dataset Variable"}, "rootItem": {"href": "/mdr/root/sendig/datasets/CL/variables/CLENDY", "title": "Version-agnostic anchor resource for SENDIG variable CL.CLENDY", "type": "Root Data Element"}, "self": {"href": "/mdr/sendig/3-1-1/datasets/CL/variables/CLENDY", "title": "Study Day of End of Observation", "type": "SDTM Dataset Variable"}}, "core": "Perm", "description": "Study day of the end of observation, in integer days. Can be populated when CLDY represents the start day of a continuous evaluation interval. The algorithm for calculations must be relative to the sponsor-defined RFSTDTC variable in the Demographics (DM) domain.", "label": "Study Day of End of Observation", "name": "CLENDY", "ordinal": "29", "role": "Timing", "simpleDatatype": "Num"}, {"_links": {"modelClassVariable": {"href": "/mdr/sdtm/1-5/classes/GeneralObservations/variables/--NOMDY", "title": "Nominal Study Day for Tabulations", "type": "Class Variable"}, "parentDataset": {"href": "/mdr/sendig/3-1-1/datasets/CL", "title": "Clinical Observations", "type": "SDTM Dataset"}, "parentProduct": {"href": "/mdr/sendig/3-1-1", "title": "Standard for Exchange of Nonclinical Data Implementation Guide: Nonclinical Studies Version 3.1.1 (Final)", "type": "Implementation Guide"}, "priorVersion": {"href": "/mdr/sendig/3-1/datasets/CL/variables/CLNOMDY", "title": "Nominal Study Day for Tabulations", "type": "SDTM Dataset Variable"}, "rootItem": {"href": "/mdr/root/sendig/datasets/CL/variables/CLNOMDY", "title": "Version-agnostic anchor resource for SENDIG variable CL.CLNOMDY", "type": "Root Data Element"}, "self": {"href": "/mdr/sendig/3-1-1/datasets/CL/variables/CLNOMDY", "title": "Nominal Study Day for Tabulations", "type": "SDTM Dataset Variable"}}, "core": "Exp", "description": "Nominal study day used for grouping records for observations that may occur on different days into a single reported study day. Should be an integer.", "label": "Nominal Study Day for Tabulations", "name": "CLNOMDY", "ordinal": "30", "role": "Timing", "simpleDatatype": "Num"}, {"_links": {"modelClassVariable": {"href": "/mdr/sdtm/1-5/classes/GeneralObservations/variables/--NOMLBL", "title": "Label for Nominal Study Day", "type": "Class Variable"}, "parentDataset": {"href": "/mdr/sendig/3-1-1/datasets/CL", "title": "Clinical Observations", "type": "SDTM Dataset"}, "parentProduct": {"href": "/mdr/sendig/3-1-1", "title": "Standard for Exchange of Nonclinical Data Implementation Guide: Nonclinical Studies Version 3.1.1 (Final)", "type": "Implementation Guide"}, "priorVersion": {"href": "/mdr/sendig/3-1/datasets/CL/variables/CLNOMLBL", "title": "Label for Nominal Study Day", "type": "SDTM Dataset Variable"}, "rootItem": {"href": "/mdr/root/sendig/datasets/CL/variables/CLNOMLBL", "title": "Version-agnostic anchor resource for SENDIG variable CL.CLNOMLBL", "type": "Root Data Element"}, "self": {"href": "/mdr/sendig/3-1-1/datasets/CL/variables/CLNOMLBL", "title": "Label for Nominal Study Day", "type": "SDTM Dataset Variable"}}, "core": "Perm", "description": "A label for a given value of CLNOMDY as presented in the study report. Examples: \"Week 4,\" \"Day 28,\" \"Terminal Sac\".", "label": "Label for Nominal Study Day", "name": "CLNOMLBL", "ordinal": "31", "role": "Timing", "simpleDatatype": "Char"}, {"_links": {"modelClassVariable": {"href": "/mdr/sdtm/1-5/classes/GeneralObservations/variables/--TPT", "title": "Planned Time Point Name", "type": "Class Variable"}, "parentDataset": {"href": "/mdr/sendig/3-1-1/datasets/CL", "title": "Clinical Observations", "type": "SDTM Dataset"}, "parentProduct": {"href": "/mdr/sendig/3-1-1", "title": "Standard for Exchange of Nonclinical Data Implementation Guide: Nonclinical Studies Version 3.1.1 (Final)", "type": "Implementation Guide"}, "priorVersion": {"href": "/mdr/sendig/3-1/datasets/CL/variables/CLTPT", "title": "Planned Time Point Name", "type": "SDTM Dataset Variable"}, "rootItem": {"href": "/mdr/root/sendig/datasets/CL/variables/CLTPT", "title": "Version-agnostic anchor resource for SENDIG variable CL.CLTPT", "type": "Root Data Element"}, "self": {"href": "/mdr/sendig/3-1-1/datasets/CL/variables/CLTPT", "title": "Planned Time Point Name", "type": "SDTM Dataset Variable"}}, "core": "Perm", "description": "Text description of time when an observation should be taken, as defined in the protocol. This may be represented as an elapsed time relative to a fixed reference point, such as time postdose.", "label": "Planned Time Point Name", "name": "CLTPT", "ordinal": "32", "role": "Timing", "simpleDatatype": "Char"}, {"_links": {"modelClassVariable": {"href": "/mdr/sdtm/1-5/classes/GeneralObservations/variables/--TPTNUM", "title": "Planned Time Point Number", "type": "Class Variable"}, "parentDataset": {"href": "/mdr/sendig/3-1-1/datasets/CL", "title": "Clinical Observations", "type": "SDTM Dataset"}, "parentProduct": {"href": "/mdr/sendig/3-1-1", "title": "Standard for Exchange of Nonclinical Data Implementation Guide: Nonclinical Studies Version 3.1.1 (Final)", "type": "Implementation Guide"}, "priorVersion": {"href": "/mdr/sendig/3-1/datasets/CL/variables/CLTPTNUM", "title": "Planned Time Point Number", "type": "SDTM Dataset Variable"}, "rootItem": {"href": "/mdr/root/sendig/datasets/CL/variables/CLTPTNUM", "title": "Version-agnostic anchor resource for SENDIG variable CL.CLTPTNUM", "type": "Root Data Element"}, "self": {"href": "/mdr/sendig/3-1-1/datasets/CL/variables/CLTPTNUM", "title": "Planned Time Point Number", "type": "SDTM Dataset Variable"}}, "core": "Perm", "description": "Numerical version of CLTPT to aid in sorting.", "label": "Planned Time Point Number", "name": "CLTPTNUM", "ordinal": "33", "role": "Timing", "simpleDatatype": "Num"}, {"_links": {"modelClassVariable": {"href": "/mdr/sdtm/1-5/classes/GeneralObservations/variables/--ELTM", "title": "Planned Elapsed Time from Time Point Ref", "type": "Class Variable"}, "parentDataset": {"href": "/mdr/sendig/3-1-1/datasets/CL", "title": "Clinical Observations", "type": "SDTM Dataset"}, "parentProduct": {"href": "/mdr/sendig/3-1-1", "title": "Standard for Exchange of Nonclinical Data Implementation Guide: Nonclinical Studies Version 3.1.1 (Final)", "type": "Implementation Guide"}, "priorVersion": {"href": "/mdr/sendig/3-1/datasets/CL/variables/CLELTM", "title": "Planned Elapsed Time from Time Point Ref", "type": "SDTM Dataset Variable"}, "rootItem": {"href": "/mdr/root/sendig/datasets/CL/variables/CLELTM", "title": "Version-agnostic anchor resource for SENDIG variable CL.CLELTM", "type": "Root Data Element"}, "self": {"href": "/mdr/sendig/3-1-1/datasets/CL/variables/CLELTM", "title": "Planned Elapsed Time from Time Point Ref", "type": "SDTM Dataset Variable"}}, "core": "Perm", "describedValueDomain": "ISO 8601", "description": "Planned Elapsed time (in ISO 8601 format) relative to a planned reference (CLTPTREF). This variable is useful where there are repetitive measures. Not a clock time or a date time variable. Represented as an ISO 8601 duration. Examples: \"- PT15M\" to represent the period of 15 minutes prior to the reference point indicated by CLTPTREF, or \"PT8H\" to represent the period of 8 hours after the reference point indicated by CLTPTREF.", "label": "Planned Elapsed Time from Time Point Ref", "name": "CLELTM", "ordinal": "34", "role": "Timing", "simpleDatatype": "Char"}, {"_links": {"modelClassVariable": {"href": "/mdr/sdtm/1-5/classes/GeneralObservations/variables/--TPTREF", "title": "Time Point Reference", "type": "Class Variable"}, "parentDataset": {"href": "/mdr/sendig/3-1-1/datasets/CL", "title": "Clinical Observations", "type": "SDTM Dataset"}, "parentProduct": {"href": "/mdr/sendig/3-1-1", "title": "Standard for Exchange of Nonclinical Data Implementation Guide: Nonclinical Studies Version 3.1.1 (Final)", "type": "Implementation Guide"}, "priorVersion": {"href": "/mdr/sendig/3-1/datasets/CL/variables/CLTPTREF", "title": "Time Point Reference", "type": "SDTM Dataset Variable"}, "rootItem": {"href": "/mdr/root/sendig/datasets/CL/variables/CLTPTREF", "title": "Version-agnostic anchor resource for SENDIG variable CL.CLTPTREF", "type": "Root Data Element"}, "self": {"href": "/mdr/sendig/3-1-1/datasets/CL/variables/CLTPTREF", "title": "Time Point Reference", "type": "SDTM Dataset Variable"}}, "core": "Perm", "description": "Name of the fixed reference point referred to by CLELTM, if used for CLTPTNUM, and CLTPT. It is recommended that CLTPTREF be as descriptive as possible, so the reference time point can be inferred without looking at other variables. Examples: PREVIOUS DOSE, PREVIOUS MEAL.", "label": "Time Point Reference", "name": "CLTPTREF", "ordinal": "35", "role": "Timing", "simpleDatatype": "Char"}, {"_links": {"modelClassVariable": {"href": "/mdr/sdtm/1-5/classes/GeneralObservations/variables/--RFTDTC", "title": "Date/Time of Reference Time Point", "type": "Class Variable"}, "parentDataset": {"href": "/mdr/sendig/3-1-1/datasets/CL", "title": "Clinical Observations", "type": "SDTM Dataset"}, "parentProduct": {"href": "/mdr/sendig/3-1-1", "title": "Standard for Exchange of Nonclinical Data Implementation Guide: Nonclinical Studies Version 3.1.1 (Final)", "type": "Implementation Guide"}, "priorVersion": {"href": "/mdr/sendig/3-1/datasets/CL/variables/CLRFTDTC", "title": "Date/Time of Reference Time Point", "type": "SDTM Dataset Variable"}, "rootItem": {"href": "/mdr/root/sendig/datasets/CL/variables/CLRFTDTC", "title": "Version-agnostic anchor resource for SENDIG variable CL.CLRFTDTC", "type": "Root Data Element"}, "self": {"href": "/mdr/sendig/3-1-1/datasets/CL/variables/CLRFTDTC", "title": "Date/Time of Reference Time Point", "type": "SDTM Dataset Variable"}}, "core": "Perm", "describedValueDomain": "ISO 8601", "description": "Date/Time of the reference time point, CLTPTREF.", "label": "Date/Time of Reference Time Point", "name": "CLRFTDTC", "ordinal": "36", "role": "Timing", "simpleDatatype": "Char"}], "description": "This domain captures clinical sign information including ophthalmology, physical examination, and dermal examination collected in life while executing the study. (Source: CDISC Controlled Terminology, SDOMAIN, C95086, 2018-06-29)", "label": "Clinical Observations", "name": "CL", "ordinal": "8"}
