{"_links": {"modelDataset": {"href": "/mdr/sdtm/1-5/datasets/CO", "title": "Comments", "type": "SDTM Dataset"}, "parentClass": {"href": "/mdr/sendig/3-1-1/classes/SpecialPurpose", "title": "Special-Purpose Datasets", "type": "Class"}, "parentProduct": {"href": "/mdr/sendig/3-1-1", "title": "Standard for Exchange of Nonclinical Data Implementation Guide: Nonclinical Studies Version 3.1.1 (Final)", "type": "Implementation Guide"}, "priorVersion": {"href": "/mdr/sendig/3-1/datasets/CO", "title": "Comments", "type": "SDTM Dataset"}, "self": {"href": "/mdr/sendig/3-1-1/datasets/CO", "title": "Comments", "type": "SDTM Dataset"}}, "datasetStructure": "One record per comment", "datasetVariables": [{"_links": {"modelDatasetVariable": {"href": "/mdr/sdtm/1-5/datasets/CO/variables/STUDYID", "title": "Study Identifier", "type": "SDTM Dataset Variable"}, "parentDataset": {"href": "/mdr/sendig/3-1-1/datasets/CO", "title": "Comments", "type": "SDTM Dataset"}, "parentProduct": {"href": "/mdr/sendig/3-1-1", "title": "Standard for Exchange of Nonclinical Data Implementation Guide: Nonclinical Studies Version 3.1.1 (Final)", "type": "Implementation Guide"}, "priorVersion": {"href": "/mdr/sendig/3-1/datasets/CO/variables/STUDYID", "title": "Study Identifier", "type": "SDTM Dataset Variable"}, "rootItem": {"href": "/mdr/root/sendig/datasets/CO/variables/STUDYID", "title": "Version-agnostic anchor resource for SENDIG variable CO.STUDYID", "type": "Root Data Element"}, "self": {"href": "/mdr/sendig/3-1-1/datasets/CO/variables/STUDYID", "title": "Study Identifier", "type": "SDTM Dataset Variable"}}, "core": "Req", "description": "Unique identifier for a study.", "label": "Study Identifier", "name": "STUDYID", "ordinal": "1", "role": "Identifier", "simpleDatatype": "Char"}, {"_links": {"modelDatasetVariable": {"href": "/mdr/sdtm/1-5/datasets/CO/variables/DOMAIN", "title": "Domain Abbreviation", "type": "SDTM Dataset Variable"}, "parentDataset": {"href": "/mdr/sendig/3-1-1/datasets/CO", "title": "Comments", "type": "SDTM Dataset"}, "parentProduct": {"href": "/mdr/sendig/3-1-1", "title": "Standard for Exchange of Nonclinical Data Implementation Guide: Nonclinical Studies Version 3.1.1 (Final)", "type": "Implementation Guide"}, "priorVersion": {"href": "/mdr/sendig/3-1/datasets/CO/variables/DOMAIN", "title": "Domain Abbreviation", "type": "SDTM Dataset Variable"}, "rootItem": {"href": "/mdr/root/sendig/datasets/CO/variables/DOMAIN", "title": "Version-agnostic anchor resource for SENDIG variable CO.DOMAIN", "type": "Root Data Element"}, "self": {"href": "/mdr/sendig/3-1-1/datasets/CO/variables/DOMAIN", "title": "Domain Abbreviation", "type": "SDTM Dataset Variable"}}, "core": "Req", "description": "Two-character abbreviation for the domain.", "label": "Domain Abbreviation", "name": "DOMAIN", "ordinal": "2", "role": "Identifier", "simpleDatatype": "Char", "valueList": ["CO"]}, {"_links": {"modelDatasetVariable": {"href": "/mdr/sdtm/1-5/datasets/CO/variables/RDOMAIN", "title": "Related Domain Abbreviation", "type": "SDTM Dataset Variable"}, "parentDataset": {"href": "/mdr/sendig/3-1-1/datasets/CO", "title": "Comments", "type": "SDTM Dataset"}, "parentProduct": {"href": "/mdr/sendig/3-1-1", "title": "Standard for Exchange of Nonclinical Data Implementation Guide: Nonclinical Studies Version 3.1.1 (Final)", "type": "Implementation Guide"}, "priorVersion": {"href": "/mdr/sendig/3-1/datasets/CO/variables/RDOMAIN", "title": "Related Domain Abbreviation", "type": "SDTM Dataset Variable"}, "rootItem": {"href": "/mdr/root/sendig/datasets/CO/variables/RDOMAIN", "title": "Version-agnostic anchor resource for SENDIG variable CO.RDOMAIN", "type": "Root Data Element"}, "self": {"href": "/mdr/sendig/3-1-1/datasets/CO/variables/RDOMAIN", "title": "Related Domain Abbreviation", "type": "SDTM Dataset Variable"}}, "core": "Exp", "description": "Domain abbreviation of the parent record(s). Null for comments collected as a general comment or additional information.", "label": "Related Domain Abbreviation", "name": "RDOMAIN", "ordinal": "3", "role": "Record Qualifier", "simpleDatatype": "Char"}, {"_links": {"modelDatasetVariable": {"href": "/mdr/sdtm/1-5/datasets/CO/variables/USUBJID", "title": "Unique Subject Identifier", "type": "SDTM Dataset Variable"}, "parentDataset": {"href": "/mdr/sendig/3-1-1/datasets/CO", "title": "Comments", "type": "SDTM Dataset"}, "parentProduct": {"href": "/mdr/sendig/3-1-1", "title": "Standard for Exchange of Nonclinical Data Implementation Guide: Nonclinical Studies Version 3.1.1 (Final)", "type": "Implementation Guide"}, "priorVersion": {"href": "/mdr/sendig/3-1/datasets/CO/variables/USUBJID", "title": "Unique Subject Identifier", "type": "SDTM Dataset Variable"}, "rootItem": {"href": "/mdr/root/sendig/datasets/CO/variables/USUBJID", "title": "Version-agnostic anchor resource for SENDIG variable CO.USUBJID", "type": "Root Data Element"}, "self": {"href": "/mdr/sendig/3-1-1/datasets/CO/variables/USUBJID", "title": "Unique Subject Identifier", "type": "SDTM Dataset Variable"}}, "core": "Exp", "description": "Identifier used to uniquely identify a subject across all studies for all applications or submissions involving the product. Either USUBJID or POOLID must be populated unless the record contains a study comment unrelated to a USUBJID or POOLID.", "label": "Unique Subject Identifier", "name": "USUBJID", "ordinal": "4", "role": "Identifier", "simpleDatatype": "Char"}, {"_links": {"modelDatasetVariable": {"href": "/mdr/sdtm/1-5/datasets/CO/variables/POOLID", "title": "Pool Identifier", "type": "SDTM Dataset Variable"}, "parentDataset": {"href": "/mdr/sendig/3-1-1/datasets/CO", "title": "Comments", "type": "SDTM Dataset"}, "parentProduct": {"href": "/mdr/sendig/3-1-1", "title": "Standard for Exchange of Nonclinical Data Implementation Guide: Nonclinical Studies Version 3.1.1 (Final)", "type": "Implementation Guide"}, "priorVersion": {"href": "/mdr/sendig/3-1/datasets/CO/variables/POOLID", "title": "Pool Identifier", "type": "SDTM Dataset Variable"}, "rootItem": {"href": "/mdr/root/sendig/datasets/CO/variables/POOLID", "title": "Version-agnostic anchor resource for SENDIG variable CO.POOLID", "type": "Root Data Element"}, "self": {"href": "/mdr/sendig/3-1-1/datasets/CO/variables/POOLID", "title": "Pool Identifier", "type": "SDTM Dataset Variable"}}, "core": "Perm", "description": "Identifier used for pooled subjects to assign a single result to multiple subjects. Either USUBJID or POOLID must be populated unless the record contains a study comment unrelated to a USUBJID or POOLID.", "label": "Pool Identifier", "name": "POOLID", "ordinal": "5", "role": "Identifier", "simpleDatatype": "Char"}, {"_links": {"modelDatasetVariable": {"href": "/mdr/sdtm/1-5/datasets/CO/variables/COSEQ", "title": "Sequence Number", "type": "SDTM Dataset Variable"}, "parentDataset": {"href": "/mdr/sendig/3-1-1/datasets/CO", "title": "Comments", "type": "SDTM Dataset"}, "parentProduct": {"href": "/mdr/sendig/3-1-1", "title": "Standard for Exchange of Nonclinical Data Implementation Guide: Nonclinical Studies Version 3.1.1 (Final)", "type": "Implementation Guide"}, "priorVersion": {"href": "/mdr/sendig/3-1/datasets/CO/variables/COSEQ", "title": "Sequence Number", "type": "SDTM Dataset Variable"}, "rootItem": {"href": "/mdr/root/sendig/datasets/CO/variables/COSEQ", "title": "Version-agnostic anchor resource for SENDIG variable CO.COSEQ", "type": "Root Data Element"}, "self": {"href": "/mdr/sendig/3-1-1/datasets/CO/variables/COSEQ", "title": "Sequence Number", "type": "SDTM Dataset Variable"}}, "core": "Req", "description": "The sequence number must be unique for each record within a USUBJID or POOLID, whichever applies for the record.", "label": "Sequence Number", "name": "COSEQ", "ordinal": "6", "role": "Identifier", "simpleDatatype": "Num"}, {"_links": {"modelDatasetVariable": {"href": "/mdr/sdtm/1-5/datasets/CO/variables/IDVAR", "title": "Identifying Variable", "type": "SDTM Dataset Variable"}, "parentDataset": {"href": "/mdr/sendig/3-1-1/datasets/CO", "title": "Comments", "type": "SDTM Dataset"}, "parentProduct": {"href": "/mdr/sendig/3-1-1", "title": "Standard for Exchange of Nonclinical Data Implementation Guide: Nonclinical Studies Version 3.1.1 (Final)", "type": "Implementation Guide"}, "priorVersion": {"href": "/mdr/sendig/3-1/datasets/CO/variables/IDVAR", "title": "Identifying Variable", "type": "SDTM Dataset Variable"}, "rootItem": {"href": "/mdr/root/sendig/datasets/CO/variables/IDVAR", "title": "Version-agnostic anchor resource for SENDIG variable CO.IDVAR", "type": "Root Data Element"}, "self": {"href": "/mdr/sendig/3-1-1/datasets/CO/variables/IDVAR", "title": "Identifying Variable", "type": "SDTM Dataset Variable"}}, "core": "Exp", "description": "Variable in the parent dataset that identifies the record(s) to which the comment applies, which is contained in IDVAR. Examples: BWSEQ or CLGRPID. Used only when individual comments are related to domain records.", "label": "Identifying Variable", "name": "IDVAR", "ordinal": "7", "role": "Record Qualifier", "simpleDatatype": "Char"}, {"_links": {"modelDatasetVariable": {"href": "/mdr/sdtm/1-5/datasets/CO/variables/IDVARVAL", "title": "Identifying Variable Value", "type": "SDTM Dataset Variable"}, "parentDataset": {"href": "/mdr/sendig/3-1-1/datasets/CO", "title": "Comments", "type": "SDTM Dataset"}, "parentProduct": {"href": "/mdr/sendig/3-1-1", "title": "Standard for Exchange of Nonclinical Data Implementation Guide: Nonclinical Studies Version 3.1.1 (Final)", "type": "Implementation Guide"}, "priorVersion": {"href": "/mdr/sendig/3-1/datasets/CO/variables/IDVARVAL", "title": "Identifying Variable Value", "type": "SDTM Dataset Variable"}, "rootItem": {"href": "/mdr/root/sendig/datasets/CO/variables/IDVARVAL", "title": "Version-agnostic anchor resource for SENDIG variable CO.IDVARVAL", "type": "Root Data Element"}, "self": {"href": "/mdr/sendig/3-1-1/datasets/CO/variables/IDVARVAL", "title": "Identifying Variable Value", "type": "SDTM Dataset Variable"}}, "core": "Exp", "description": "Value of identifying variable of the parent record(s). Used only when individual comments are related to domain records. Cannot be populated if IDVAR is null.", "label": "Identifying Variable Value", "name": "IDVARVAL", "ordinal": "8", "role": "Record Qualifier", "simpleDatatype": "Char"}, {"_links": {"modelDatasetVariable": {"href": "/mdr/sdtm/1-5/datasets/CO/variables/COREF", "title": "Comment Reference", "type": "SDTM Dataset Variable"}, "parentDataset": {"href": "/mdr/sendig/3-1-1/datasets/CO", "title": "Comments", "type": "SDTM Dataset"}, "parentProduct": {"href": "/mdr/sendig/3-1-1", "title": "Standard for Exchange of Nonclinical Data Implementation Guide: Nonclinical Studies Version 3.1.1 (Final)", "type": "Implementation Guide"}, "priorVersion": {"href": "/mdr/sendig/3-1/datasets/CO/variables/COREF", "title": "Comment Reference", "type": "SDTM Dataset Variable"}, "rootItem": {"href": "/mdr/root/sendig/datasets/CO/variables/COREF", "title": "Version-agnostic anchor resource for SENDIG variable CO.COREF", "type": "Root Data Element"}, "self": {"href": "/mdr/sendig/3-1-1/datasets/CO/variables/COREF", "title": "Comment Reference", "type": "SDTM Dataset Variable"}}, "core": "Perm", "description": "Sponsor-defined reference associated with the comment. May be the logbook page number, name (e.g., Logbook), or a combination of information that identifies the reference (e.g., Logbook, page 650, Day 28, morning).", "label": "Comment Reference", "name": "COREF", "ordinal": "9", "role": "Record Qualifier", "simpleDatatype": "Char"}, {"_links": {"modelDatasetVariable": {"href": "/mdr/sdtm/1-5/datasets/CO/variables/COVAL", "title": "Comment", "type": "SDTM Dataset Variable"}, "parentDataset": {"href": "/mdr/sendig/3-1-1/datasets/CO", "title": "Comments", "type": "SDTM Dataset"}, "parentProduct": {"href": "/mdr/sendig/3-1-1", "title": "Standard for Exchange of Nonclinical Data Implementation Guide: Nonclinical Studies Version 3.1.1 (Final)", "type": "Implementation Guide"}, "priorVersion": {"href": "/mdr/sendig/3-1/datasets/CO/variables/COVAL", "title": "Comment", "type": "SDTM Dataset Variable"}, "rootItem": {"href": "/mdr/root/sendig/datasets/CO/variables/COVAL", "title": "Version-agnostic anchor resource for SENDIG variable CO.COVAL", "type": "Root Data Element"}, "self": {"href": "/mdr/sendig/3-1-1/datasets/CO/variables/COVAL", "title": "Comment", "type": "SDTM Dataset Variable"}}, "core": "Req", "description": "The text of the comment. Text over 200 characters can be added to additional columns COVAL1-COVALn. See Assumption 4 in Section 5.2.1.1.", "label": "Comment", "name": "COVAL", "ordinal": "10", "role": "Topic", "simpleDatatype": "Char"}, {"_links": {"modelDatasetVariable": {"href": "/mdr/sdtm/1-5/datasets/CO/variables/COEVAL", "title": "Evaluator", "type": "SDTM Dataset Variable"}, "parentDataset": {"href": "/mdr/sendig/3-1-1/datasets/CO", "title": "Comments", "type": "SDTM Dataset"}, "parentProduct": {"href": "/mdr/sendig/3-1-1", "title": "Standard for Exchange of Nonclinical Data Implementation Guide: Nonclinical Studies Version 3.1.1 (Final)", "type": "Implementation Guide"}, "priorVersion": {"href": "/mdr/sendig/3-1/datasets/CO/variables/COEVAL", "title": "Evaluator", "type": "SDTM Dataset Variable"}, "rootItem": {"href": "/mdr/root/sendig/datasets/CO/variables/COEVAL", "title": "Version-agnostic anchor resource for SENDIG variable CO.COEVAL", "type": "Root Data Element"}, "self": {"href": "/mdr/sendig/3-1-1/datasets/CO/variables/COEVAL", "title": "Evaluator", "type": "SDTM Dataset Variable"}}, "core": "Perm", "description": "Used to describe the originator of the comment. Examples: TECHNICIAN, STUDY DIRECTOR, VET.", "label": "Evaluator", "name": "COEVAL", "ordinal": "11", "role": "Record Qualifier", "simpleDatatype": "Char"}, {"_links": {"modelDatasetVariable": {"href": "/mdr/sdtm/1-5/datasets/CO/variables/CODTC", "title": "Date/Time of Comment", "type": "SDTM Dataset Variable"}, "parentDataset": {"href": "/mdr/sendig/3-1-1/datasets/CO", "title": "Comments", "type": "SDTM Dataset"}, "parentProduct": {"href": "/mdr/sendig/3-1-1", "title": "Standard for Exchange of Nonclinical Data Implementation Guide: Nonclinical Studies Version 3.1.1 (Final)", "type": "Implementation Guide"}, "priorVersion": {"href": "/mdr/sendig/3-1/datasets/CO/variables/CODTC", "title": "Date/Time of Comment", "type": "SDTM Dataset Variable"}, "rootItem": {"href": "/mdr/root/sendig/datasets/CO/variables/CODTC", "title": "Version-agnostic anchor resource for SENDIG variable CO.CODTC", "type": "Root Data Element"}, "self": {"href": "/mdr/sendig/3-1-1/datasets/CO/variables/CODTC", "title": "Date/Time of Comment", "type": "SDTM Dataset Variable"}}, "core": "Exp", "describedValueDomain": "ISO 8601", "description": "Date/Time of the comment, in ISO 8601 format. May be null if this is a child record of another domain or if the comment date was not collected. In all other cases, this represents the date/time of the comment in ISO 8601 format.", "label": "Date/Time of Comment", "name": "CODTC", "ordinal": "12", "role": "Timing", "simpleDatatype": "Char"}, {"_links": {"parentDataset": {"href": "/mdr/sendig/3-1-1/datasets/CO", "title": "Comments", "type": "SDTM Dataset"}, "parentProduct": {"href": "/mdr/sendig/3-1-1", "title": "Standard for Exchange of Nonclinical Data Implementation Guide: Nonclinical Studies Version 3.1.1 (Final)", "type": "Implementation Guide"}, "priorVersion": {"href": "/mdr/sendig/3-1/datasets/CO/variables/CODY", "title": "Study Day of Comment", "type": "SDTM Dataset Variable"}, "rootItem": {"href": "/mdr/root/sendig/datasets/CO/variables/CODY", "title": "Version-agnostic anchor resource for SENDIG variable CO.CODY", "type": "Root Data Element"}, "self": {"href": "/mdr/sendig/3-1-1/datasets/CO/variables/CODY", "title": "Study Day of Comment", "type": "SDTM Dataset Variable"}}, "core": "Perm", "description": "Study day of the comment, in integer days. May be null if this is a child record of another domain or if the comment date was not collected. The algorithm for calculations must be relative to the sponsor-defined RFSTDTC variable in the Demographics (DM) domain.", "label": "Study Day of Comment", "name": "CODY", "ordinal": "13", "role": "Timing", "simpleDatatype": "Num"}], "description": "A special-purpose domain that contains comments that may be collected alongside other data. (Source: CDISC Controlled Terminology, SDOMAIN, C49569, 2018-06-29)", "label": "Comments", "name": "CO", "ordinal": "2"}
