{"_links": {"parentClass": {"href": "/mdr/sendig/3-1-1/classes/Findings", "title": "Findings Observation Class", "type": "Class"}, "parentProduct": {"href": "/mdr/sendig/3-1-1", "title": "Standard for Exchange of Nonclinical Data Implementation Guide: Nonclinical Studies Version 3.1.1 (Final)", "type": "Implementation Guide"}, "priorVersion": {"href": "/mdr/sendig/3-1/datasets/PC", "title": "Pharmacokinetic Concentrations", "type": "SDTM Dataset"}, "self": {"href": "/mdr/sendig/3-1-1/datasets/PC", "title": "Pharmacokinetic Concentrations", "type": "SDTM Dataset"}}, "datasetStructure": "One record per test per specimen per observation time per subject or pool", "datasetVariables": [{"_links": {"modelClassVariable": {"href": "/mdr/sdtm/1-5/classes/GeneralObservations/variables/STUDYID", "title": "Study Identifier", "type": "Class Variable"}, "parentDataset": {"href": "/mdr/sendig/3-1-1/datasets/PC", "title": "Pharmacokinetic Concentrations", "type": "SDTM Dataset"}, "parentProduct": {"href": "/mdr/sendig/3-1-1", "title": "Standard for Exchange of Nonclinical Data Implementation Guide: Nonclinical Studies Version 3.1.1 (Final)", "type": "Implementation Guide"}, "priorVersion": {"href": "/mdr/sendig/3-1/datasets/PC/variables/STUDYID", "title": "Study Identifier", "type": "SDTM Dataset Variable"}, "rootItem": {"href": "/mdr/root/sendig/datasets/PC/variables/STUDYID", "title": "Version-agnostic anchor resource for SENDIG variable PC.STUDYID", "type": "Root Data Element"}, "self": {"href": "/mdr/sendig/3-1-1/datasets/PC/variables/STUDYID", "title": "Study Identifier", "type": "SDTM Dataset Variable"}}, "core": "Req", "description": "Unique identifier for a study.", "label": "Study Identifier", "name": "STUDYID", "ordinal": "1", "role": "Identifier", "simpleDatatype": "Char"}, {"_links": {"modelClassVariable": {"href": "/mdr/sdtm/1-5/classes/GeneralObservations/variables/DOMAIN", "title": "Domain Abbreviation", "type": "Class Variable"}, "parentDataset": {"href": "/mdr/sendig/3-1-1/datasets/PC", "title": "Pharmacokinetic Concentrations", "type": "SDTM Dataset"}, "parentProduct": {"href": "/mdr/sendig/3-1-1", "title": "Standard for Exchange of Nonclinical Data Implementation Guide: Nonclinical Studies Version 3.1.1 (Final)", "type": "Implementation Guide"}, "priorVersion": {"href": "/mdr/sendig/3-1/datasets/PC/variables/DOMAIN", "title": "Domain Abbreviation", "type": "SDTM Dataset Variable"}, "rootItem": {"href": "/mdr/root/sendig/datasets/PC/variables/DOMAIN", "title": "Version-agnostic anchor resource for SENDIG variable PC.DOMAIN", "type": "Root Data Element"}, "self": {"href": "/mdr/sendig/3-1-1/datasets/PC/variables/DOMAIN", "title": "Domain Abbreviation", "type": "SDTM Dataset Variable"}}, "core": "Req", "description": "Two-character abbreviation for the domain.", "label": "Domain Abbreviation", "name": "DOMAIN", "ordinal": "2", "role": "Identifier", "simpleDatatype": "Char", "valueList": ["PC"]}, {"_links": {"modelClassVariable": {"href": "/mdr/sdtm/1-5/classes/GeneralObservations/variables/USUBJID", "title": "Unique Subject Identifier", "type": "Class Variable"}, "parentDataset": {"href": "/mdr/sendig/3-1-1/datasets/PC", "title": "Pharmacokinetic Concentrations", "type": "SDTM Dataset"}, "parentProduct": {"href": "/mdr/sendig/3-1-1", "title": "Standard for Exchange of Nonclinical Data Implementation Guide: Nonclinical Studies Version 3.1.1 (Final)", "type": "Implementation Guide"}, "priorVersion": {"href": "/mdr/sendig/3-1/datasets/PC/variables/USUBJID", "title": "Unique Subject Identifier", "type": "SDTM Dataset Variable"}, "rootItem": {"href": "/mdr/root/sendig/datasets/PC/variables/USUBJID", "title": "Version-agnostic anchor resource for SENDIG variable PC.USUBJID", "type": "Root Data Element"}, "self": {"href": "/mdr/sendig/3-1-1/datasets/PC/variables/USUBJID", "title": "Unique Subject Identifier", "type": "SDTM Dataset Variable"}}, "core": "Exp", "description": "Identifier used to uniquely identify a subject across all studies for all applications or submissions involving the product. Either USUBJID or POOLID must be populated.", "label": "Unique Subject Identifier", "name": "USUBJID", "ordinal": "3", "role": "Identifier", "simpleDatatype": "Char"}, {"_links": {"modelClassVariable": {"href": "/mdr/sdtm/1-5/classes/GeneralObservations/variables/POOLID", "title": "Pool Identifier", "type": "Class Variable"}, "parentDataset": {"href": "/mdr/sendig/3-1-1/datasets/PC", "title": "Pharmacokinetic Concentrations", "type": "SDTM Dataset"}, "parentProduct": {"href": "/mdr/sendig/3-1-1", "title": "Standard for Exchange of Nonclinical Data Implementation Guide: Nonclinical Studies Version 3.1.1 (Final)", "type": "Implementation Guide"}, "priorVersion": {"href": "/mdr/sendig/3-1/datasets/PC/variables/POOLID", "title": "Pool Identifier", "type": "SDTM Dataset Variable"}, "rootItem": {"href": "/mdr/root/sendig/datasets/PC/variables/POOLID", "title": "Version-agnostic anchor resource for SENDIG variable PC.POOLID", "type": "Root Data Element"}, "self": {"href": "/mdr/sendig/3-1-1/datasets/PC/variables/POOLID", "title": "Pool Identifier", "type": "SDTM Dataset Variable"}}, "core": "Perm", "description": "Identifier used for pooling subjects to assign a single finding to multiple subjects. If POOLID is entered, POOLDEF records must exist for each subject and the USUBJID must be null. Either USUBJID or POOLID must be populated.", "label": "Pool Identifier", "name": "POOLID", "ordinal": "4", "role": "Identifier", "simpleDatatype": "Char"}, {"_links": {"modelClassVariable": {"href": "/mdr/sdtm/1-5/classes/GeneralObservations/variables/--SEQ", "title": "Sequence Number", "type": "Class Variable"}, "parentDataset": {"href": "/mdr/sendig/3-1-1/datasets/PC", "title": "Pharmacokinetic Concentrations", "type": "SDTM Dataset"}, "parentProduct": {"href": "/mdr/sendig/3-1-1", "title": "Standard for Exchange of Nonclinical Data Implementation Guide: Nonclinical Studies Version 3.1.1 (Final)", "type": "Implementation Guide"}, "priorVersion": {"href": "/mdr/sendig/3-1/datasets/PC/variables/PCSEQ", "title": "Sequence Number", "type": "SDTM Dataset Variable"}, "rootItem": {"href": "/mdr/root/sendig/datasets/PC/variables/PCSEQ", "title": "Version-agnostic anchor resource for SENDIG variable PC.PCSEQ", "type": "Root Data Element"}, "self": {"href": "/mdr/sendig/3-1-1/datasets/PC/variables/PCSEQ", "title": "Sequence Number", "type": "SDTM Dataset Variable"}}, "core": "Req", "description": "The sequence number must be unique for each record within a USUBJID or POOLID, whichever applies for the record.", "label": "Sequence Number", "name": "PCSEQ", "ordinal": "5", "role": "Identifier", "simpleDatatype": "Num"}, {"_links": {"modelClassVariable": {"href": "/mdr/sdtm/1-5/classes/GeneralObservations/variables/--GRPID", "title": "Group ID", "type": "Class Variable"}, "parentDataset": {"href": "/mdr/sendig/3-1-1/datasets/PC", "title": "Pharmacokinetic Concentrations", "type": "SDTM Dataset"}, "parentProduct": {"href": "/mdr/sendig/3-1-1", "title": "Standard for Exchange of Nonclinical Data Implementation Guide: Nonclinical Studies Version 3.1.1 (Final)", "type": "Implementation Guide"}, "priorVersion": {"href": "/mdr/sendig/3-1/datasets/PC/variables/PCGRPID", "title": "Group Identifier", "type": "SDTM Dataset Variable"}, "rootItem": {"href": "/mdr/root/sendig/datasets/PC/variables/PCGRPID", "title": "Version-agnostic anchor resource for SENDIG variable PC.PCGRPID", "type": "Root Data Element"}, "self": {"href": "/mdr/sendig/3-1-1/datasets/PC/variables/PCGRPID", "title": "Group Identifier", "type": "SDTM Dataset Variable"}}, "core": "Perm", "description": "Used to tie together a block of related records in a single domain for a subject or pool. This is not the treatment group number.", "label": "Group Identifier", "name": "PCGRPID", "ordinal": "6", "role": "Identifier", "simpleDatatype": "Char"}, {"_links": {"modelClassVariable": {"href": "/mdr/sdtm/1-5/classes/GeneralObservations/variables/--REFID", "title": "Reference ID", "type": "Class Variable"}, "parentDataset": {"href": "/mdr/sendig/3-1-1/datasets/PC", "title": "Pharmacokinetic Concentrations", "type": "SDTM Dataset"}, "parentProduct": {"href": "/mdr/sendig/3-1-1", "title": "Standard for Exchange of Nonclinical Data Implementation Guide: Nonclinical Studies Version 3.1.1 (Final)", "type": "Implementation Guide"}, "priorVersion": {"href": "/mdr/sendig/3-1/datasets/PC/variables/PCREFID", "title": "Sample Identifier", "type": "SDTM Dataset Variable"}, "rootItem": {"href": "/mdr/root/sendig/datasets/PC/variables/PCREFID", "title": "Version-agnostic anchor resource for SENDIG variable PC.PCREFID", "type": "Root Data Element"}, "self": {"href": "/mdr/sendig/3-1-1/datasets/PC/variables/PCREFID", "title": "Sample Identifier", "type": "SDTM Dataset Variable"}}, "core": "Perm", "description": "Internal or external specimen identifier. Example: 1009570101.", "label": "Sample Identifier", "name": "PCREFID", "ordinal": "7", "role": "Identifier", "simpleDatatype": "Char"}, {"_links": {"modelClassVariable": {"href": "/mdr/sdtm/1-5/classes/GeneralObservations/variables/--SPID", "title": "Sponsor-Defined Identifier", "type": "Class Variable"}, "parentDataset": {"href": "/mdr/sendig/3-1-1/datasets/PC", "title": "Pharmacokinetic Concentrations", "type": "SDTM Dataset"}, "parentProduct": {"href": "/mdr/sendig/3-1-1", "title": "Standard for Exchange of Nonclinical Data Implementation Guide: Nonclinical Studies Version 3.1.1 (Final)", "type": "Implementation Guide"}, "priorVersion": {"href": "/mdr/sendig/3-1/datasets/PC/variables/PCSPID", "title": "Sponsor-Defined Identifier", "type": "SDTM Dataset Variable"}, "rootItem": {"href": "/mdr/root/sendig/datasets/PC/variables/PCSPID", "title": "Version-agnostic anchor resource for SENDIG variable PC.PCSPID", "type": "Root Data Element"}, "self": {"href": "/mdr/sendig/3-1-1/datasets/PC/variables/PCSPID", "title": "Sponsor-Defined Identifier", "type": "SDTM Dataset Variable"}}, "core": "Perm", "description": "Sponsor-defined reference identifier.", "label": "Sponsor-Defined Identifier", "name": "PCSPID", "ordinal": "8", "role": "Identifier", "simpleDatatype": "Char"}, {"_links": {"modelClassVariable": {"href": "/mdr/sdtm/1-5/classes/Findings/variables/--TESTCD", "title": "Short Name of Measurement, Test or Examination", "type": "Class Variable"}, "parentDataset": {"href": "/mdr/sendig/3-1-1/datasets/PC", "title": "Pharmacokinetic Concentrations", "type": "SDTM Dataset"}, "parentProduct": {"href": "/mdr/sendig/3-1-1", "title": "Standard for Exchange of Nonclinical Data Implementation Guide: Nonclinical Studies Version 3.1.1 (Final)", "type": "Implementation Guide"}, "priorVersion": {"href": "/mdr/sendig/3-1/datasets/PC/variables/PCTESTCD", "title": "Test Short Name", "type": "SDTM Dataset Variable"}, "rootItem": {"href": "/mdr/root/sendig/datasets/PC/variables/PCTESTCD", "title": "Version-agnostic anchor resource for SENDIG variable PC.PCTESTCD", "type": "Root Data Element"}, "self": {"href": "/mdr/sendig/3-1-1/datasets/PC/variables/PCTESTCD", "title": "Test Short Name", "type": "SDTM Dataset Variable"}}, "core": "Req", "description": "Short name of the analyte (or measurement) described in PCTEST. It can be used as a column name when converting a dataset from a vertical to a horizontal format. The value in PCTESTCD cannot be longer than 8 characters, nor can it start with a number (e.g., \"1TEST\" is not valid). PCTESTCD cannot contain characters other than letters, numbers, or underscores.", "label": "Test Short Name", "name": "PCTESTCD", "ordinal": "9", "role": "Topic", "simpleDatatype": "Char"}, {"_links": {"modelClassVariable": {"href": "/mdr/sdtm/1-5/classes/Findings/variables/--TEST", "title": "Name of Measurement, Test or Examination", "type": "Class Variable"}, "parentDataset": {"href": "/mdr/sendig/3-1-1/datasets/PC", "title": "Pharmacokinetic Concentrations", "type": "SDTM Dataset"}, "parentProduct": {"href": "/mdr/sendig/3-1-1", "title": "Standard for Exchange of Nonclinical Data Implementation Guide: Nonclinical Studies Version 3.1.1 (Final)", "type": "Implementation Guide"}, "priorVersion": {"href": "/mdr/sendig/3-1/datasets/PC/variables/PCTEST", "title": "Test Name", "type": "SDTM Dataset Variable"}, "rootItem": {"href": "/mdr/root/sendig/datasets/PC/variables/PCTEST", "title": "Version-agnostic anchor resource for SENDIG variable PC.PCTEST", "type": "Root Data Element"}, "self": {"href": "/mdr/sendig/3-1-1/datasets/PC/variables/PCTEST", "title": "Test Name", "type": "SDTM Dataset Variable"}}, "core": "Req", "description": "Long name for PCTESTCD, such as the name of the analyte (or measurement). The value in PCTEST cannot be longer than 40 characters.", "label": "Test Name", "name": "PCTEST", "ordinal": "10", "role": "Synonym Qualifier", "simpleDatatype": "Char"}, {"_links": {"modelClassVariable": {"href": "/mdr/sdtm/1-5/classes/Findings/variables/--CAT", "title": "Category", "type": "Class Variable"}, "parentDataset": {"href": "/mdr/sendig/3-1-1/datasets/PC", "title": "Pharmacokinetic Concentrations", "type": "SDTM Dataset"}, "parentProduct": {"href": "/mdr/sendig/3-1-1", "title": "Standard for Exchange of Nonclinical Data Implementation Guide: Nonclinical Studies Version 3.1.1 (Final)", "type": "Implementation Guide"}, "priorVersion": {"href": "/mdr/sendig/3-1/datasets/PC/variables/PCCAT", "title": "Test Category", "type": "SDTM Dataset Variable"}, "rootItem": {"href": "/mdr/root/sendig/datasets/PC/variables/PCCAT", "title": "Version-agnostic anchor resource for SENDIG variable PC.PCCAT", "type": "Root Data Element"}, "self": {"href": "/mdr/sendig/3-1-1/datasets/PC/variables/PCCAT", "title": "Test Category", "type": "SDTM Dataset Variable"}}, "core": "Perm", "description": "Used to define a category of the pharmacokinetic test performed. Examples: ANALYTE, METABOLITE, SPECIMEN PROPERTY.", "label": "Test Category", "name": "PCCAT", "ordinal": "11", "role": "Grouping Qualifier", "simpleDatatype": "Char"}, {"_links": {"modelClassVariable": {"href": "/mdr/sdtm/1-5/classes/Findings/variables/--SCAT", "title": "Subcategory", "type": "Class Variable"}, "parentDataset": {"href": "/mdr/sendig/3-1-1/datasets/PC", "title": "Pharmacokinetic Concentrations", "type": "SDTM Dataset"}, "parentProduct": {"href": "/mdr/sendig/3-1-1", "title": "Standard for Exchange of Nonclinical Data Implementation Guide: Nonclinical Studies Version 3.1.1 (Final)", "type": "Implementation Guide"}, "priorVersion": {"href": "/mdr/sendig/3-1/datasets/PC/variables/PCSCAT", "title": "Test Subcategory", "type": "SDTM Dataset Variable"}, "rootItem": {"href": "/mdr/root/sendig/datasets/PC/variables/PCSCAT", "title": "Version-agnostic anchor resource for SENDIG variable PC.PCSCAT", "type": "Root Data Element"}, "self": {"href": "/mdr/sendig/3-1-1/datasets/PC/variables/PCSCAT", "title": "Test Subcategory", "type": "SDTM Dataset Variable"}}, "core": "Perm", "description": "A further categorization of a test category.", "label": "Test Subcategory", "name": "PCSCAT", "ordinal": "12", "role": "Grouping Qualifier", "simpleDatatype": "Char"}, {"_links": {"modelClassVariable": {"href": "/mdr/sdtm/1-5/classes/Findings/variables/--ORRES", "title": "Result or Finding in Original Units", "type": "Class Variable"}, "parentDataset": {"href": "/mdr/sendig/3-1-1/datasets/PC", "title": "Pharmacokinetic Concentrations", "type": "SDTM Dataset"}, "parentProduct": {"href": "/mdr/sendig/3-1-1", "title": "Standard for Exchange of Nonclinical Data Implementation Guide: Nonclinical Studies Version 3.1.1 (Final)", "type": "Implementation Guide"}, "priorVersion": {"href": "/mdr/sendig/3-1/datasets/PC/variables/PCORRES", "title": "Result or Findings as Collected", "type": "SDTM Dataset Variable"}, "rootItem": {"href": "/mdr/root/sendig/datasets/PC/variables/PCORRES", "title": "Version-agnostic anchor resource for SENDIG variable PC.PCORRES", "type": "Root Data Element"}, "self": {"href": "/mdr/sendig/3-1-1/datasets/PC/variables/PCORRES", "title": "Result or Findings as Collected", "type": "SDTM Dataset Variable"}}, "core": "Exp", "description": "Result of the measurement or finding as originally received or collected.", "label": "Result or Findings as Collected", "name": "PCORRES", "ordinal": "13", "role": "Result Qualifier", "simpleDatatype": "Char"}, {"_links": {"codelist": [{"href": "/mdr/root/ct/sendct/codelists/C85494", "title": "Version-agnostic anchor resource for codelist C85494", "type": "Root Value Domain"}], "modelClassVariable": {"href": "/mdr/sdtm/1-5/classes/Findings/variables/--ORRESU", "title": "Original Units", "type": "Class Variable"}, "parentDataset": {"href": "/mdr/sendig/3-1-1/datasets/PC", "title": "Pharmacokinetic Concentrations", "type": "SDTM Dataset"}, "parentProduct": {"href": "/mdr/sendig/3-1-1", "title": "Standard for Exchange of Nonclinical Data Implementation Guide: Nonclinical Studies Version 3.1.1 (Final)", "type": "Implementation Guide"}, "priorVersion": {"href": "/mdr/sendig/3-1/datasets/PC/variables/PCORRESU", "title": "Unit of the Original Result", "type": "SDTM Dataset Variable"}, "rootItem": {"href": "/mdr/root/sendig/datasets/PC/variables/PCORRESU", "title": "Version-agnostic anchor resource for SENDIG variable PC.PCORRESU", "type": "Root Data Element"}, "self": {"href": "/mdr/sendig/3-1-1/datasets/PC/variables/PCORRESU", "title": "Unit of the Original Result", "type": "SDTM Dataset Variable"}}, "core": "Exp", "description": "The unit for the original result. The unit of the original result should be mapped to a synonymous unit on the Controlled Terminology (http://www.cdisc.org/terminology) list.", "label": "Unit of the Original Result", "name": "PCORRESU", "ordinal": "14", "role": "Variable Qualifier", "simpleDatatype": "Char"}, {"_links": {"modelClassVariable": {"href": "/mdr/sdtm/1-5/classes/Findings/variables/--STRESC", "title": "Result or Finding in Standard Format", "type": "Class Variable"}, "parentDataset": {"href": "/mdr/sendig/3-1-1/datasets/PC", "title": "Pharmacokinetic Concentrations", "type": "SDTM Dataset"}, "parentProduct": {"href": "/mdr/sendig/3-1-1", "title": "Standard for Exchange of Nonclinical Data Implementation Guide: Nonclinical Studies Version 3.1.1 (Final)", "type": "Implementation Guide"}, "priorVersion": {"href": "/mdr/sendig/3-1/datasets/PC/variables/PCSTRESC", "title": "Standardized Result in Character Format", "type": "SDTM Dataset Variable"}, "rootItem": {"href": "/mdr/root/sendig/datasets/PC/variables/PCSTRESC", "title": "Version-agnostic anchor resource for SENDIG variable PC.PCSTRESC", "type": "Root Data Element"}, "self": {"href": "/mdr/sendig/3-1-1/datasets/PC/variables/PCSTRESC", "title": "Standardized Result in Character Format", "type": "SDTM Dataset Variable"}}, "core": "Exp", "description": "Contains the result value for all findings, copied or derived from PCORRES in a standard format or standard units. PCSTRESC should store all results or findings in character format; if results are numeric, they should also be submitted in numeric format in PCSTRESN. Results beyond limits of quantitation should be represented with the term \"BLQ\" for results below the limit and \"ALQ\" for results above the limit.", "label": "Standardized Result in Character Format", "name": "PCSTRESC", "ordinal": "15", "role": "Result Qualifier", "simpleDatatype": "Char"}, {"_links": {"modelClassVariable": {"href": "/mdr/sdtm/1-5/classes/Findings/variables/--STRESN", "title": "Numeric Result/Finding in Standard Units", "type": "Class Variable"}, "parentDataset": {"href": "/mdr/sendig/3-1-1/datasets/PC", "title": "Pharmacokinetic Concentrations", "type": "SDTM Dataset"}, "parentProduct": {"href": "/mdr/sendig/3-1-1", "title": "Standard for Exchange of Nonclinical Data Implementation Guide: Nonclinical Studies Version 3.1.1 (Final)", "type": "Implementation Guide"}, "priorVersion": {"href": "/mdr/sendig/3-1/datasets/PC/variables/PCSTRESN", "title": "Standardized Result in Numeric Format", "type": "SDTM Dataset Variable"}, "rootItem": {"href": "/mdr/root/sendig/datasets/PC/variables/PCSTRESN", "title": "Version-agnostic anchor resource for SENDIG variable PC.PCSTRESN", "type": "Root Data Element"}, "self": {"href": "/mdr/sendig/3-1-1/datasets/PC/variables/PCSTRESN", "title": "Standardized Result in Numeric Format", "type": "SDTM Dataset Variable"}}, "core": "Exp", "description": "Used for numeric results or findings in standard format; contains the numeric form of PCSTRESC. PCSTRESN should store all numeric test results or findings. For results beyond limits of quantitation, this variable should be left null (e.g., if PCSTRESC is \"BLQ\", PCSTRESN would be null).", "label": "Standardized Result in Numeric Format", "name": "PCSTRESN", "ordinal": "16", "role": "Result Qualifier", "simpleDatatype": "Num"}, {"_links": {"codelist": [{"href": "/mdr/root/ct/sendct/codelists/C85494", "title": "Version-agnostic anchor resource for codelist C85494", "type": "Root Value Domain"}], "modelClassVariable": {"href": "/mdr/sdtm/1-5/classes/Findings/variables/--STRESU", "title": "Standard Units", "type": "Class Variable"}, "parentDataset": {"href": "/mdr/sendig/3-1-1/datasets/PC", "title": "Pharmacokinetic Concentrations", "type": "SDTM Dataset"}, "parentProduct": {"href": "/mdr/sendig/3-1-1", "title": "Standard for Exchange of Nonclinical Data Implementation Guide: Nonclinical Studies Version 3.1.1 (Final)", "type": "Implementation Guide"}, "priorVersion": {"href": "/mdr/sendig/3-1/datasets/PC/variables/PCSTRESU", "title": "Unit of the Standardized Result", "type": "SDTM Dataset Variable"}, "rootItem": {"href": "/mdr/root/sendig/datasets/PC/variables/PCSTRESU", "title": "Version-agnostic anchor resource for SENDIG variable PC.PCSTRESU", "type": "Root Data Element"}, "self": {"href": "/mdr/sendig/3-1-1/datasets/PC/variables/PCSTRESU", "title": "Unit of the Standardized Result", "type": "SDTM Dataset Variable"}}, "core": "Exp", "description": "Standardized unit used for PCSTRESC and PCSTRESN.", "label": "Unit of the Standardized Result", "name": "PCSTRESU", "ordinal": "17", "role": "Variable Qualifier", "simpleDatatype": "Char"}, {"_links": {"codelist": [{"href": "/mdr/root/ct/sendct/codelists/C66789", "title": "Version-agnostic anchor resource for codelist C66789", "type": "Root Value Domain"}], "modelClassVariable": {"href": "/mdr/sdtm/1-5/classes/Findings/variables/--STAT", "title": "Completion Status", "type": "Class Variable"}, "parentDataset": {"href": "/mdr/sendig/3-1-1/datasets/PC", "title": "Pharmacokinetic Concentrations", "type": "SDTM Dataset"}, "parentProduct": {"href": "/mdr/sendig/3-1-1", "title": "Standard for Exchange of Nonclinical Data Implementation Guide: Nonclinical Studies Version 3.1.1 (Final)", "type": "Implementation Guide"}, "priorVersion": {"href": "/mdr/sendig/3-1/datasets/PC/variables/PCSTAT", "title": "Completion Status", "type": "SDTM Dataset Variable"}, "rootItem": {"href": "/mdr/root/sendig/datasets/PC/variables/PCSTAT", "title": "Version-agnostic anchor resource for SENDIG variable PC.PCSTAT", "type": "Root Data Element"}, "self": {"href": "/mdr/sendig/3-1-1/datasets/PC/variables/PCSTAT", "title": "Completion Status", "type": "SDTM Dataset Variable"}}, "core": "Perm", "description": "Used to indicate when a test is not done or result is missing. Should be null if a result exists in PCORRES.", "label": "Completion Status", "name": "PCSTAT", "ordinal": "18", "role": "Record Qualifier", "simpleDatatype": "Char"}, {"_links": {"modelClassVariable": {"href": "/mdr/sdtm/1-5/classes/Findings/variables/--REASND", "title": "Reason Not Done", "type": "Class Variable"}, "parentDataset": {"href": "/mdr/sendig/3-1-1/datasets/PC", "title": "Pharmacokinetic Concentrations", "type": "SDTM Dataset"}, "parentProduct": {"href": "/mdr/sendig/3-1-1", "title": "Standard for Exchange of Nonclinical Data Implementation Guide: Nonclinical Studies Version 3.1.1 (Final)", "type": "Implementation Guide"}, "priorVersion": {"href": "/mdr/sendig/3-1/datasets/PC/variables/PCREASND", "title": "Reason Not Done", "type": "SDTM Dataset Variable"}, "rootItem": {"href": "/mdr/root/sendig/datasets/PC/variables/PCREASND", "title": "Version-agnostic anchor resource for SENDIG variable PC.PCREASND", "type": "Root Data Element"}, "self": {"href": "/mdr/sendig/3-1-1/datasets/PC/variables/PCREASND", "title": "Reason Not Done", "type": "SDTM Dataset Variable"}}, "core": "Perm", "description": "Describes why PCSTAT is NOT DONE, such as SPECIMEN LOST.", "label": "Reason Not Done", "name": "PCREASND", "ordinal": "19", "role": "Record Qualifier", "simpleDatatype": "Char"}, {"_links": {"modelClassVariable": {"href": "/mdr/sdtm/1-5/classes/Findings/variables/--NAM", "title": "Laboratory/Vendor Name", "type": "Class Variable"}, "parentDataset": {"href": "/mdr/sendig/3-1-1/datasets/PC", "title": "Pharmacokinetic Concentrations", "type": "SDTM Dataset"}, "parentProduct": {"href": "/mdr/sendig/3-1-1", "title": "Standard for Exchange of Nonclinical Data Implementation Guide: Nonclinical Studies Version 3.1.1 (Final)", "type": "Implementation Guide"}, "priorVersion": {"href": "/mdr/sendig/3-1/datasets/PC/variables/PCNAM", "title": "Laboratory Name", "type": "SDTM Dataset Variable"}, "rootItem": {"href": "/mdr/root/sendig/datasets/PC/variables/PCNAM", "title": "Version-agnostic anchor resource for SENDIG variable PC.PCNAM", "type": "Root Data Element"}, "self": {"href": "/mdr/sendig/3-1-1/datasets/PC/variables/PCNAM", "title": "Laboratory Name", "type": "SDTM Dataset Variable"}}, "core": "Perm", "description": "Name or identifier of the laboratory or vendor providing the test results.", "label": "Laboratory Name", "name": "PCNAM", "ordinal": "20", "role": "Record Qualifier", "simpleDatatype": "Char"}, {"_links": {"codelist": [{"href": "/mdr/root/ct/sendct/codelists/C77529", "title": "Version-agnostic anchor resource for codelist C77529", "type": "Root Value Domain"}], "modelClassVariable": {"href": "/mdr/sdtm/1-5/classes/Findings/variables/--SPEC", "title": "Specimen Material Type", "type": "Class Variable"}, "parentDataset": {"href": "/mdr/sendig/3-1-1/datasets/PC", "title": "Pharmacokinetic Concentrations", "type": "SDTM Dataset"}, "parentProduct": {"href": "/mdr/sendig/3-1-1", "title": "Standard for Exchange of Nonclinical Data Implementation Guide: Nonclinical Studies Version 3.1.1 (Final)", "type": "Implementation Guide"}, "priorVersion": {"href": "/mdr/sendig/3-1/datasets/PC/variables/PCSPEC", "title": "Specimen Material Type", "type": "SDTM Dataset Variable"}, "rootItem": {"href": "/mdr/root/sendig/datasets/PC/variables/PCSPEC", "title": "Version-agnostic anchor resource for SENDIG variable PC.PCSPEC", "type": "Root Data Element"}, "self": {"href": "/mdr/sendig/3-1-1/datasets/PC/variables/PCSPEC", "title": "Specimen Material Type", "type": "SDTM Dataset Variable"}}, "core": "Req", "description": "Defines the type of specimen used for a measurement. Examples: SERUM, PLASMA, URINE.", "label": "Specimen Material Type", "name": "PCSPEC", "ordinal": "21", "role": "Record Qualifier", "simpleDatatype": "Char"}, {"_links": {"modelClassVariable": {"href": "/mdr/sdtm/1-5/classes/Findings/variables/--SPCCND", "title": "Specimen Condition", "type": "Class Variable"}, "parentDataset": {"href": "/mdr/sendig/3-1-1/datasets/PC", "title": "Pharmacokinetic Concentrations", "type": "SDTM Dataset"}, "parentProduct": {"href": "/mdr/sendig/3-1-1", "title": "Standard for Exchange of Nonclinical Data Implementation Guide: Nonclinical Studies Version 3.1.1 (Final)", "type": "Implementation Guide"}, "priorVersion": {"href": "/mdr/sendig/3-1/datasets/PC/variables/PCSPCCND", "title": "Specimen Condition", "type": "SDTM Dataset Variable"}, "rootItem": {"href": "/mdr/root/sendig/datasets/PC/variables/PCSPCCND", "title": "Version-agnostic anchor resource for SENDIG variable PC.PCSPCCND", "type": "Root Data Element"}, "self": {"href": "/mdr/sendig/3-1-1/datasets/PC/variables/PCSPCCND", "title": "Specimen Condition", "type": "SDTM Dataset Variable"}}, "core": "Perm", "description": "Free or standardized text describing the condition of the specimen. Examples: HEMOLYZED, ICTERIC, LIPEMIC.", "label": "Specimen Condition", "name": "PCSPCCND", "ordinal": "22", "role": "Record Qualifier", "simpleDatatype": "Char"}, {"_links": {"codelist": [{"href": "/mdr/root/ct/sendct/codelists/C66742", "title": "Version-agnostic anchor resource for codelist C66742", "type": "Root Value Domain"}], "modelClassVariable": {"href": "/mdr/sdtm/1-5/classes/Findings/variables/--SPCUFL", "title": "Specimen Usability for the Test", "type": "Class Variable"}, "parentDataset": {"href": "/mdr/sendig/3-1-1/datasets/PC", "title": "Pharmacokinetic Concentrations", "type": "SDTM Dataset"}, "parentProduct": {"href": "/mdr/sendig/3-1-1", "title": "Standard for Exchange of Nonclinical Data Implementation Guide: Nonclinical Studies Version 3.1.1 (Final)", "type": "Implementation Guide"}, "priorVersion": {"href": "/mdr/sendig/3-1/datasets/PC/variables/PCSPCUFL", "title": "Specimen Usability for the Test", "type": "SDTM Dataset Variable"}, "rootItem": {"href": "/mdr/root/sendig/datasets/PC/variables/PCSPCUFL", "title": "Version-agnostic anchor resource for SENDIG variable PC.PCSPCUFL", "type": "Root Data Element"}, "self": {"href": "/mdr/sendig/3-1-1/datasets/PC/variables/PCSPCUFL", "title": "Specimen Usability for the Test", "type": "SDTM Dataset Variable"}}, "core": "Perm", "description": "Describes the usability of the specimen for the test. Should be \"N\" if the specimen is not usable; otherwise it should be null.", "label": "Specimen Usability for the Test", "name": "PCSPCUFL", "ordinal": "23", "role": "Record Qualifier", "simpleDatatype": "Char"}, {"_links": {"modelClassVariable": {"href": "/mdr/sdtm/1-5/classes/Findings/variables/--METHOD", "title": "Method of Test or Examination", "type": "Class Variable"}, "parentDataset": {"href": "/mdr/sendig/3-1-1/datasets/PC", "title": "Pharmacokinetic Concentrations", "type": "SDTM Dataset"}, "parentProduct": {"href": "/mdr/sendig/3-1-1", "title": "Standard for Exchange of Nonclinical Data Implementation Guide: Nonclinical Studies Version 3.1.1 (Final)", "type": "Implementation Guide"}, "priorVersion": {"href": "/mdr/sendig/3-1/datasets/PC/variables/PCMETHOD", "title": "Method of Test or Examination", "type": "SDTM Dataset Variable"}, "rootItem": {"href": "/mdr/root/sendig/datasets/PC/variables/PCMETHOD", "title": "Version-agnostic anchor resource for SENDIG variable PC.PCMETHOD", "type": "Root Data Element"}, "self": {"href": "/mdr/sendig/3-1-1/datasets/PC/variables/PCMETHOD", "title": "Method of Test or Examination", "type": "SDTM Dataset Variable"}}, "core": "Perm", "description": "Method of the test or examination. Examples: HPLC/MS, ELISA. This should contain sufficient information and granularity to allow differentiation of various methods that might have been used within a study.", "label": "Method of Test or Examination", "name": "PCMETHOD", "ordinal": "24", "role": "Record Qualifier", "simpleDatatype": "Char"}, {"_links": {"codelist": [{"href": "/mdr/root/ct/sendct/codelists/C66742", "title": "Version-agnostic anchor resource for codelist C66742", "type": "Root Value Domain"}], "modelClassVariable": {"href": "/mdr/sdtm/1-5/classes/Findings/variables/--BLFL", "title": "Baseline Flag", "type": "Class Variable"}, "parentDataset": {"href": "/mdr/sendig/3-1-1/datasets/PC", "title": "Pharmacokinetic Concentrations", "type": "SDTM Dataset"}, "parentProduct": {"href": "/mdr/sendig/3-1-1", "title": "Standard for Exchange of Nonclinical Data Implementation Guide: Nonclinical Studies Version 3.1.1 (Final)", "type": "Implementation Guide"}, "priorVersion": {"href": "/mdr/sendig/3-1/datasets/PC/variables/PCBLFL", "title": "Baseline Flag", "type": "SDTM Dataset Variable"}, "rootItem": {"href": "/mdr/root/sendig/datasets/PC/variables/PCBLFL", "title": "Version-agnostic anchor resource for SENDIG variable PC.PCBLFL", "type": "Root Data Element"}, "self": {"href": "/mdr/sendig/3-1-1/datasets/PC/variables/PCBLFL", "title": "Baseline Flag", "type": "SDTM Dataset Variable"}}, "core": "Perm", "description": "A baseline indicator may be used to calculate differences or changes from baseline. Value should be \"Y\" or null. The baseline flag is sponsor-defined.", "label": "Baseline Flag", "name": "PCBLFL", "ordinal": "25", "role": "Record Qualifier", "simpleDatatype": "Char"}, {"_links": {"codelist": [{"href": "/mdr/root/ct/sendct/codelists/C66742", "title": "Version-agnostic anchor resource for codelist C66742", "type": "Root Value Domain"}], "modelClassVariable": {"href": "/mdr/sdtm/1-5/classes/Findings/variables/--FAST", "title": "Fasting Status", "type": "Class Variable"}, "parentDataset": {"href": "/mdr/sendig/3-1-1/datasets/PC", "title": "Pharmacokinetic Concentrations", "type": "SDTM Dataset"}, "parentProduct": {"href": "/mdr/sendig/3-1-1", "title": "Standard for Exchange of Nonclinical Data Implementation Guide: Nonclinical Studies Version 3.1.1 (Final)", "type": "Implementation Guide"}, "priorVersion": {"href": "/mdr/sendig/3-1/datasets/PC/variables/PCFAST", "title": "Fasting Status", "type": "SDTM Dataset Variable"}, "rootItem": {"href": "/mdr/root/sendig/datasets/PC/variables/PCFAST", "title": "Version-agnostic anchor resource for SENDIG variable PC.PCFAST", "type": "Root Data Element"}, "self": {"href": "/mdr/sendig/3-1-1/datasets/PC/variables/PCFAST", "title": "Fasting Status", "type": "SDTM Dataset Variable"}}, "core": "Perm", "description": "Indicator used to identify fasting status. The value should be \"Y\" or null.", "label": "Fasting Status", "name": "PCFAST", "ordinal": "26", "role": "Record Qualifier", "simpleDatatype": "Char"}, {"_links": {"codelist": [{"href": "/mdr/root/ct/sendct/codelists/C66742", "title": "Version-agnostic anchor resource for codelist C66742", "type": "Root Value Domain"}], "modelClassVariable": {"href": "/mdr/sdtm/1-5/classes/Findings/variables/--DRVFL", "title": "Derived Flag", "type": "Class Variable"}, "parentDataset": {"href": "/mdr/sendig/3-1-1/datasets/PC", "title": "Pharmacokinetic Concentrations", "type": "SDTM Dataset"}, "parentProduct": {"href": "/mdr/sendig/3-1-1", "title": "Standard for Exchange of Nonclinical Data Implementation Guide: Nonclinical Studies Version 3.1.1 (Final)", "type": "Implementation Guide"}, "priorVersion": {"href": "/mdr/sendig/3-1/datasets/PC/variables/PCDRVFL", "title": "Derived Flag", "type": "SDTM Dataset Variable"}, "rootItem": {"href": "/mdr/root/sendig/datasets/PC/variables/PCDRVFL", "title": "Version-agnostic anchor resource for SENDIG variable PC.PCDRVFL", "type": "Root Data Element"}, "self": {"href": "/mdr/sendig/3-1-1/datasets/PC/variables/PCDRVFL", "title": "Derived Flag", "type": "SDTM Dataset Variable"}}, "core": "Perm", "description": "Used to indicate a derived record. The value should be \"Y\" or null. Records that represent the average of other records are examples of records that would be derived for the submission datasets.", "label": "Derived Flag", "name": "PCDRVFL", "ordinal": "27", "role": "Record Qualifier", "simpleDatatype": "Char"}, {"_links": {"modelClassVariable": {"href": "/mdr/sdtm/1-5/classes/Findings/variables/--LLOQ", "title": "Lower Limit of Quantitation", "type": "Class Variable"}, "parentDataset": {"href": "/mdr/sendig/3-1-1/datasets/PC", "title": "Pharmacokinetic Concentrations", "type": "SDTM Dataset"}, "parentProduct": {"href": "/mdr/sendig/3-1-1", "title": "Standard for Exchange of Nonclinical Data Implementation Guide: Nonclinical Studies Version 3.1.1 (Final)", "type": "Implementation Guide"}, "priorVersion": {"href": "/mdr/sendig/3-1/datasets/PC/variables/PCLLOQ", "title": "Lower Limit of Quantitation", "type": "SDTM Dataset Variable"}, "rootItem": {"href": "/mdr/root/sendig/datasets/PC/variables/PCLLOQ", "title": "Version-agnostic anchor resource for SENDIG variable PC.PCLLOQ", "type": "Root Data Element"}, "self": {"href": "/mdr/sendig/3-1-1/datasets/PC/variables/PCLLOQ", "title": "Lower Limit of Quantitation", "type": "SDTM Dataset Variable"}}, "core": "Exp", "description": "Indicates the lower limit of quantitation for an assay. Units should be those used in PCSTRESU.", "label": "Lower Limit of Quantitation", "name": "PCLLOQ", "ordinal": "28", "role": "Variable Qualifier", "simpleDatatype": "Num"}, {"_links": {"codelist": [{"href": "/mdr/root/ct/sendct/codelists/C66742", "title": "Version-agnostic anchor resource for codelist C66742", "type": "Root Value Domain"}], "modelClassVariable": {"href": "/mdr/sdtm/1-5/classes/Findings/variables/--EXCLFL", "title": "Exclude from Statistics", "type": "Class Variable"}, "parentDataset": {"href": "/mdr/sendig/3-1-1/datasets/PC", "title": "Pharmacokinetic Concentrations", "type": "SDTM Dataset"}, "parentProduct": {"href": "/mdr/sendig/3-1-1", "title": "Standard for Exchange of Nonclinical Data Implementation Guide: Nonclinical Studies Version 3.1.1 (Final)", "type": "Implementation Guide"}, "priorVersion": {"href": "/mdr/sendig/3-1/datasets/PC/variables/PCEXCLFL", "title": "Exclusion Flag", "type": "SDTM Dataset Variable"}, "rootItem": {"href": "/mdr/root/sendig/datasets/PC/variables/PCEXCLFL", "title": "Version-agnostic anchor resource for SENDIG variable PC.PCEXCLFL", "type": "Root Data Element"}, "self": {"href": "/mdr/sendig/3-1-1/datasets/PC/variables/PCEXCLFL", "title": "Exclusion Flag", "type": "SDTM Dataset Variable"}}, "core": "Perm", "description": "\"Y\" if the result should be excluded from all calculations, otherwise null.", "label": "Exclusion Flag", "name": "PCEXCLFL", "ordinal": "29", "role": "Record Qualifier", "simpleDatatype": "Char"}, {"_links": {"modelClassVariable": {"href": "/mdr/sdtm/1-5/classes/Findings/variables/--REASEX", "title": "Reason for Exclusion from Statistics", "type": "Class Variable"}, "parentDataset": {"href": "/mdr/sendig/3-1-1/datasets/PC", "title": "Pharmacokinetic Concentrations", "type": "SDTM Dataset"}, "parentProduct": {"href": "/mdr/sendig/3-1-1", "title": "Standard for Exchange of Nonclinical Data Implementation Guide: Nonclinical Studies Version 3.1.1 (Final)", "type": "Implementation Guide"}, "priorVersion": {"href": "/mdr/sendig/3-1/datasets/PC/variables/PCREASEX", "title": "Reason for Exclusion", "type": "SDTM Dataset Variable"}, "rootItem": {"href": "/mdr/root/sendig/datasets/PC/variables/PCREASEX", "title": "Version-agnostic anchor resource for SENDIG variable PC.PCREASEX", "type": "Root Data Element"}, "self": {"href": "/mdr/sendig/3-1-1/datasets/PC/variables/PCREASEX", "title": "Reason for Exclusion", "type": "SDTM Dataset Variable"}}, "core": "Perm", "description": "The reason the result should be excluded from all calculations. Used only when PCEXCLFL is \"Y\".", "label": "Reason for Exclusion", "name": "PCREASEX", "ordinal": "30", "role": "Record Qualifier", "simpleDatatype": "Char"}, {"_links": {"codelist": [{"href": "/mdr/root/ct/sendct/codelists/C66742", "title": "Version-agnostic anchor resource for codelist C66742", "type": "Root Value Domain"}], "modelClassVariable": {"href": "/mdr/sdtm/1-5/classes/Findings/variables/--USCHFL", "title": "Unscheduled Flag", "type": "Class Variable"}, "parentDataset": {"href": "/mdr/sendig/3-1-1/datasets/PC", "title": "Pharmacokinetic Concentrations", "type": "SDTM Dataset"}, "parentProduct": {"href": "/mdr/sendig/3-1-1", "title": "Standard for Exchange of Nonclinical Data Implementation Guide: Nonclinical Studies Version 3.1.1 (Final)", "type": "Implementation Guide"}, "rootItem": {"href": "/mdr/root/sendig/datasets/PC/variables/PCUSCHFL", "title": "Version-agnostic anchor resource for SENDIG variable PC.PCUSCHFL", "type": "Root Data Element"}, "self": {"href": "/mdr/sendig/3-1-1/datasets/PC/variables/PCUSCHFL", "title": "Unscheduled Flag", "type": "SDTM Dataset Variable"}}, "core": "Perm", "description": "Indicates whether the timing of the specimen collection was unscheduled. If a specimen collection was performed based upon a schedule defined in the protocol, this flag should be null. Expected values are \"Y\" or null.", "label": "Unscheduled Flag", "name": "PCUSCHFL", "ordinal": "31", "role": "Record Qualifier", "simpleDatatype": "Char"}, {"_links": {"modelClassVariable": {"href": "/mdr/sdtm/1-5/classes/GeneralObservations/variables/VISITDY", "title": "Planned Study Day of Visit", "type": "Class Variable"}, "parentDataset": {"href": "/mdr/sendig/3-1-1/datasets/PC", "title": "Pharmacokinetic Concentrations", "type": "SDTM Dataset"}, "parentProduct": {"href": "/mdr/sendig/3-1-1", "title": "Standard for Exchange of Nonclinical Data Implementation Guide: Nonclinical Studies Version 3.1.1 (Final)", "type": "Implementation Guide"}, "priorVersion": {"href": "/mdr/sendig/3-1/datasets/PC/variables/VISITDY", "title": "Planned Study Day of Collection", "type": "SDTM Dataset Variable"}, "rootItem": {"href": "/mdr/root/sendig/datasets/PC/variables/VISITDY", "title": "Version-agnostic anchor resource for SENDIG variable PC.VISITDY", "type": "Root Data Element"}, "self": {"href": "/mdr/sendig/3-1-1/datasets/PC/variables/VISITDY", "title": "Planned Study Day of Collection", "type": "SDTM Dataset Variable"}}, "core": "Perm", "description": "Planned day of collection. Should be an integer.", "label": "Planned Study Day of Collection", "name": "VISITDY", "ordinal": "32", "role": "Timing", "simpleDatatype": "Num"}, {"_links": {"modelClassVariable": {"href": "/mdr/sdtm/1-5/classes/GeneralObservations/variables/--DTC", "title": "Date/Time of Collection", "type": "Class Variable"}, "parentDataset": {"href": "/mdr/sendig/3-1-1/datasets/PC", "title": "Pharmacokinetic Concentrations", "type": "SDTM Dataset"}, "parentProduct": {"href": "/mdr/sendig/3-1-1", "title": "Standard for Exchange of Nonclinical Data Implementation Guide: Nonclinical Studies Version 3.1.1 (Final)", "type": "Implementation Guide"}, "priorVersion": {"href": "/mdr/sendig/3-1/datasets/PC/variables/PCDTC", "title": "Date/Time of Specimen Collection", "type": "SDTM Dataset Variable"}, "rootItem": {"href": "/mdr/root/sendig/datasets/PC/variables/PCDTC", "title": "Version-agnostic anchor resource for SENDIG variable PC.PCDTC", "type": "Root Data Element"}, "self": {"href": "/mdr/sendig/3-1-1/datasets/PC/variables/PCDTC", "title": "Date/Time of Specimen Collection", "type": "SDTM Dataset Variable"}}, "core": "Perm", "describedValueDomain": "ISO 8601", "description": "Date/Time of specimen collection, in ISO 8601 format. If there is no end time, this will be the collection time.", "label": "Date/Time of Specimen Collection", "name": "PCDTC", "ordinal": "33", "role": "Timing", "simpleDatatype": "Char"}, {"_links": {"modelClassVariable": {"href": "/mdr/sdtm/1-5/classes/GeneralObservations/variables/--ENDTC", "title": "End Date/Time of Observation", "type": "Class Variable"}, "parentDataset": {"href": "/mdr/sendig/3-1-1/datasets/PC", "title": "Pharmacokinetic Concentrations", "type": "SDTM Dataset"}, "parentProduct": {"href": "/mdr/sendig/3-1-1", "title": "Standard for Exchange of Nonclinical Data Implementation Guide: Nonclinical Studies Version 3.1.1 (Final)", "type": "Implementation Guide"}, "priorVersion": {"href": "/mdr/sendig/3-1/datasets/PC/variables/PCENDTC", "title": "End Date/Time of Specimen Collection", "type": "SDTM Dataset Variable"}, "rootItem": {"href": "/mdr/root/sendig/datasets/PC/variables/PCENDTC", "title": "Version-agnostic anchor resource for SENDIG variable PC.PCENDTC", "type": "Root Data Element"}, "self": {"href": "/mdr/sendig/3-1-1/datasets/PC/variables/PCENDTC", "title": "End Date/Time of Specimen Collection", "type": "SDTM Dataset Variable"}}, "core": "Perm", "describedValueDomain": "ISO 8601", "description": "End date/time of specimen collection, in ISO 8601 format. If there is no end time, the collection time should be represented in PCDTC, and PCENDTC should be null.", "label": "End Date/Time of Specimen Collection", "name": "PCENDTC", "ordinal": "34", "role": "Timing", "simpleDatatype": "Char"}, {"_links": {"modelClassVariable": {"href": "/mdr/sdtm/1-5/classes/GeneralObservations/variables/--DY", "title": "Study Day of Visit/Collection/Exam", "type": "Class Variable"}, "parentDataset": {"href": "/mdr/sendig/3-1-1/datasets/PC", "title": "Pharmacokinetic Concentrations", "type": "SDTM Dataset"}, "parentProduct": {"href": "/mdr/sendig/3-1-1", "title": "Standard for Exchange of Nonclinical Data Implementation Guide: Nonclinical Studies Version 3.1.1 (Final)", "type": "Implementation Guide"}, "priorVersion": {"href": "/mdr/sendig/3-1/datasets/PC/variables/PCDY", "title": "Study Day of Specimen Collection", "type": "SDTM Dataset Variable"}, "rootItem": {"href": "/mdr/root/sendig/datasets/PC/variables/PCDY", "title": "Version-agnostic anchor resource for SENDIG variable PC.PCDY", "type": "Root Data Element"}, "self": {"href": "/mdr/sendig/3-1-1/datasets/PC/variables/PCDY", "title": "Study Day of Specimen Collection", "type": "SDTM Dataset Variable"}}, "core": "Perm", "description": "Study day of specimen collection, in integer days. The algorithm for calculations must be relative to the sponsor-defined RFSTDTC variable in Demographics (DM) domain.", "label": "Study Day of Specimen Collection", "name": "PCDY", "ordinal": "35", "role": "Timing", "simpleDatatype": "Num"}, {"_links": {"modelClassVariable": {"href": "/mdr/sdtm/1-5/classes/GeneralObservations/variables/--ENDY", "title": "Study Day of End of Observation", "type": "Class Variable"}, "parentDataset": {"href": "/mdr/sendig/3-1-1/datasets/PC", "title": "Pharmacokinetic Concentrations", "type": "SDTM Dataset"}, "parentProduct": {"href": "/mdr/sendig/3-1-1", "title": "Standard for Exchange of Nonclinical Data Implementation Guide: Nonclinical Studies Version 3.1.1 (Final)", "type": "Implementation Guide"}, "priorVersion": {"href": "/mdr/sendig/3-1/datasets/PC/variables/PCENDY", "title": "Study Day of End of Specimen Collection", "type": "SDTM Dataset Variable"}, "rootItem": {"href": "/mdr/root/sendig/datasets/PC/variables/PCENDY", "title": "Version-agnostic anchor resource for SENDIG variable PC.PCENDY", "type": "Root Data Element"}, "self": {"href": "/mdr/sendig/3-1-1/datasets/PC/variables/PCENDY", "title": "Study Day of End of Specimen Collection", "type": "SDTM Dataset Variable"}}, "core": "Perm", "description": "Study day of the end of specimen collection, in integer days. The algorithm for calculations must be relative to the sponsor-defined RFSTDTC variable in DM domain.", "label": "Study Day of End of Specimen Collection", "name": "PCENDY", "ordinal": "36", "role": "Timing", "simpleDatatype": "Num"}, {"_links": {"modelClassVariable": {"href": "/mdr/sdtm/1-5/classes/GeneralObservations/variables/--NOMDY", "title": "Nominal Study Day for Tabulations", "type": "Class Variable"}, "parentDataset": {"href": "/mdr/sendig/3-1-1/datasets/PC", "title": "Pharmacokinetic Concentrations", "type": "SDTM Dataset"}, "parentProduct": {"href": "/mdr/sendig/3-1-1", "title": "Standard for Exchange of Nonclinical Data Implementation Guide: Nonclinical Studies Version 3.1.1 (Final)", "type": "Implementation Guide"}, "priorVersion": {"href": "/mdr/sendig/3-1/datasets/PC/variables/PCNOMDY", "title": "Nominal Study Day for Tabulations", "type": "SDTM Dataset Variable"}, "rootItem": {"href": "/mdr/root/sendig/datasets/PC/variables/PCNOMDY", "title": "Version-agnostic anchor resource for SENDIG variable PC.PCNOMDY", "type": "Root Data Element"}, "self": {"href": "/mdr/sendig/3-1-1/datasets/PC/variables/PCNOMDY", "title": "Nominal Study Day for Tabulations", "type": "SDTM Dataset Variable"}}, "core": "Exp", "description": "Nominal study day used for grouping records for specimen collections that may occur on different days into a single reported study day. Should be an integer.", "label": "Nominal Study Day for Tabulations", "name": "PCNOMDY", "ordinal": "37", "role": "Timing", "simpleDatatype": "Num"}, {"_links": {"modelClassVariable": {"href": "/mdr/sdtm/1-5/classes/GeneralObservations/variables/--NOMLBL", "title": "Label for Nominal Study Day", "type": "Class Variable"}, "parentDataset": {"href": "/mdr/sendig/3-1-1/datasets/PC", "title": "Pharmacokinetic Concentrations", "type": "SDTM Dataset"}, "parentProduct": {"href": "/mdr/sendig/3-1-1", "title": "Standard for Exchange of Nonclinical Data Implementation Guide: Nonclinical Studies Version 3.1.1 (Final)", "type": "Implementation Guide"}, "priorVersion": {"href": "/mdr/sendig/3-1/datasets/PC/variables/PCNOMLBL", "title": "Label for Nominal Study Day", "type": "SDTM Dataset Variable"}, "rootItem": {"href": "/mdr/root/sendig/datasets/PC/variables/PCNOMLBL", "title": "Version-agnostic anchor resource for SENDIG variable PC.PCNOMLBL", "type": "Root Data Element"}, "self": {"href": "/mdr/sendig/3-1-1/datasets/PC/variables/PCNOMLBL", "title": "Label for Nominal Study Day", "type": "SDTM Dataset Variable"}}, "core": "Perm", "description": "A label for a given value of PCNOMDY as presented in the study report. Examples: \"Week 4\", \"Day 28\".", "label": "Label for Nominal Study Day", "name": "PCNOMLBL", "ordinal": "38", "role": "Timing", "simpleDatatype": "Char"}, {"_links": {"modelClassVariable": {"href": "/mdr/sdtm/1-5/classes/GeneralObservations/variables/--TPT", "title": "Planned Time Point Name", "type": "Class Variable"}, "parentDataset": {"href": "/mdr/sendig/3-1-1/datasets/PC", "title": "Pharmacokinetic Concentrations", "type": "SDTM Dataset"}, "parentProduct": {"href": "/mdr/sendig/3-1-1", "title": "Standard for Exchange of Nonclinical Data Implementation Guide: Nonclinical Studies Version 3.1.1 (Final)", "type": "Implementation Guide"}, "priorVersion": {"href": "/mdr/sendig/3-1/datasets/PC/variables/PCTPT", "title": "Planned Time Point Name", "type": "SDTM Dataset Variable"}, "rootItem": {"href": "/mdr/root/sendig/datasets/PC/variables/PCTPT", "title": "Version-agnostic anchor resource for SENDIG variable PC.PCTPT", "type": "Root Data Element"}, "self": {"href": "/mdr/sendig/3-1-1/datasets/PC/variables/PCTPT", "title": "Planned Time Point Name", "type": "SDTM Dataset Variable"}}, "core": "Perm", "description": "Text description of time when specimen should be taken. \\n Note: This may be represented as an elapsed time relative to a fixed reference point, such as time of last dose. See PCTPTNUM and PCTPTREF. Examples: Start, 5 min post.", "label": "Planned Time Point Name", "name": "PCTPT", "ordinal": "39", "role": "Timing", "simpleDatatype": "Char"}, {"_links": {"modelClassVariable": {"href": "/mdr/sdtm/1-5/classes/GeneralObservations/variables/--TPTNUM", "title": "Planned Time Point Number", "type": "Class Variable"}, "parentDataset": {"href": "/mdr/sendig/3-1-1/datasets/PC", "title": "Pharmacokinetic Concentrations", "type": "SDTM Dataset"}, "parentProduct": {"href": "/mdr/sendig/3-1-1", "title": "Standard for Exchange of Nonclinical Data Implementation Guide: Nonclinical Studies Version 3.1.1 (Final)", "type": "Implementation Guide"}, "priorVersion": {"href": "/mdr/sendig/3-1/datasets/PC/variables/PCTPTNUM", "title": "Planned Time Point Number", "type": "SDTM Dataset Variable"}, "rootItem": {"href": "/mdr/root/sendig/datasets/PC/variables/PCTPTNUM", "title": "Version-agnostic anchor resource for SENDIG variable PC.PCTPTNUM", "type": "Root Data Element"}, "self": {"href": "/mdr/sendig/3-1-1/datasets/PC/variables/PCTPTNUM", "title": "Planned Time Point Number", "type": "SDTM Dataset Variable"}}, "core": "Perm", "description": "Numerical version of PCTPT to aid in sorting.", "label": "Planned Time Point Number", "name": "PCTPTNUM", "ordinal": "40", "role": "Timing", "simpleDatatype": "Num"}, {"_links": {"modelClassVariable": {"href": "/mdr/sdtm/1-5/classes/GeneralObservations/variables/--ELTM", "title": "Planned Elapsed Time from Time Point Ref", "type": "Class Variable"}, "parentDataset": {"href": "/mdr/sendig/3-1-1/datasets/PC", "title": "Pharmacokinetic Concentrations", "type": "SDTM Dataset"}, "parentProduct": {"href": "/mdr/sendig/3-1-1", "title": "Standard for Exchange of Nonclinical Data Implementation Guide: Nonclinical Studies Version 3.1.1 (Final)", "type": "Implementation Guide"}, "priorVersion": {"href": "/mdr/sendig/3-1/datasets/PC/variables/PCELTM", "title": "Planned Elapsed Time from Time Point Ref", "type": "SDTM Dataset Variable"}, "rootItem": {"href": "/mdr/root/sendig/datasets/PC/variables/PCELTM", "title": "Version-agnostic anchor resource for SENDIG variable PC.PCELTM", "type": "Root Data Element"}, "self": {"href": "/mdr/sendig/3-1-1/datasets/PC/variables/PCELTM", "title": "Planned Elapsed Time from Time Point Ref", "type": "SDTM Dataset Variable"}}, "core": "Exp", "describedValueDomain": "ISO 8601", "description": "Planned elapsed time (in ISO 8601 format) relative to a planned fixed reference (PCTPTREF) such as \"Day 1, Dose 1\". This variable is useful where there are repetitive measures. Not a clock time or a date time variable. Represented as an ISO 8601 duration. Examples: \"PT0H\" to represent any predose values; \"PT8H\" to represent the period of 8 hours after the reference point indicated by PCTPTREF.", "label": "Planned Elapsed Time from Time Point Ref", "name": "PCELTM", "ordinal": "41", "role": "Timing", "simpleDatatype": "Char"}, {"_links": {"modelClassVariable": {"href": "/mdr/sdtm/1-5/classes/GeneralObservations/variables/--TPTREF", "title": "Time Point Reference", "type": "Class Variable"}, "parentDataset": {"href": "/mdr/sendig/3-1-1/datasets/PC", "title": "Pharmacokinetic Concentrations", "type": "SDTM Dataset"}, "parentProduct": {"href": "/mdr/sendig/3-1-1", "title": "Standard for Exchange of Nonclinical Data Implementation Guide: Nonclinical Studies Version 3.1.1 (Final)", "type": "Implementation Guide"}, "priorVersion": {"href": "/mdr/sendig/3-1/datasets/PC/variables/PCTPTREF", "title": "Time Point Reference", "type": "SDTM Dataset Variable"}, "rootItem": {"href": "/mdr/root/sendig/datasets/PC/variables/PCTPTREF", "title": "Version-agnostic anchor resource for SENDIG variable PC.PCTPTREF", "type": "Root Data Element"}, "self": {"href": "/mdr/sendig/3-1-1/datasets/PC/variables/PCTPTREF", "title": "Time Point Reference", "type": "SDTM Dataset Variable"}}, "core": "Exp", "description": "Name of the fixed reference point referred to by PCELTM, if used for PCTPTNUM, and PCTPT. It is recommended that PCTPTREF be as descriptive as possible so the reference time point can be inferred without looking at other variables. Example: \"Day 1, Dose 1\".", "label": "Time Point Reference", "name": "PCTPTREF", "ordinal": "42", "role": "Timing", "simpleDatatype": "Char"}, {"_links": {"modelClassVariable": {"href": "/mdr/sdtm/1-5/classes/GeneralObservations/variables/--RFTDTC", "title": "Date/Time of Reference Time Point", "type": "Class Variable"}, "parentDataset": {"href": "/mdr/sendig/3-1-1/datasets/PC", "title": "Pharmacokinetic Concentrations", "type": "SDTM Dataset"}, "parentProduct": {"href": "/mdr/sendig/3-1-1", "title": "Standard for Exchange of Nonclinical Data Implementation Guide: Nonclinical Studies Version 3.1.1 (Final)", "type": "Implementation Guide"}, "priorVersion": {"href": "/mdr/sendig/3-1/datasets/PC/variables/PCRFTDTC", "title": "Date/Time of Reference Point", "type": "SDTM Dataset Variable"}, "rootItem": {"href": "/mdr/root/sendig/datasets/PC/variables/PCRFTDTC", "title": "Version-agnostic anchor resource for SENDIG variable PC.PCRFTDTC", "type": "Root Data Element"}, "self": {"href": "/mdr/sendig/3-1-1/datasets/PC/variables/PCRFTDTC", "title": "Date/Time of Reference Point", "type": "SDTM Dataset Variable"}}, "core": "Exp", "describedValueDomain": "ISO 8601", "description": "Date/Time of the reference time point, PCTPTREF.", "label": "Date/Time of Reference Point", "name": "PCRFTDTC", "ordinal": "43", "role": "Timing", "simpleDatatype": "Char"}, {"_links": {"modelClassVariable": {"href": "/mdr/sdtm/1-5/classes/GeneralObservations/variables/--EVLINT", "title": "Evaluation Interval", "type": "Class Variable"}, "parentDataset": {"href": "/mdr/sendig/3-1-1/datasets/PC", "title": "Pharmacokinetic Concentrations", "type": "SDTM Dataset"}, "parentProduct": {"href": "/mdr/sendig/3-1-1", "title": "Standard for Exchange of Nonclinical Data Implementation Guide: Nonclinical Studies Version 3.1.1 (Final)", "type": "Implementation Guide"}, "priorVersion": {"href": "/mdr/sendig/3-1/datasets/PC/variables/PCEVLINT", "title": "Evaluation Interval", "type": "SDTM Dataset Variable"}, "rootItem": {"href": "/mdr/root/sendig/datasets/PC/variables/PCEVLINT", "title": "Version-agnostic anchor resource for SENDIG variable PC.PCEVLINT", "type": "Root Data Element"}, "self": {"href": "/mdr/sendig/3-1-1/datasets/PC/variables/PCEVLINT", "title": "Evaluation Interval", "type": "SDTM Dataset Variable"}}, "core": "Perm", "describedValueDomain": "ISO 8601", "description": "Planned evaluation interval associated with a PCTEST record in ISO 8601 format. Example: \"-P2H\" to represent a planned interval of collection of 2 hours prior to the time point described in PCTPT.", "label": "Evaluation Interval", "name": "PCEVLINT", "ordinal": "44", "role": "Timing", "simpleDatatype": "Char"}], "description": "A findings domain that contains concentrations of drugs or metabolites in fluids or tissues as a function of time. (Source: CDISC Controlled Terminology, SDOMAIN, C49606, 2018-06-29)", "label": "Pharmacokinetic Concentrations", "name": "PC", "ordinal": "16"}
