{"_links": {"parentClass": {"href": "/mdr/sendig/3-1-1/classes/Findings", "title": "Findings Observation Class", "type": "Class"}, "parentProduct": {"href": "/mdr/sendig/3-1-1", "title": "Standard for Exchange of Nonclinical Data Implementation Guide: Nonclinical Studies Version 3.1.1 (Final)", "type": "Implementation Guide"}, "priorVersion": {"href": "/mdr/sendig/3-1/datasets/PM", "title": "Palpable Masses", "type": "SDTM Dataset"}, "self": {"href": "/mdr/sendig/3-1-1/datasets/PM", "title": "Palpable Masses", "type": "SDTM Dataset"}}, "datasetStructure": "One record per test per palpable mass per observation time per subject", "datasetVariables": [{"_links": {"modelClassVariable": {"href": "/mdr/sdtm/1-5/classes/GeneralObservations/variables/STUDYID", "title": "Study Identifier", "type": "Class Variable"}, "parentDataset": {"href": "/mdr/sendig/3-1-1/datasets/PM", "title": "Palpable Masses", "type": "SDTM Dataset"}, "parentProduct": {"href": "/mdr/sendig/3-1-1", "title": "Standard for Exchange of Nonclinical Data Implementation Guide: Nonclinical Studies Version 3.1.1 (Final)", "type": "Implementation Guide"}, "priorVersion": {"href": "/mdr/sendig/3-1/datasets/PM/variables/STUDYID", "title": "Study Identifier", "type": "SDTM Dataset Variable"}, "rootItem": {"href": "/mdr/root/sendig/datasets/PM/variables/STUDYID", "title": "Version-agnostic anchor resource for SENDIG variable PM.STUDYID", "type": "Root Data Element"}, "self": {"href": "/mdr/sendig/3-1-1/datasets/PM/variables/STUDYID", "title": "Study Identifier", "type": "SDTM Dataset Variable"}}, "core": "Req", "description": "Unique identifier for a study.", "label": "Study Identifier", "name": "STUDYID", "ordinal": "1", "role": "Identifier", "simpleDatatype": "Char"}, {"_links": {"modelClassVariable": {"href": "/mdr/sdtm/1-5/classes/GeneralObservations/variables/DOMAIN", "title": "Domain Abbreviation", "type": "Class Variable"}, "parentDataset": {"href": "/mdr/sendig/3-1-1/datasets/PM", "title": "Palpable Masses", "type": "SDTM Dataset"}, "parentProduct": {"href": "/mdr/sendig/3-1-1", "title": "Standard for Exchange of Nonclinical Data Implementation Guide: Nonclinical Studies Version 3.1.1 (Final)", "type": "Implementation Guide"}, "priorVersion": {"href": "/mdr/sendig/3-1/datasets/PM/variables/DOMAIN", "title": "Domain Abbreviation", "type": "SDTM Dataset Variable"}, "rootItem": {"href": "/mdr/root/sendig/datasets/PM/variables/DOMAIN", "title": "Version-agnostic anchor resource for SENDIG variable PM.DOMAIN", "type": "Root Data Element"}, "self": {"href": "/mdr/sendig/3-1-1/datasets/PM/variables/DOMAIN", "title": "Domain Abbreviation", "type": "SDTM Dataset Variable"}}, "core": "Req", "description": "Two-character abbreviation for the domain.", "label": "Domain Abbreviation", "name": "DOMAIN", "ordinal": "2", "role": "Identifier", "simpleDatatype": "Char", "valueList": ["PM"]}, {"_links": {"modelClassVariable": {"href": "/mdr/sdtm/1-5/classes/GeneralObservations/variables/USUBJID", "title": "Unique Subject Identifier", "type": "Class Variable"}, "parentDataset": {"href": "/mdr/sendig/3-1-1/datasets/PM", "title": "Palpable Masses", "type": "SDTM Dataset"}, "parentProduct": {"href": "/mdr/sendig/3-1-1", "title": "Standard for Exchange of Nonclinical Data Implementation Guide: Nonclinical Studies Version 3.1.1 (Final)", "type": "Implementation Guide"}, "priorVersion": {"href": "/mdr/sendig/3-1/datasets/PM/variables/USUBJID", "title": "Unique Subject Identifier", "type": "SDTM Dataset Variable"}, "rootItem": {"href": "/mdr/root/sendig/datasets/PM/variables/USUBJID", "title": "Version-agnostic anchor resource for SENDIG variable PM.USUBJID", "type": "Root Data Element"}, "self": {"href": "/mdr/sendig/3-1-1/datasets/PM/variables/USUBJID", "title": "Unique Subject Identifier", "type": "SDTM Dataset Variable"}}, "core": "Req", "description": "Identifier used to uniquely identify a subject across all studies for all applications or submissions involving the product.", "label": "Unique Subject Identifier", "name": "USUBJID", "ordinal": "3", "role": "Identifier", "simpleDatatype": "Char"}, {"_links": {"modelClassVariable": {"href": "/mdr/sdtm/1-5/classes/GeneralObservations/variables/--SEQ", "title": "Sequence Number", "type": "Class Variable"}, "parentDataset": {"href": "/mdr/sendig/3-1-1/datasets/PM", "title": "Palpable Masses", "type": "SDTM Dataset"}, "parentProduct": {"href": "/mdr/sendig/3-1-1", "title": "Standard for Exchange of Nonclinical Data Implementation Guide: Nonclinical Studies Version 3.1.1 (Final)", "type": "Implementation Guide"}, "priorVersion": {"href": "/mdr/sendig/3-1/datasets/PM/variables/PMSEQ", "title": "Sequence Number", "type": "SDTM Dataset Variable"}, "rootItem": {"href": "/mdr/root/sendig/datasets/PM/variables/PMSEQ", "title": "Version-agnostic anchor resource for SENDIG variable PM.PMSEQ", "type": "Root Data Element"}, "self": {"href": "/mdr/sendig/3-1-1/datasets/PM/variables/PMSEQ", "title": "Sequence Number", "type": "SDTM Dataset Variable"}}, "core": "Req", "description": "Sequence number given to ensure uniqueness of subject records within a domain. May be any valid number.", "label": "Sequence Number", "name": "PMSEQ", "ordinal": "4", "role": "Identifier", "simpleDatatype": "Num"}, {"_links": {"modelClassVariable": {"href": "/mdr/sdtm/1-5/classes/GeneralObservations/variables/--GRPID", "title": "Group ID", "type": "Class Variable"}, "parentDataset": {"href": "/mdr/sendig/3-1-1/datasets/PM", "title": "Palpable Masses", "type": "SDTM Dataset"}, "parentProduct": {"href": "/mdr/sendig/3-1-1", "title": "Standard for Exchange of Nonclinical Data Implementation Guide: Nonclinical Studies Version 3.1.1 (Final)", "type": "Implementation Guide"}, "priorVersion": {"href": "/mdr/sendig/3-1/datasets/PM/variables/PMGRPID", "title": "Group Identifier", "type": "SDTM Dataset Variable"}, "rootItem": {"href": "/mdr/root/sendig/datasets/PM/variables/PMGRPID", "title": "Version-agnostic anchor resource for SENDIG variable PM.PMGRPID", "type": "Root Data Element"}, "self": {"href": "/mdr/sendig/3-1-1/datasets/PM/variables/PMGRPID", "title": "Group Identifier", "type": "SDTM Dataset Variable"}}, "core": "Perm", "description": "Used to tie together a block of related records in a single domain for a subject. This is not the treatment group number.", "label": "Group Identifier", "name": "PMGRPID", "ordinal": "5", "role": "Identifier", "simpleDatatype": "Char"}, {"_links": {"modelClassVariable": {"href": "/mdr/sdtm/1-5/classes/GeneralObservations/variables/--SPID", "title": "Sponsor-Defined Identifier", "type": "Class Variable"}, "parentDataset": {"href": "/mdr/sendig/3-1-1/datasets/PM", "title": "Palpable Masses", "type": "SDTM Dataset"}, "parentProduct": {"href": "/mdr/sendig/3-1-1", "title": "Standard for Exchange of Nonclinical Data Implementation Guide: Nonclinical Studies Version 3.1.1 (Final)", "type": "Implementation Guide"}, "priorVersion": {"href": "/mdr/sendig/3-1/datasets/PM/variables/PMSPID", "title": "Mass Identifier", "type": "SDTM Dataset Variable"}, "rootItem": {"href": "/mdr/root/sendig/datasets/PM/variables/PMSPID", "title": "Version-agnostic anchor resource for SENDIG variable PM.PMSPID", "type": "Root Data Element"}, "self": {"href": "/mdr/sendig/3-1-1/datasets/PM/variables/PMSPID", "title": "Mass Identifier", "type": "SDTM Dataset Variable"}}, "core": "Exp", "description": "Mass identifier such as MASS 1 or MASS A. Used when the mass was discovered during the in-life phase or during pathology and was assigned a mass identifier. The mass identification should be unique within the subject, regardless of mass location.", "label": "Mass Identifier", "name": "PMSPID", "ordinal": "6", "role": "Identifier", "simpleDatatype": "Char"}, {"_links": {"codelist": [{"href": "/mdr/root/ct/sendct/codelists/C95121", "title": "Version-agnostic anchor resource for codelist C95121", "type": "Root Value Domain"}], "modelClassVariable": {"href": "/mdr/sdtm/1-5/classes/Findings/variables/--TESTCD", "title": "Short Name of Measurement, Test or Examination", "type": "Class Variable"}, "parentDataset": {"href": "/mdr/sendig/3-1-1/datasets/PM", "title": "Palpable Masses", "type": "SDTM Dataset"}, "parentProduct": {"href": "/mdr/sendig/3-1-1", "title": "Standard for Exchange of Nonclinical Data Implementation Guide: Nonclinical Studies Version 3.1.1 (Final)", "type": "Implementation Guide"}, "priorVersion": {"href": "/mdr/sendig/3-1/datasets/PM/variables/PMTESTCD", "title": "Test Short Name", "type": "SDTM Dataset Variable"}, "rootItem": {"href": "/mdr/root/sendig/datasets/PM/variables/PMTESTCD", "title": "Version-agnostic anchor resource for SENDIG variable PM.PMTESTCD", "type": "Root Data Element"}, "self": {"href": "/mdr/sendig/3-1-1/datasets/PM/variables/PMTESTCD", "title": "Test Short Name", "type": "SDTM Dataset Variable"}}, "core": "Req", "description": "Short name of the measurement, test, or examination described in PMTEST. It can be used as a column name when converting a dataset from a vertical to a horizontal format. The value in PMTESTCD cannot be longer than 8 characters, nor can it start with a number (e.g., \"1TEST\" is not valid). PMTESTCD cannot contain characters other than letters, numbers, or underscores.", "label": "Test Short Name", "name": "PMTESTCD", "ordinal": "7", "role": "Topic", "simpleDatatype": "Char"}, {"_links": {"codelist": [{"href": "/mdr/root/ct/sendct/codelists/C95120", "title": "Version-agnostic anchor resource for codelist C95120", "type": "Root Value Domain"}], "modelClassVariable": {"href": "/mdr/sdtm/1-5/classes/Findings/variables/--TEST", "title": "Name of Measurement, Test or Examination", "type": "Class Variable"}, "parentDataset": {"href": "/mdr/sendig/3-1-1/datasets/PM", "title": "Palpable Masses", "type": "SDTM Dataset"}, "parentProduct": {"href": "/mdr/sendig/3-1-1", "title": "Standard for Exchange of Nonclinical Data Implementation Guide: Nonclinical Studies Version 3.1.1 (Final)", "type": "Implementation Guide"}, "priorVersion": {"href": "/mdr/sendig/3-1/datasets/PM/variables/PMTEST", "title": "Test Name", "type": "SDTM Dataset Variable"}, "rootItem": {"href": "/mdr/root/sendig/datasets/PM/variables/PMTEST", "title": "Version-agnostic anchor resource for SENDIG variable PM.PMTEST", "type": "Root Data Element"}, "self": {"href": "/mdr/sendig/3-1-1/datasets/PM/variables/PMTEST", "title": "Test Name", "type": "SDTM Dataset Variable"}}, "core": "Req", "description": "Long name for PMTESTCD. The value in PMTEST cannot be longer than 40 characters.", "label": "Test Name", "name": "PMTEST", "ordinal": "8", "role": "Synonym Qualifier", "simpleDatatype": "Char"}, {"_links": {"modelClassVariable": {"href": "/mdr/sdtm/1-5/classes/Findings/variables/--ORRES", "title": "Result or Finding in Original Units", "type": "Class Variable"}, "parentDataset": {"href": "/mdr/sendig/3-1-1/datasets/PM", "title": "Palpable Masses", "type": "SDTM Dataset"}, "parentProduct": {"href": "/mdr/sendig/3-1-1", "title": "Standard for Exchange of Nonclinical Data Implementation Guide: Nonclinical Studies Version 3.1.1 (Final)", "type": "Implementation Guide"}, "priorVersion": {"href": "/mdr/sendig/3-1/datasets/PM/variables/PMORRES", "title": "Result or Findings as Collected", "type": "SDTM Dataset Variable"}, "rootItem": {"href": "/mdr/root/sendig/datasets/PM/variables/PMORRES", "title": "Version-agnostic anchor resource for SENDIG variable PM.PMORRES", "type": "Root Data Element"}, "self": {"href": "/mdr/sendig/3-1-1/datasets/PM/variables/PMORRES", "title": "Result or Findings as Collected", "type": "SDTM Dataset Variable"}}, "core": "Exp", "description": "Text description of findings as originally received or collected. If the examination was not performed, then the value should be null, and NOT DONE should appear in PMSTAT.", "label": "Result or Findings as Collected", "name": "PMORRES", "ordinal": "9", "role": "Variable Qualifier", "simpleDatatype": "Char"}, {"_links": {"codelist": [{"href": "/mdr/root/ct/sendct/codelists/C71620", "title": "Version-agnostic anchor resource for codelist C71620", "type": "Root Value Domain"}], "modelClassVariable": {"href": "/mdr/sdtm/1-5/classes/Findings/variables/--ORRESU", "title": "Original Units", "type": "Class Variable"}, "parentDataset": {"href": "/mdr/sendig/3-1-1/datasets/PM", "title": "Palpable Masses", "type": "SDTM Dataset"}, "parentProduct": {"href": "/mdr/sendig/3-1-1", "title": "Standard for Exchange of Nonclinical Data Implementation Guide: Nonclinical Studies Version 3.1.1 (Final)", "type": "Implementation Guide"}, "priorVersion": {"href": "/mdr/sendig/3-1/datasets/PM/variables/PMORRESU", "title": "Unit of the Original Result", "type": "SDTM Dataset Variable"}, "rootItem": {"href": "/mdr/root/sendig/datasets/PM/variables/PMORRESU", "title": "Version-agnostic anchor resource for SENDIG variable PM.PMORRESU", "type": "Root Data Element"}, "self": {"href": "/mdr/sendig/3-1-1/datasets/PM/variables/PMORRESU", "title": "Unit of the Original Result", "type": "SDTM Dataset Variable"}}, "core": "Exp", "description": "Units for PMORRES, if available (e.g., for length, width, or depth findings). The unit of the original result should be mapped to a synonymous unit on the Controlled Terminology list.", "label": "Unit of the Original Result", "name": "PMORRESU", "ordinal": "10", "role": "Variable Qualifier", "simpleDatatype": "Char"}, {"_links": {"modelClassVariable": {"href": "/mdr/sdtm/1-5/classes/Findings/variables/--STRESC", "title": "Result or Finding in Standard Format", "type": "Class Variable"}, "parentDataset": {"href": "/mdr/sendig/3-1-1/datasets/PM", "title": "Palpable Masses", "type": "SDTM Dataset"}, "parentProduct": {"href": "/mdr/sendig/3-1-1", "title": "Standard for Exchange of Nonclinical Data Implementation Guide: Nonclinical Studies Version 3.1.1 (Final)", "type": "Implementation Guide"}, "priorVersion": {"href": "/mdr/sendig/3-1/datasets/PM/variables/PMSTRESC", "title": "Standardized Result in Character Format", "type": "SDTM Dataset Variable"}, "rootItem": {"href": "/mdr/root/sendig/datasets/PM/variables/PMSTRESC", "title": "Version-agnostic anchor resource for SENDIG variable PM.PMSTRESC", "type": "Root Data Element"}, "self": {"href": "/mdr/sendig/3-1-1/datasets/PM/variables/PMSTRESC", "title": "Standardized Result in Character Format", "type": "SDTM Dataset Variable"}}, "core": "Exp", "description": "Contains the result value for all findings, copied, or derived from PMORRES in a standard format or standard units. PMSTRESC should store all results or findings (without location of finding) in character format; if results are numeric, they should also be submitted in numeric format in PMSTRESN.", "label": "Standardized Result in Character Format", "name": "PMSTRESC", "ordinal": "11", "role": "Result Qualifier", "simpleDatatype": "Char"}, {"_links": {"modelClassVariable": {"href": "/mdr/sdtm/1-5/classes/Findings/variables/--STRESN", "title": "Numeric Result/Finding in Standard Units", "type": "Class Variable"}, "parentDataset": {"href": "/mdr/sendig/3-1-1/datasets/PM", "title": "Palpable Masses", "type": "SDTM Dataset"}, "parentProduct": {"href": "/mdr/sendig/3-1-1", "title": "Standard for Exchange of Nonclinical Data Implementation Guide: Nonclinical Studies Version 3.1.1 (Final)", "type": "Implementation Guide"}, "priorVersion": {"href": "/mdr/sendig/3-1/datasets/PM/variables/PMSTRESN", "title": "Standardized Result in Numeric Format", "type": "SDTM Dataset Variable"}, "rootItem": {"href": "/mdr/root/sendig/datasets/PM/variables/PMSTRESN", "title": "Version-agnostic anchor resource for SENDIG variable PM.PMSTRESN", "type": "Root Data Element"}, "self": {"href": "/mdr/sendig/3-1-1/datasets/PM/variables/PMSTRESN", "title": "Standardized Result in Numeric Format", "type": "SDTM Dataset Variable"}}, "core": "Exp", "description": "Used for numeric results or findings in standard format; contains the numeric form of PMSTRESC. PMSTRESN should store all numeric test results or findings.", "label": "Standardized Result in Numeric Format", "name": "PMSTRESN", "ordinal": "12", "role": "Result Qualifier", "simpleDatatype": "Num"}, {"_links": {"codelist": [{"href": "/mdr/root/ct/sendct/codelists/C71620", "title": "Version-agnostic anchor resource for codelist C71620", "type": "Root Value Domain"}], "modelClassVariable": {"href": "/mdr/sdtm/1-5/classes/Findings/variables/--STRESU", "title": "Standard Units", "type": "Class Variable"}, "parentDataset": {"href": "/mdr/sendig/3-1-1/datasets/PM", "title": "Palpable Masses", "type": "SDTM Dataset"}, "parentProduct": {"href": "/mdr/sendig/3-1-1", "title": "Standard for Exchange of Nonclinical Data Implementation Guide: Nonclinical Studies Version 3.1.1 (Final)", "type": "Implementation Guide"}, "priorVersion": {"href": "/mdr/sendig/3-1/datasets/PM/variables/PMSTRESU", "title": "Unit of the Standardized Result", "type": "SDTM Dataset Variable"}, "rootItem": {"href": "/mdr/root/sendig/datasets/PM/variables/PMSTRESU", "title": "Version-agnostic anchor resource for SENDIG variable PM.PMSTRESU", "type": "Root Data Element"}, "self": {"href": "/mdr/sendig/3-1-1/datasets/PM/variables/PMSTRESU", "title": "Unit of the Standardized Result", "type": "SDTM Dataset Variable"}}, "core": "Exp", "description": "Standardized unit used for PMSTRESC and PMSTRESN.", "label": "Unit of the Standardized Result", "name": "PMSTRESU", "ordinal": "13", "role": "Variable Qualifier", "simpleDatatype": "Char"}, {"_links": {"codelist": [{"href": "/mdr/root/ct/sendct/codelists/C66789", "title": "Version-agnostic anchor resource for codelist C66789", "type": "Root Value Domain"}], "modelClassVariable": {"href": "/mdr/sdtm/1-5/classes/Findings/variables/--STAT", "title": "Completion Status", "type": "Class Variable"}, "parentDataset": {"href": "/mdr/sendig/3-1-1/datasets/PM", "title": "Palpable Masses", "type": "SDTM Dataset"}, "parentProduct": {"href": "/mdr/sendig/3-1-1", "title": "Standard for Exchange of Nonclinical Data Implementation Guide: Nonclinical Studies Version 3.1.1 (Final)", "type": "Implementation Guide"}, "priorVersion": {"href": "/mdr/sendig/3-1/datasets/PM/variables/PMSTAT", "title": "Completion Status", "type": "SDTM Dataset Variable"}, "rootItem": {"href": "/mdr/root/sendig/datasets/PM/variables/PMSTAT", "title": "Version-agnostic anchor resource for SENDIG variable PM.PMSTAT", "type": "Root Data Element"}, "self": {"href": "/mdr/sendig/3-1-1/datasets/PM/variables/PMSTAT", "title": "Completion Status", "type": "SDTM Dataset Variable"}}, "core": "Perm", "description": "Used to indicate when a test is not done or result is missing. Should be null if a result exists in PMORRES.", "label": "Completion Status", "name": "PMSTAT", "ordinal": "14", "role": "Record Qualifier", "simpleDatatype": "Char"}, {"_links": {"modelClassVariable": {"href": "/mdr/sdtm/1-5/classes/Findings/variables/--REASND", "title": "Reason Not Done", "type": "Class Variable"}, "parentDataset": {"href": "/mdr/sendig/3-1-1/datasets/PM", "title": "Palpable Masses", "type": "SDTM Dataset"}, "parentProduct": {"href": "/mdr/sendig/3-1-1", "title": "Standard for Exchange of Nonclinical Data Implementation Guide: Nonclinical Studies Version 3.1.1 (Final)", "type": "Implementation Guide"}, "priorVersion": {"href": "/mdr/sendig/3-1/datasets/PM/variables/PMREASND", "title": "Reason Not Done", "type": "SDTM Dataset Variable"}, "rootItem": {"href": "/mdr/root/sendig/datasets/PM/variables/PMREASND", "title": "Version-agnostic anchor resource for SENDIG variable PM.PMREASND", "type": "Root Data Element"}, "self": {"href": "/mdr/sendig/3-1-1/datasets/PM/variables/PMREASND", "title": "Reason Not Done", "type": "SDTM Dataset Variable"}}, "core": "Perm", "description": "Describes why PMSTAT is NOT DONE, such as MEASUREMENT IMPOSSIBLE DUE TO EXCESSIVE ULCERATION OF MASS.", "label": "Reason Not Done", "name": "PMREASND", "ordinal": "15", "role": "Record Qualifier", "simpleDatatype": "Char"}, {"_links": {"modelClassVariable": {"href": "/mdr/sdtm/1-5/classes/Findings/variables/--LOC", "title": "Location Used for the Measurement", "type": "Class Variable"}, "parentDataset": {"href": "/mdr/sendig/3-1-1/datasets/PM", "title": "Palpable Masses", "type": "SDTM Dataset"}, "parentProduct": {"href": "/mdr/sendig/3-1-1", "title": "Standard for Exchange of Nonclinical Data Implementation Guide: Nonclinical Studies Version 3.1.1 (Final)", "type": "Implementation Guide"}, "priorVersion": {"href": "/mdr/sendig/3-1/datasets/PM/variables/PMLOC", "title": "Location of a Finding", "type": "SDTM Dataset Variable"}, "rootItem": {"href": "/mdr/root/sendig/datasets/PM/variables/PMLOC", "title": "Version-agnostic anchor resource for SENDIG variable PM.PMLOC", "type": "Root Data Element"}, "self": {"href": "/mdr/sendig/3-1-1/datasets/PM/variables/PMLOC", "title": "Location of a Finding", "type": "SDTM Dataset Variable"}}, "core": "Exp", "description": "Specifies the location of the palpable mass finding. Example: LEFT SHOULDER.", "label": "Location of a Finding", "name": "PMLOC", "ordinal": "16", "role": "Record Qualifier", "simpleDatatype": "Char"}, {"_links": {"modelClassVariable": {"href": "/mdr/sdtm/1-5/classes/Findings/variables/--EVAL", "title": "Evaluator", "type": "Class Variable"}, "parentDataset": {"href": "/mdr/sendig/3-1-1/datasets/PM", "title": "Palpable Masses", "type": "SDTM Dataset"}, "parentProduct": {"href": "/mdr/sendig/3-1-1", "title": "Standard for Exchange of Nonclinical Data Implementation Guide: Nonclinical Studies Version 3.1.1 (Final)", "type": "Implementation Guide"}, "priorVersion": {"href": "/mdr/sendig/3-1/datasets/PM/variables/PMEVAL", "title": "Evaluator", "type": "SDTM Dataset Variable"}, "rootItem": {"href": "/mdr/root/sendig/datasets/PM/variables/PMEVAL", "title": "Version-agnostic anchor resource for SENDIG variable PM.PMEVAL", "type": "Root Data Element"}, "self": {"href": "/mdr/sendig/3-1-1/datasets/PM/variables/PMEVAL", "title": "Evaluator", "type": "SDTM Dataset Variable"}}, "core": "Perm", "description": "Role of the person who provided the evaluation. Example: TECHNICIAN.", "label": "Evaluator", "name": "PMEVAL", "ordinal": "17", "role": "Record Qualifier", "simpleDatatype": "Char"}, {"_links": {"codelist": [{"href": "/mdr/root/ct/sendct/codelists/C66742", "title": "Version-agnostic anchor resource for codelist C66742", "type": "Root Value Domain"}], "modelClassVariable": {"href": "/mdr/sdtm/1-5/classes/Findings/variables/--USCHFL", "title": "Unscheduled Flag", "type": "Class Variable"}, "parentDataset": {"href": "/mdr/sendig/3-1-1/datasets/PM", "title": "Palpable Masses", "type": "SDTM Dataset"}, "parentProduct": {"href": "/mdr/sendig/3-1-1", "title": "Standard for Exchange of Nonclinical Data Implementation Guide: Nonclinical Studies Version 3.1.1 (Final)", "type": "Implementation Guide"}, "priorVersion": {"href": "/mdr/sendig/3-1/datasets/PM/variables/PMUSCHFL", "title": "Unscheduled Flag", "type": "SDTM Dataset Variable"}, "rootItem": {"href": "/mdr/root/sendig/datasets/PM/variables/PMUSCHFL", "title": "Version-agnostic anchor resource for SENDIG variable PM.PMUSCHFL", "type": "Root Data Element"}, "self": {"href": "/mdr/sendig/3-1-1/datasets/PM/variables/PMUSCHFL", "title": "Unscheduled Flag", "type": "SDTM Dataset Variable"}}, "core": "Perm", "description": "Indicates whether the timing of a performed test or observation was unscheduled. If a test or observation was performed based upon a schedule defined in the protocol, this flag should be null. Expected values are \"Y\" or null.", "label": "Unscheduled Flag", "name": "PMUSCHFL", "ordinal": "18", "role": "Record Qualifier", "simpleDatatype": "Char"}, {"_links": {"modelClassVariable": {"href": "/mdr/sdtm/1-5/classes/GeneralObservations/variables/VISITDY", "title": "Planned Study Day of Visit", "type": "Class Variable"}, "parentDataset": {"href": "/mdr/sendig/3-1-1/datasets/PM", "title": "Palpable Masses", "type": "SDTM Dataset"}, "parentProduct": {"href": "/mdr/sendig/3-1-1", "title": "Standard for Exchange of Nonclinical Data Implementation Guide: Nonclinical Studies Version 3.1.1 (Final)", "type": "Implementation Guide"}, "priorVersion": {"href": "/mdr/sendig/3-1/datasets/PM/variables/VISITDY", "title": "Planned Study Day of Collection", "type": "SDTM Dataset Variable"}, "rootItem": {"href": "/mdr/root/sendig/datasets/PM/variables/VISITDY", "title": "Version-agnostic anchor resource for SENDIG variable PM.VISITDY", "type": "Root Data Element"}, "self": {"href": "/mdr/sendig/3-1-1/datasets/PM/variables/VISITDY", "title": "Planned Study Day of Collection", "type": "SDTM Dataset Variable"}}, "core": "Perm", "description": "Planned study day of collection. Should be an integer.", "label": "Planned Study Day of Collection", "name": "VISITDY", "ordinal": "19", "role": "Timing", "simpleDatatype": "Num"}, {"_links": {"modelClassVariable": {"href": "/mdr/sdtm/1-5/classes/GeneralObservations/variables/--DTC", "title": "Date/Time of Collection", "type": "Class Variable"}, "parentDataset": {"href": "/mdr/sendig/3-1-1/datasets/PM", "title": "Palpable Masses", "type": "SDTM Dataset"}, "parentProduct": {"href": "/mdr/sendig/3-1-1", "title": "Standard for Exchange of Nonclinical Data Implementation Guide: Nonclinical Studies Version 3.1.1 (Final)", "type": "Implementation Guide"}, "priorVersion": {"href": "/mdr/sendig/3-1/datasets/PM/variables/PMDTC", "title": "Date/Time of Observation", "type": "SDTM Dataset Variable"}, "rootItem": {"href": "/mdr/root/sendig/datasets/PM/variables/PMDTC", "title": "Version-agnostic anchor resource for SENDIG variable PM.PMDTC", "type": "Root Data Element"}, "self": {"href": "/mdr/sendig/3-1-1/datasets/PM/variables/PMDTC", "title": "Date/Time of Observation", "type": "SDTM Dataset Variable"}}, "core": "Exp", "describedValueDomain": "ISO 8601", "description": "Date/Time of the observation in ISO 8601 format.", "label": "Date/Time of Observation", "name": "PMDTC", "ordinal": "20", "role": "Timing", "simpleDatatype": "Char"}, {"_links": {"modelClassVariable": {"href": "/mdr/sdtm/1-5/classes/GeneralObservations/variables/--DY", "title": "Study Day of Visit/Collection/Exam", "type": "Class Variable"}, "parentDataset": {"href": "/mdr/sendig/3-1-1/datasets/PM", "title": "Palpable Masses", "type": "SDTM Dataset"}, "parentProduct": {"href": "/mdr/sendig/3-1-1", "title": "Standard for Exchange of Nonclinical Data Implementation Guide: Nonclinical Studies Version 3.1.1 (Final)", "type": "Implementation Guide"}, "priorVersion": {"href": "/mdr/sendig/3-1/datasets/PM/variables/PMDY", "title": "Study Day of Observation", "type": "SDTM Dataset Variable"}, "rootItem": {"href": "/mdr/root/sendig/datasets/PM/variables/PMDY", "title": "Version-agnostic anchor resource for SENDIG variable PM.PMDY", "type": "Root Data Element"}, "self": {"href": "/mdr/sendig/3-1-1/datasets/PM/variables/PMDY", "title": "Study Day of Observation", "type": "SDTM Dataset Variable"}}, "core": "Perm", "description": "Study day of the observation, measured as integer days. The algorithm for calculations must be relative to the sponsor-defined RFSTDTC variable in the Demographics (DM) domain.", "label": "Study Day of Observation", "name": "PMDY", "ordinal": "21", "role": "Timing", "simpleDatatype": "Num"}, {"_links": {"modelClassVariable": {"href": "/mdr/sdtm/1-5/classes/GeneralObservations/variables/--NOMDY", "title": "Nominal Study Day for Tabulations", "type": "Class Variable"}, "parentDataset": {"href": "/mdr/sendig/3-1-1/datasets/PM", "title": "Palpable Masses", "type": "SDTM Dataset"}, "parentProduct": {"href": "/mdr/sendig/3-1-1", "title": "Standard for Exchange of Nonclinical Data Implementation Guide: Nonclinical Studies Version 3.1.1 (Final)", "type": "Implementation Guide"}, "priorVersion": {"href": "/mdr/sendig/3-1/datasets/PM/variables/PMNOMDY", "title": "Nominal Study Day for Tabulations", "type": "SDTM Dataset Variable"}, "rootItem": {"href": "/mdr/root/sendig/datasets/PM/variables/PMNOMDY", "title": "Version-agnostic anchor resource for SENDIG variable PM.PMNOMDY", "type": "Root Data Element"}, "self": {"href": "/mdr/sendig/3-1-1/datasets/PM/variables/PMNOMDY", "title": "Nominal Study Day for Tabulations", "type": "SDTM Dataset Variable"}}, "core": "Exp", "description": "Nominal study day used for grouping records for observations that may occur on different days into a single reported study day. Should be an integer.", "label": "Nominal Study Day for Tabulations", "name": "PMNOMDY", "ordinal": "22", "role": "Timing", "simpleDatatype": "Num"}, {"_links": {"modelClassVariable": {"href": "/mdr/sdtm/1-5/classes/GeneralObservations/variables/--NOMLBL", "title": "Label for Nominal Study Day", "type": "Class Variable"}, "parentDataset": {"href": "/mdr/sendig/3-1-1/datasets/PM", "title": "Palpable Masses", "type": "SDTM Dataset"}, "parentProduct": {"href": "/mdr/sendig/3-1-1", "title": "Standard for Exchange of Nonclinical Data Implementation Guide: Nonclinical Studies Version 3.1.1 (Final)", "type": "Implementation Guide"}, "priorVersion": {"href": "/mdr/sendig/3-1/datasets/PM/variables/PMNOMLBL", "title": "Label for Nominal Study Day", "type": "SDTM Dataset Variable"}, "rootItem": {"href": "/mdr/root/sendig/datasets/PM/variables/PMNOMLBL", "title": "Version-agnostic anchor resource for SENDIG variable PM.PMNOMLBL", "type": "Root Data Element"}, "self": {"href": "/mdr/sendig/3-1-1/datasets/PM/variables/PMNOMLBL", "title": "Label for Nominal Study Day", "type": "SDTM Dataset Variable"}}, "core": "Perm", "description": "A label for a given value of PMNOMDY as presented in the study report. Examples: \"Week 4,\" \"Day 28,\" \"Terminal Sac\".", "label": "Label for Nominal Study Day", "name": "PMNOMLBL", "ordinal": "23", "role": "Timing", "simpleDatatype": "Char"}], "description": "This domain captures information of any palpable masses examined during the experimental phase. (Source: CDISC Controlled Terminology, SDOMAIN, C95097, 2018-06-29)", "label": "Palpable Masses", "name": "PM", "ordinal": "15"}
