{
    "_links": {
        "parentClass": {
            "href": "/mdr/cdashig/2-2/classes/Findings",
            "title": "Findings",
            "type": "Class"
        },
        "parentDomain": {
            "href": "/mdr/cdashig/2-2/domains/DA",
            "title": "Drug Accountability",
            "type": "CDASH Domain"
        },
        "parentProduct": {
            "href": "/mdr/cdashig/2-2",
            "title": "Clinical Data Acquisition Standards Harmonization Implementation Guide for Human Clinical Trials Version 2.2",
            "type": "Implementation Guide"
        },
        "priorVersion": {
            "href": "/mdr/cdashig/2-1/scenarios/DA.HorizontalGeneric",
            "title": "DA - Implementation Options: HorizontalGeneric",
            "type": "CDASH Scenario"
        },
        "self": {
            "href": "/mdr/cdashig/2-2/scenarios/DA.HorizontalGeneric",
            "title": "Horizontal-Generic",
            "type": "CDASH Scenario"
        }
    },
    "domain": "Drug Accountability",
    "domainName": "DA",
    "fields": [
        {
            "_links": {
                "parentProduct": {
                    "href": "/mdr/cdashig/2-2",
                    "title": "Clinical Data Acquisition Standards Harmonization Implementation Guide for Human Clinical Trials Version 2.2",
                    "type": "Implementation Guide"
                },
                "parentScenario": {
                    "href": "/mdr/cdashig/2-2/scenarios/DA.HorizontalGeneric",
                    "title": "Horizontal-Generic",
                    "type": "CDASH Scenario"
                },
                "priorVersion": {
                    "href": "/mdr/cdashig/2-1/scenarios/DA.Generic/fields/STUDYID",
                    "title": "Study Identifier",
                    "type": "Data Collection Field"
                },
                "rootItem": {
                    "href": "/mdr/root/cdashig/scenarios/DA.Generic/fields/STUDYID",
                    "title": "Version-agnostic anchor element for scenario field Horizontal-Generic.STUDYID",
                    "type": "Root Data Element"
                },
                "sdtmigDatasetMappingTargets": [
                    {
                        "href": "/mdr/sdtmig/3-3/datasets/DA/variables/STUDYID",
                        "title": "Study Identifier",
                        "type": "SDTM Dataset Variable"
                    }
                ],
                "self": {
                    "href": "/mdr/cdashig/2-2/scenarios/DA.Generic/fields/STUDYID",
                    "title": "Study Identifier",
                    "type": "Data Collection Field"
                }
            },
            "core": "HR",
            "definition": "A unique identifier for a study.",
            "implementationNotes": "Although this field is not typically captured on a CRF, it should be displayed clearly on the CRF and/or in the EDC system. This field can be included in the database or populated during SDTM-based dataset creation before submission.",
            "label": "Study Identifier",
            "mappingInstructions": "Maps directly to the SDTMIG variable listed in the SDTMIG Target column.",
            "name": "STUDYID",
            "ordinal": "1",
            "prompt": "[Protocol/Study]",
            "questionText": "What is the study identifier?",
            "simpleDatatype": "Char"
        },
        {
            "_links": {
                "parentProduct": {
                    "href": "/mdr/cdashig/2-2",
                    "title": "Clinical Data Acquisition Standards Harmonization Implementation Guide for Human Clinical Trials Version 2.2",
                    "type": "Implementation Guide"
                },
                "parentScenario": {
                    "href": "/mdr/cdashig/2-2/scenarios/DA.HorizontalGeneric",
                    "title": "Horizontal-Generic",
                    "type": "CDASH Scenario"
                },
                "priorVersion": {
                    "href": "/mdr/cdashig/2-1/scenarios/DA.Generic/fields/SITEID",
                    "title": "Study Site Identifier",
                    "type": "Data Collection Field"
                },
                "rootItem": {
                    "href": "/mdr/root/cdashig/scenarios/DA.Generic/fields/SITEID",
                    "title": "Version-agnostic anchor element for scenario field Horizontal-Generic.SITEID",
                    "type": "Root Data Element"
                },
                "sdtmigDatasetMappingTargets": [
                    {
                        "href": "/mdr/sdtmig/3-3/datasets/DM/variables/SITEID",
                        "title": "Study Site Identifier",
                        "type": "SDTM Dataset Variable"
                    }
                ],
                "self": {
                    "href": "/mdr/cdashig/2-2/scenarios/DA.Generic/fields/SITEID",
                    "title": "Study Site Identifier",
                    "type": "Data Collection Field"
                }
            },
            "core": "HR",
            "definition": "A unique identifier for a site within a study.",
            "implementationNotes": "Paper: This is typically pre-printed in the header of each CRF page for single-site studies. For studies with multiple sites, this field may be left blank so that the number can be recorded by the site, or it may be pre-pre-printed on the CRFs that are shipped to each site. \\n EDC: This should be pre-populated.",
            "label": "Study Site Identifier",
            "mappingInstructions": "Maps directly to the SDTMIG variable listed in the SDTMIG Target column.",
            "name": "SITEID",
            "ordinal": "2",
            "prompt": "Site (Identifier)",
            "questionText": "What is the site identifier?",
            "simpleDatatype": "Char"
        },
        {
            "_links": {
                "parentProduct": {
                    "href": "/mdr/cdashig/2-2",
                    "title": "Clinical Data Acquisition Standards Harmonization Implementation Guide for Human Clinical Trials Version 2.2",
                    "type": "Implementation Guide"
                },
                "parentScenario": {
                    "href": "/mdr/cdashig/2-2/scenarios/DA.HorizontalGeneric",
                    "title": "Horizontal-Generic",
                    "type": "CDASH Scenario"
                },
                "priorVersion": {
                    "href": "/mdr/cdashig/2-1/scenarios/DA.Generic/fields/SUBJID",
                    "title": "Subject Identifier for the Study",
                    "type": "Data Collection Field"
                },
                "rootItem": {
                    "href": "/mdr/root/cdashig/scenarios/DA.Generic/fields/SUBJID",
                    "title": "Version-agnostic anchor element for scenario field Horizontal-Generic.SUBJID",
                    "type": "Root Data Element"
                },
                "sdtmigDatasetMappingTargets": [
                    {
                        "href": "/mdr/sdtmig/3-3/datasets/DM/variables/SUBJID",
                        "title": "Subject Identifier for the Study",
                        "type": "SDTM Dataset Variable"
                    }
                ],
                "self": {
                    "href": "/mdr/cdashig/2-2/scenarios/DA.Generic/fields/SUBJID",
                    "title": "Subject Identifier for the Study",
                    "type": "Data Collection Field"
                }
            },
            "completionInstructions": "Record the identifier for the subject.",
            "core": "HR",
            "definition": "A unique subject identifier within a site and a study.",
            "implementationNotes": "Paper: This is typically recorded in the header of each CRF page. EDC: The subject identifiers may be system-generated. This CDASH variable is typically collected in all CDASH domains. However, this CDASH variable is populated only in the SDTMIG DM domain. For more information, refer to the SDTMIG.",
            "label": "Subject Identifier for the Study",
            "mappingInstructions": "Maps directly to the SDTMIG variable listed in the SDTMIG Target column.",
            "name": "SUBJID",
            "ordinal": "3",
            "prompt": "[Subject/Participant] (Identifier)",
            "questionText": "What [is/was] the (study) [subject/participant] identifier?",
            "simpleDatatype": "Char"
        },
        {
            "_links": {
                "parentProduct": {
                    "href": "/mdr/cdashig/2-2",
                    "title": "Clinical Data Acquisition Standards Harmonization Implementation Guide for Human Clinical Trials Version 2.2",
                    "type": "Implementation Guide"
                },
                "parentScenario": {
                    "href": "/mdr/cdashig/2-2/scenarios/DA.HorizontalGeneric",
                    "title": "Horizontal-Generic",
                    "type": "CDASH Scenario"
                },
                "priorVersion": {
                    "href": "/mdr/cdashig/2-1/scenarios/DA.Generic/fields/VISIT",
                    "title": "Visit Name",
                    "type": "Data Collection Field"
                },
                "rootItem": {
                    "href": "/mdr/root/cdashig/scenarios/DA.Generic/fields/VISIT",
                    "title": "Version-agnostic anchor element for scenario field Horizontal-Generic.VISIT",
                    "type": "Root Data Element"
                },
                "sdtmigDatasetMappingTargets": [
                    {
                        "href": "/mdr/sdtmig/3-3/datasets/DA/variables/VISIT",
                        "title": "Visit Name",
                        "type": "SDTM Dataset Variable"
                    }
                ],
                "self": {
                    "href": "/mdr/cdashig/2-2/scenarios/DA.Generic/fields/VISIT",
                    "title": "Visit Name",
                    "type": "Data Collection Field"
                }
            },
            "core": "R/C",
            "definition": "The name of a clinical encounter that encompasses planned and unplanned trial interventions, procedures, and assessments that may be performed on a subject.",
            "implementationNotes": "The name of the clinical encounter is typically pre-printed on the CRF or displayed within the EDC for any visit-based data collection, most often in Findings domains. This Visit text description is then available in any EDC data extract for that Findings domain.",
            "label": "Visit Name",
            "mappingInstructions": "Maps directly to the SDTMIG variable listed in the SDTMIG Target column..",
            "name": "VISIT",
            "ordinal": "4",
            "prompt": "[Visit]",
            "questionText": "What is the visit name?",
            "simpleDatatype": "Char"
        },
        {
            "_links": {
                "parentProduct": {
                    "href": "/mdr/cdashig/2-2",
                    "title": "Clinical Data Acquisition Standards Harmonization Implementation Guide for Human Clinical Trials Version 2.2",
                    "type": "Implementation Guide"
                },
                "parentScenario": {
                    "href": "/mdr/cdashig/2-2/scenarios/DA.HorizontalGeneric",
                    "title": "Horizontal-Generic",
                    "type": "CDASH Scenario"
                },
                "priorVersion": {
                    "href": "/mdr/cdashig/2-1/scenarios/DA.Generic/fields/VISDAT",
                    "title": "Visit Date",
                    "type": "Data Collection Field"
                },
                "rootItem": {
                    "href": "/mdr/root/cdashig/scenarios/DA.Generic/fields/VISDAT",
                    "title": "Version-agnostic anchor element for scenario field Horizontal-Generic.VISDAT",
                    "type": "Root Data Element"
                },
                "self": {
                    "href": "/mdr/cdashig/2-2/scenarios/DA.Generic/fields/VISDAT",
                    "title": "Visit Date",
                    "type": "Data Collection Field"
                }
            },
            "completionInstructions": "Record the [date/start date] of the visit using this format (DD-MON-YYYY).",
            "core": "R/C",
            "definition": "Date the clinical encounter occurred (or started).",
            "implementationNotes": "The date the drug accountability assessments were collected can be determined from the Visit Date variable (VISDAT) and applying that date to all of the observations at that visit, or the collection date can be included on the DA CRF using the date (DADAT) field.",
            "label": "Visit Date",
            "mappingInstructions": "This field is not an SDTM variable. The date of a measurement, test, observation can be determined from the date/time of visit (VISDAT/VISTIM) and then concatenating the CDASH VISDAT/VISTIM components and populating the SDTMIG variable DADTC in ISO 8601 format.",
            "name": "VISDAT",
            "ordinal": "5",
            "prompt": "(Visit) Date",
            "questionText": "What [is/was] the date of the visit?",
            "simpleDatatype": "Char"
        },
        {
            "_links": {
                "parentProduct": {
                    "href": "/mdr/cdashig/2-2",
                    "title": "Clinical Data Acquisition Standards Harmonization Implementation Guide for Human Clinical Trials Version 2.2",
                    "type": "Implementation Guide"
                },
                "parentScenario": {
                    "href": "/mdr/cdashig/2-2/scenarios/DA.HorizontalGeneric",
                    "title": "Horizontal-Generic",
                    "type": "CDASH Scenario"
                },
                "priorVersion": {
                    "href": "/mdr/cdashig/2-1/scenarios/DA.Generic/fields/DAGRPID",
                    "title": "Drug Accountability Group ID",
                    "type": "Data Collection Field"
                },
                "rootItem": {
                    "href": "/mdr/root/cdashig/scenarios/DA.Generic/fields/DAGRPID",
                    "title": "Version-agnostic anchor element for scenario field Horizontal-Generic.DAGRPID",
                    "type": "Root Data Element"
                },
                "sdtmigDatasetMappingTargets": [
                    {
                        "href": "/mdr/sdtmig/3-3/datasets/DA/variables/DAGRPID",
                        "title": "Group ID",
                        "type": "SDTM Dataset Variable"
                    }
                ],
                "self": {
                    "href": "/mdr/cdashig/2-2/scenarios/DA.Generic/fields/DAGRPID",
                    "title": "Drug Accountability Group ID",
                    "type": "Data Collection Field"
                }
            },
            "completionInstructions": "Record unique group identifier. Sponsor may insert additional instructions to ensure each record has a unique group identifier.",
            "core": "O",
            "definition": "A sponsor-defined identifier used to tie a block of related records in a single domain.",
            "implementationNotes": "It can be beneficial to use an identifier in a data query to communicate clearly to the site the specific record in question. This group identifier ties together all the tests collected on this horizontal record. This field may be populated by the sponsor's data collection system.",
            "label": "Drug Accountability Group ID",
            "mappingInstructions": "Maps directly to the SDTMIG variable listed in the SDTMIG Target column.",
            "name": "DAGRPID",
            "ordinal": "6",
            "prompt": "Test Group Identifier",
            "questionText": "What is the test group identifier?",
            "simpleDatatype": "Char"
        },
        {
            "_links": {
                "codelist": [
                    {
                        "href": "/mdr/root/ct/sdtmct/codelists/C66742",
                        "title": "Version-agnostic anchor resource for codelist C66742",
                        "type": "Root Value Domain"
                    }
                ],
                "parentProduct": {
                    "href": "/mdr/cdashig/2-2",
                    "title": "Clinical Data Acquisition Standards Harmonization Implementation Guide for Human Clinical Trials Version 2.2",
                    "type": "Implementation Guide"
                },
                "parentScenario": {
                    "href": "/mdr/cdashig/2-2/scenarios/DA.HorizontalGeneric",
                    "title": "Horizontal-Generic",
                    "type": "CDASH Scenario"
                },
                "priorVersion": {
                    "href": "/mdr/cdashig/2-1/scenarios/DA.Generic/fields/DAPERF",
                    "title": "Drug Accountability Performed",
                    "type": "Data Collection Field"
                },
                "rootItem": {
                    "href": "/mdr/root/cdashig/scenarios/DA.Generic/fields/DAPERF",
                    "title": "Version-agnostic anchor element for scenario field Horizontal-Generic.DAPERF",
                    "type": "Root Data Element"
                },
                "sdtmigDatasetMappingTargets": [
                    {
                        "href": "/mdr/sdtmig/3-3/datasets/DA/variables/DASTAT",
                        "title": "Completion Status",
                        "type": "SDTM Dataset Variable"
                    }
                ],
                "self": {
                    "href": "/mdr/cdashig/2-2/scenarios/DA.Generic/fields/DAPERF",
                    "title": "Drug Accountability Performed",
                    "type": "Data Collection Field"
                }
            },
            "completionInstructions": "Indicate whether or not drug accountability was performed.",
            "core": "O",
            "definition": "An indication of whether a planned drug accountability assessment was performed.",
            "implementationNotes": "This general prompt question is used as a data management tool to verify that missing results are confirmed missing. This may be implemented for all tests collected on the same horizontal record or for each specific test. When mapped to SDTM, the value of DAPERF would apply to all tests on the same record. Use the CDASH variable [DATESTCD]_DAPERF when implemented on a specific test basis. This is an example of the type of CDASH variable names that can be used in a denormalized data structure.",
            "label": "Drug Accountability Performed",
            "mappingInstructions": "This does not map directly to an SDTMIG variable. May be used to derive a value into the SDTMIG variable DASTAT. If DAPERF=\"N\", the value of DASTAT will be \"NOT DONE\". If DAPERF=\"Y\", DASTAT should be null. A combination of SDTMIG variables ( e.g., DACAT and DASCAT, DATPT) is used to indicate that multiple tests were not done. In this situation, the SDTM variable DATESTCD would be populated as DAALL and an appropriate test name (DATEST) provided. See SDTMIG for additional information.",
            "name": "[DATESTCD]_DAPERF",
            "ordinal": "7",
            "prompt": "[DATEST] Collected",
            "questionText": "Was [DATEST] collected?",
            "simpleDatatype": "Char"
        },
        {
            "_links": {
                "parentProduct": {
                    "href": "/mdr/cdashig/2-2",
                    "title": "Clinical Data Acquisition Standards Harmonization Implementation Guide for Human Clinical Trials Version 2.2",
                    "type": "Implementation Guide"
                },
                "parentScenario": {
                    "href": "/mdr/cdashig/2-2/scenarios/DA.HorizontalGeneric",
                    "title": "Horizontal-Generic",
                    "type": "CDASH Scenario"
                },
                "priorVersion": {
                    "href": "/mdr/cdashig/2-1/scenarios/DA.Generic/fields/DACAT",
                    "title": "DA Category of Assessment",
                    "type": "Data Collection Field"
                },
                "rootItem": {
                    "href": "/mdr/root/cdashig/scenarios/DA.Generic/fields/DACAT",
                    "title": "Version-agnostic anchor element for scenario field Horizontal-Generic.DACAT",
                    "type": "Root Data Element"
                },
                "sdtmigDatasetMappingTargets": [
                    {
                        "href": "/mdr/sdtmig/3-3/datasets/DA/variables/DACAT",
                        "title": "Category",
                        "type": "SDTM Dataset Variable"
                    }
                ],
                "self": {
                    "href": "/mdr/cdashig/2-2/scenarios/DA.Generic/fields/DACAT",
                    "title": "DA Category of Assessment",
                    "type": "Data Collection Field"
                }
            },
            "completionInstructions": "Record the type of study treatment for which drug accountability is assessed (e.g., STUDY MEDICATION, RESCUE MEDICATION, COMPARATOR, PLACEBO).",
            "core": "O",
            "definition": "A grouping of topic-variable values based on user-defined characteristics.",
            "implementationNotes": "Sponsor-defined controlled terminology. If the protocol allows dispensing different types of study treatment (e.g., study medication, rescue medication, run-in medication) the CRF can capture the type of treatment using DACAT. This may be pre-printed on the CRF. If DACAT is not collected (e.g., it is evident from the protocol design), it could be populated during the SDTM-based dataset creation process. The value of DACAT would apply to all measurements on that record when mapped to SDTM. If needed, the CDASH variable [DATESTCD]_DACAT may be used to collect a category for each DATEST. See SDTMIG for examples on populating DACAT and DASCAT. This is an example of the type of CDASH variable names that can be used in a denormalized data structure.",
            "label": "DA Category of Assessment",
            "mappingInstructions": "Maps directly to the SDTMIG variable listed in the SDTMIG Target column.",
            "name": "[DATESTCD]_DACAT",
            "ordinal": "8",
            "prompt": "Treatment Type",
            "questionText": "What was the type of treatment for which drug accountability was assessed?",
            "simpleDatatype": "Char"
        },
        {
            "_links": {
                "parentProduct": {
                    "href": "/mdr/cdashig/2-2",
                    "title": "Clinical Data Acquisition Standards Harmonization Implementation Guide for Human Clinical Trials Version 2.2",
                    "type": "Implementation Guide"
                },
                "parentScenario": {
                    "href": "/mdr/cdashig/2-2/scenarios/DA.HorizontalGeneric",
                    "title": "Horizontal-Generic",
                    "type": "CDASH Scenario"
                },
                "priorVersion": {
                    "href": "/mdr/cdashig/2-1/scenarios/DA.Generic/fields/DASCAT",
                    "title": "DA Subcategory of Assessment",
                    "type": "Data Collection Field"
                },
                "rootItem": {
                    "href": "/mdr/root/cdashig/scenarios/DA.Generic/fields/DASCAT",
                    "title": "Version-agnostic anchor element for scenario field Horizontal-Generic.DASCAT",
                    "type": "Root Data Element"
                },
                "sdtmigDatasetMappingTargets": [
                    {
                        "href": "/mdr/sdtmig/3-3/datasets/DA/variables/DASCAT",
                        "title": "Subcategory",
                        "type": "SDTM Dataset Variable"
                    }
                ],
                "self": {
                    "href": "/mdr/cdashig/2-2/scenarios/DA.Generic/fields/DASCAT",
                    "title": "DA Subcategory of Assessment",
                    "type": "Data Collection Field"
                }
            },
            "completionInstructions": "Record the name of the study treatment dispensed (e.g., DRUG A, DRUG B, BOTTLE 1).",
            "core": "O",
            "definition": "A sub-division of the DACAT values based on user-defined characteristics.",
            "implementationNotes": "Sponsor-defined controlled terminology. This would most commonly be either a heading or a category value pre-printed on the CRF, not a question to which the site would provide an answer. If a question is asked, the response would typically be a sponsor-defined codelist. If the form is laid out as a grid, then words such as \"Subcategory\" can be included as the column header. If known at the time of data collection, the treatment name may be collected in DASCAT (with appropriate grouping values, but different from those for DACAT). The value of DASCAT would apply to all measurements on that record when mapped to SDTM. If needed, the CDASH variable [DATESTCD]_DASCAT may be used to collect a category for each DATEST. See SDTMIG for examples on populating DACAT and DASCAT. DASCAT can only be used if there is an DACAT, and it must be a subcategorization of DACAT.",
            "label": "DA Subcategory of Assessment",
            "mappingInstructions": "Maps directly to the SDTMIG variable listed in the SDTMIG Target column.",
            "name": "[DATESTCD]_DASCAT",
            "ordinal": "9",
            "prompt": "[DATEST] Treatment Name",
            "questionText": "What was the name of the treatment for which drug accountability was assessed?",
            "simpleDatatype": "Char"
        },
        {
            "_links": {
                "parentProduct": {
                    "href": "/mdr/cdashig/2-2",
                    "title": "Clinical Data Acquisition Standards Harmonization Implementation Guide for Human Clinical Trials Version 2.2",
                    "type": "Implementation Guide"
                },
                "parentScenario": {
                    "href": "/mdr/cdashig/2-2/scenarios/DA.HorizontalGeneric",
                    "title": "Horizontal-Generic",
                    "type": "CDASH Scenario"
                },
                "priorVersion": {
                    "href": "/mdr/cdashig/2-1/scenarios/DA.Generic/fields/DAREFID",
                    "title": "Drug Accountability Reference ID",
                    "type": "Data Collection Field"
                },
                "rootItem": {
                    "href": "/mdr/root/cdashig/scenarios/DA.Generic/fields/DAREFID",
                    "title": "Version-agnostic anchor element for scenario field Horizontal-Generic.DAREFID",
                    "type": "Root Data Element"
                },
                "sdtmigDatasetMappingTargets": [
                    {
                        "href": "/mdr/sdtmig/3-3/datasets/DA/variables/DAREFID",
                        "title": "Reference ID",
                        "type": "SDTM Dataset Variable"
                    }
                ],
                "self": {
                    "href": "/mdr/cdashig/2-2/scenarios/DA.Generic/fields/DAREFID",
                    "title": "Drug Accountability Reference ID",
                    "type": "Data Collection Field"
                }
            },
            "completionInstructions": "Record dispensed treatment label identifier.",
            "core": "O",
            "definition": "An internal or external identifier such as treatment label identifier (e.g., kit number, bottle label, vial identifier).",
            "implementationNotes": "The packaging identifier (e.g., kit number, bottle label, vial identifier) may be collected in different ways (e.g., affixing label onto CRF, scanning a bar code). For some study dosing regimens, greater granularity for treatment identifiers may be needed. In this situation, sponsors may need to use additional variables. This is an example of the type of CDASH variable names that can be used in a denormalized data structure.",
            "label": "Drug Accountability Reference ID",
            "mappingInstructions": "Maps directly to the SDTMIG variable listed in the SDTMIG Target column. May be used to create RELREC to link this record with a record in EX domain.",
            "name": "[DATESTCD]_DAREFID",
            "ordinal": "10",
            "prompt": "[DSTEST] Treatment Label Identifier",
            "questionText": "What is the [DATEST] treatment label identifier?",
            "simpleDatatype": "Char"
        },
        {
            "_links": {
                "parentProduct": {
                    "href": "/mdr/cdashig/2-2",
                    "title": "Clinical Data Acquisition Standards Harmonization Implementation Guide for Human Clinical Trials Version 2.2",
                    "type": "Implementation Guide"
                },
                "parentScenario": {
                    "href": "/mdr/cdashig/2-2/scenarios/DA.HorizontalGeneric",
                    "title": "Horizontal-Generic",
                    "type": "CDASH Scenario"
                },
                "priorVersion": {
                    "href": "/mdr/cdashig/2-1/scenarios/DA.Generic/fields/DADAT",
                    "title": "Drug Accountability Date of Assessment",
                    "type": "Data Collection Field"
                },
                "rootItem": {
                    "href": "/mdr/root/cdashig/scenarios/DA.Generic/fields/DADAT",
                    "title": "Version-agnostic anchor element for scenario field Horizontal-Generic.DADAT",
                    "type": "Root Data Element"
                },
                "sdtmigDatasetMappingTargets": [
                    {
                        "href": "/mdr/sdtmig/3-3/datasets/DA/variables/DADTC",
                        "title": "Date/Time of Collection",
                        "type": "SDTM Dataset Variable"
                    }
                ],
                "self": {
                    "href": "/mdr/cdashig/2-2/scenarios/DA.Generic/fields/DADAT",
                    "title": "Drug Accountability Date of Assessment",
                    "type": "Data Collection Field"
                }
            },
            "completionInstructions": "Record the date drug accountability was performed, using this format (DD-MON-YYYY).",
            "core": "R/C",
            "definition": "The date the study treatment was dispensed or returned, represented in an unambiguous date format (e.g., DD-MON-YYYY).",
            "implementationNotes": "The date study treatment dispensed/returned should be recorded for each dispensation for a study with multiple periods or multiple products dispensed. A single date may be collected when all observations are performed on the same date. The date of each observation can also be collected using the CDASH variable [DATESTCD]_DADAT. The date of the observation may be determined from a collected date of visit and in such cases a separate measurement date field is not required. This is an example the type of CDASH variable names that can be used in a denormalized data structure.",
            "label": "Drug Accountability Date of Assessment",
            "mappingInstructions": "This does not map directly to an SDTMIG variable. For the SDTM submission dataset, concatenate all collected CDASH DATE and TIME components and populate the SDTMIG variable DADTC in ISO 8601 format.",
            "name": "[DATESTCD]_DADAT",
            "ordinal": "11",
            "prompt": "[DATEST] Date",
            "questionText": "What was the date [DATEST] drug accountability was assessed?",
            "simpleDatatype": "Char"
        },
        {
            "_links": {
                "parentProduct": {
                    "href": "/mdr/cdashig/2-2",
                    "title": "Clinical Data Acquisition Standards Harmonization Implementation Guide for Human Clinical Trials Version 2.2",
                    "type": "Implementation Guide"
                },
                "parentScenario": {
                    "href": "/mdr/cdashig/2-2/scenarios/DA.HorizontalGeneric",
                    "title": "Horizontal-Generic",
                    "type": "CDASH Scenario"
                },
                "priorVersion": {
                    "href": "/mdr/cdashig/2-1/scenarios/DA.Generic/fields/DAORRES",
                    "title": "DA Assessment Result in Original Units",
                    "type": "Data Collection Field"
                },
                "rootItem": {
                    "href": "/mdr/root/cdashig/scenarios/DA.Generic/fields/DAORRES",
                    "title": "Version-agnostic anchor element for scenario field Horizontal-Generic.DAORRES",
                    "type": "Root Data Element"
                },
                "sdtmigDatasetMappingTargets": [
                    {
                        "href": "/mdr/sdtmig/3-3/datasets/DA/variables/DAORRES",
                        "title": "Result or Finding in Original Units",
                        "type": "SDTM Dataset Variable"
                    },
                    {
                        "href": "/mdr/sdtmig/3-3/datasets/DA/variables/DATEST",
                        "title": "Name of Accountability Assessment",
                        "type": "SDTM Dataset Variable"
                    },
                    {
                        "href": "/mdr/sdtmig/3-3/datasets/DA/variables/DATESTCD",
                        "title": "Short Name of Accountability Assessment",
                        "type": "SDTM Dataset Variable"
                    }
                ],
                "self": {
                    "href": "/mdr/cdashig/2-2/scenarios/DA.Generic/fields/DAORRES",
                    "title": "DA Assessment Result in Original Units",
                    "type": "Data Collection Field"
                }
            },
            "completionInstructions": "Record the result of the drug accountability assessment.",
            "core": "HR",
            "definition": "Result of the drug accountability assessment (e.g., actual amount).",
            "implementationNotes": "Each test may be collected using the CDASH variable [TESTCD] (e.g., RETAMT) or [TESTCD]_DAORRES, where TESTCD is the appropriate CT for the DA test code (e.g., RETAMT_DAORRES). For a study with multiple periods or multiple products dispensed, drug accountability amounts should be assessed for each dispensation and return. For the SDTM submission dataset, DAREFID should be used to link related records. This is an example of the types of CDASH variable names that can be used in a denormalized data structure.",
            "label": "DA Assessment Result in Original Units",
            "mappingInstructions": "Maps directly to the SDTMIG variable listed in the SDTMIG Target column. In addition to the SDTMIG variable DAORRES, create DATESTCD from the CDASH variable name and derive the value of DATEST from DATESTCD. The CDASH prompt may also contain DATEST. Use appropriate CDISC Controlled Terminology for the test and test code.",
            "name": "[DATESTCD]_DAORRES",
            "ordinal": "12",
            "prompt": "[DATEST] Amount",
            "questionText": "What is the amount of the [DATEST] drug accountability assessment?",
            "simpleDatatype": "Char"
        },
        {
            "_links": {
                "codelist": [
                    {
                        "href": "/mdr/root/ct/sdtmct/codelists/C71620",
                        "title": "Version-agnostic anchor resource for codelist C71620",
                        "type": "Root Value Domain"
                    },
                    {
                        "href": "/mdr/root/ct/cdashct/codelists/C78421",
                        "title": "Version-agnostic anchor resource for codelist C78421",
                        "type": "Root Value Domain"
                    }
                ],
                "parentProduct": {
                    "href": "/mdr/cdashig/2-2",
                    "title": "Clinical Data Acquisition Standards Harmonization Implementation Guide for Human Clinical Trials Version 2.2",
                    "type": "Implementation Guide"
                },
                "parentScenario": {
                    "href": "/mdr/cdashig/2-2/scenarios/DA.HorizontalGeneric",
                    "title": "Horizontal-Generic",
                    "type": "CDASH Scenario"
                },
                "priorVersion": {
                    "href": "/mdr/cdashig/2-1/scenarios/DA.Generic/fields/DAORRESU",
                    "title": "DA Original Units",
                    "type": "Data Collection Field"
                },
                "rootItem": {
                    "href": "/mdr/root/cdashig/scenarios/DA.Generic/fields/DAORRESU",
                    "title": "Version-agnostic anchor element for scenario field Horizontal-Generic.DAORRESU",
                    "type": "Root Data Element"
                },
                "sdtmigDatasetMappingTargets": [
                    {
                        "href": "/mdr/sdtmig/3-3/datasets/DA/variables/DAORRESU",
                        "title": "Original Units",
                        "type": "SDTM Dataset Variable"
                    }
                ],
                "self": {
                    "href": "/mdr/cdashig/2-2/scenarios/DA.Generic/fields/DAORRESU",
                    "title": "DA Original Units",
                    "type": "Data Collection Field"
                }
            },
            "completionInstructions": "Record or select the original units in which these data were collected, if not pre-printed on CRF.",
            "core": "HR",
            "definition": "The unit of the result as originally received or collected.",
            "implementationNotes": "The unit should be pre-printed on the CRF or a field provided on the CRF to capture it. This is an example of the types of CDASH variable names that can be used in a denormalized data structure.",
            "label": "DA Original Units",
            "mappingInstructions": "Maps directly to the SDTMIG variable listed in the SDTMIG Target column.",
            "name": "[DATESTCD]_DAORRESU",
            "ordinal": "13",
            "prompt": "[DATEST] Unit",
            "questionText": "What was the unit of the [DATEST] result?",
            "simpleDatatype": "Char"
        }
    ],
    "ordinal": "1",
    "scenario": "DA - Implementation Options: HorizontalGeneric"
}