{"_links": {"parentClass": {"href": "/mdr/cdashig/2-2/classes/Findings", "title": "Findings", "type": "Class"}, "parentDomain": {"href": "/mdr/cdashig/2-2/domains/DD", "title": "Death Details", "type": "CDASH Domain"}, "parentProduct": {"href": "/mdr/cdashig/2-2", "title": "Clinical Data Acquisition Standards Harmonization Implementation Guide for Human Clinical Trials Version 2.2", "type": "Implementation Guide"}, "priorVersion": {"href": "/mdr/cdashig/2-1/scenarios/DD.HorizontalGeneric", "title": "DD - Implementation Options: HorizontalGeneric", "type": "CDASH Scenario"}, "self": {"href": "/mdr/cdashig/2-2/scenarios/DD.HorizontalGeneric", "title": "Horizontal-Generic", "type": "CDASH Scenario"}}, "domain": "Death Details", "domainName": "DD", "fields": [{"_links": {"parentProduct": {"href": "/mdr/cdashig/2-2", "title": "Clinical Data Acquisition Standards Harmonization Implementation Guide for Human Clinical Trials Version 2.2", "type": "Implementation Guide"}, "parentScenario": {"href": "/mdr/cdashig/2-2/scenarios/DD.HorizontalGeneric", "title": "Horizontal-Generic", "type": "CDASH Scenario"}, "priorVersion": {"href": "/mdr/cdashig/2-1/scenarios/DD.Generic/fields/STUDYID", "title": "Study Identifier", "type": "Data Collection Field"}, "rootItem": {"href": "/mdr/root/cdashig/scenarios/DD.Generic/fields/STUDYID", "title": "Version-agnostic anchor element for scenario field Horizontal-Generic.STUDYID", "type": "Root Data Element"}, "sdtmigDatasetMappingTargets": [{"href": "/mdr/sdtmig/3-3/datasets/DD/variables/STUDYID", "title": "Study Identifier", "type": "SDTM Dataset Variable"}], "self": {"href": "/mdr/cdashig/2-2/scenarios/DD.Generic/fields/STUDYID", "title": "Study Identifier", "type": "Data Collection Field"}}, "core": "HR", "definition": "A unique identifier for a study.", "implementationNotes": "Although this field is not typically captured on a CRF, it should be displayed clearly on the CRF and/or in the EDC system. This field can be included in the database or populated during SDTM-based dataset creation before submission.", "label": "Study Identifier", "mappingInstructions": "Maps directly to the SDTMIG variable listed in the SDTMIG Target column.", "name": "STUDYID", "ordinal": "1", "prompt": "[Protocol/Study]", "questionText": "What is the study identifier?", "simpleDatatype": "Char"}, {"_links": {"parentProduct": {"href": "/mdr/cdashig/2-2", "title": "Clinical Data Acquisition Standards Harmonization Implementation Guide for Human Clinical Trials Version 2.2", "type": "Implementation Guide"}, "parentScenario": {"href": "/mdr/cdashig/2-2/scenarios/DD.HorizontalGeneric", "title": "Horizontal-Generic", "type": "CDASH Scenario"}, "priorVersion": {"href": "/mdr/cdashig/2-1/scenarios/DD.Generic/fields/SITEID", "title": "Study Site Identifier", "type": "Data Collection Field"}, "rootItem": {"href": "/mdr/root/cdashig/scenarios/DD.Generic/fields/SITEID", "title": "Version-agnostic anchor element for scenario field Horizontal-Generic.SITEID", "type": "Root Data Element"}, "sdtmigDatasetMappingTargets": [{"href": "/mdr/sdtmig/3-3/datasets/DM/variables/SITEID", "title": "Study Site Identifier", "type": "SDTM Dataset Variable"}], "self": {"href": "/mdr/cdashig/2-2/scenarios/DD.Generic/fields/SITEID", "title": "Study Site Identifier", "type": "Data Collection Field"}}, "core": "HR", "definition": "A unique identifier for a site within a study.", "implementationNotes": "Paper: This is typically pre-printed in the header of each CRF page for single-site studies. For studies with multiple sites, this field may be left blank so that the number can be recorded by the site, or it may be pre-printed on the CRFs that are shipped to each site. \\n EDC: This should be prepopulated.", "label": "Study Site Identifier", "mappingInstructions": "Maps directly to the SDTMIG variable listed in the SDTMIG Target column.", "name": "SITEID", "ordinal": "2", "prompt": "Site (Identifier)", "questionText": "What is the site identifier?", "simpleDatatype": "Char"}, {"_links": {"parentProduct": {"href": "/mdr/cdashig/2-2", "title": "Clinical Data Acquisition Standards Harmonization Implementation Guide for Human Clinical Trials Version 2.2", "type": "Implementation Guide"}, "parentScenario": {"href": "/mdr/cdashig/2-2/scenarios/DD.HorizontalGeneric", "title": "Horizontal-Generic", "type": "CDASH Scenario"}, "priorVersion": {"href": "/mdr/cdashig/2-1/scenarios/DD.Generic/fields/SUBJID", "title": "Subject Identifier for the Study", "type": "Data Collection Field"}, "rootItem": {"href": "/mdr/root/cdashig/scenarios/DD.Generic/fields/SUBJID", "title": "Version-agnostic anchor element for scenario field Horizontal-Generic.SUBJID", "type": "Root Data Element"}, "sdtmigDatasetMappingTargets": [{"href": "/mdr/sdtmig/3-3/datasets/DM/variables/SUBJID", "title": "Subject Identifier for the Study", "type": "SDTM Dataset Variable"}], "self": {"href": "/mdr/cdashig/2-2/scenarios/DD.Generic/fields/SUBJID", "title": "Subject Identifier for the Study", "type": "Data Collection Field"}}, "completionInstructions": "Record the identifier for the subject.", "core": "HR", "definition": "A unique subject identifier within a site and a study.", "implementationNotes": "Paper: This is typically recorded in the header of each CRF page. EDC: The subject identifiers may be system-generated. This CDASH variable is typically collected in all CDASH domains. However, this CDASH variable is populated only in the SDTMIG DM domain. For more information, refer to the SDTMIG.", "label": "Subject Identifier for the Study", "mappingInstructions": "Maps directly to the SDTMIG variable listed in the SDTMIG Target column.", "name": "SUBJID", "ordinal": "3", "prompt": "[Subject/Participant] (Identifier)", "questionText": "What [is/was] the (study) [subject/participant] identifier?", "simpleDatatype": "Char"}, {"_links": {"parentProduct": {"href": "/mdr/cdashig/2-2", "title": "Clinical Data Acquisition Standards Harmonization Implementation Guide for Human Clinical Trials Version 2.2", "type": "Implementation Guide"}, "parentScenario": {"href": "/mdr/cdashig/2-2/scenarios/DD.HorizontalGeneric", "title": "Horizontal-Generic", "type": "CDASH Scenario"}, "priorVersion": {"href": "/mdr/cdashig/2-1/scenarios/DD.Generic/fields/VISIT", "title": "Visit Name", "type": "Data Collection Field"}, "rootItem": {"href": "/mdr/root/cdashig/scenarios/DD.Generic/fields/VISIT", "title": "Version-agnostic anchor element for scenario field Horizontal-Generic.VISIT", "type": "Root Data Element"}, "self": {"href": "/mdr/cdashig/2-2/scenarios/DD.Generic/fields/VISIT", "title": "Visit Name", "type": "Data Collection Field"}}, "core": "R/C", "definition": "The name of a clinical encounter that encompasses planned and unplanned trial interventions, procedures, and assessments that may be performed on a subject.", "implementationNotes": "The name of the clinical encounter is typically pre-printed on the CRF or displayed in the EDC for any visit-based data collection, most often in Findings domains. This Visit text description is then available in any EDC data extract for that Findings domain.", "label": "Visit Name", "mappingInstructions": "Maps directly to the SDTMIG variable listed in the SDTMIG Target column.", "name": "VISIT", "ordinal": "4", "prompt": "[Visit]", "questionText": "What is the visit name?", "simpleDatatype": "Char"}, {"_links": {"parentProduct": {"href": "/mdr/cdashig/2-2", "title": "Clinical Data Acquisition Standards Harmonization Implementation Guide for Human Clinical Trials Version 2.2", "type": "Implementation Guide"}, "parentScenario": {"href": "/mdr/cdashig/2-2/scenarios/DD.HorizontalGeneric", "title": "Horizontal-Generic", "type": "CDASH Scenario"}, "priorVersion": {"href": "/mdr/cdashig/2-1/scenarios/DD.Generic/fields/VISDAT", "title": "Visit Date", "type": "Data Collection Field"}, "rootItem": {"href": "/mdr/root/cdashig/scenarios/DD.Generic/fields/VISDAT", "title": "Version-agnostic anchor element for scenario field Horizontal-Generic.VISDAT", "type": "Root Data Element"}, "self": {"href": "/mdr/cdashig/2-2/scenarios/DD.Generic/fields/VISDAT", "title": "Visit Date", "type": "Data Collection Field"}}, "completionInstructions": "Record the [date/start date] of the visit using this format (DD-MON-YYYY format).", "core": "R/C", "definition": "Date the clinical encounter occurred (or started).", "implementationNotes": "The date the death details assessments were reported can be determined from the Visit Date variable (VISDAT) and applying that date to all of the observations at that visit or the collection date can be included on the Death Detail CRF using the date (DDDAT) field.", "label": "Visit Date", "mappingInstructions": "This field is not an SDTM variable. The date of a measurement, test, observation can be determined from the date/time of visit (VISDAT/VISTIM) and then concatenating the CDASH VISDAT/VISTIM components and populating the SDTMIG variable DDDTC in ISO 8601 format.", "name": "VISDAT", "ordinal": "5", "prompt": "(Visit) Date", "questionText": "What [is/was] the date of the visit?", "simpleDatatype": "Char"}, {"_links": {"codelist": [{"href": "/mdr/root/ct/sdtmct/codelists/C66742", "title": "Version-agnostic anchor resource for codelist C66742", "type": "Root Value Domain"}], "parentProduct": {"href": "/mdr/cdashig/2-2", "title": "Clinical Data Acquisition Standards Harmonization Implementation Guide for Human Clinical Trials Version 2.2", "type": "Implementation Guide"}, "parentScenario": {"href": "/mdr/cdashig/2-2/scenarios/DD.HorizontalGeneric", "title": "Horizontal-Generic", "type": "CDASH Scenario"}, "priorVersion": {"href": "/mdr/cdashig/2-1/scenarios/DD.Generic/fields/DDYN", "title": "Any Death Detail Results", "type": "Data Collection Field"}, "rootItem": {"href": "/mdr/root/cdashig/scenarios/DD.Generic/fields/DDYN", "title": "Version-agnostic anchor element for scenario field Horizontal-Generic.DDYN", "type": "Root Data Element"}, "self": {"href": "/mdr/cdashig/2-2/scenarios/DD.Generic/fields/DDYN", "title": "Any Death Detail Results", "type": "Data Collection Field"}}, "completionInstructions": "Indicate if the death details are known. If Yes, include the appropriate details where indicated on the CRF.", "core": "O", "definition": "General prompt to establish whether any death details are available", "implementationNotes": "The intent/purpose of collecting this field is to help with data cleaning and monitoring. It provides verification if all other fields on the CRF were deliberately left blank.", "label": "Any Death Detail Results", "mappingInstructions": "Does not map to an SDTMIG variable. The SDTM annotated CRF indicates that this field is NOT SUBMITTED.", "name": "DDYN", "ordinal": "6", "prompt": "Any Death Detail Assessments", "questionText": "Were any death detail assessments collected?", "simpleDatatype": "Char"}, {"_links": {"parentProduct": {"href": "/mdr/cdashig/2-2", "title": "Clinical Data Acquisition Standards Harmonization Implementation Guide for Human Clinical Trials Version 2.2", "type": "Implementation Guide"}, "parentScenario": {"href": "/mdr/cdashig/2-2/scenarios/DD.HorizontalGeneric", "title": "Horizontal-Generic", "type": "CDASH Scenario"}, "priorVersion": {"href": "/mdr/cdashig/2-1/scenarios/DD.Generic/fields/DDCAT", "title": "Category for Death Details", "type": "Data Collection Field"}, "rootItem": {"href": "/mdr/root/cdashig/scenarios/DD.Generic/fields/DDCAT", "title": "Version-agnostic anchor element for scenario field Horizontal-Generic.DDCAT", "type": "Root Data Element"}, "self": {"href": "/mdr/cdashig/2-2/scenarios/DD.Generic/fields/DDCAT", "title": "Category for Death Details", "type": "Data Collection Field"}}, "completionInstructions": "Record the death detail category, if not pre-printed on the CRF", "core": "O", "definition": "A grouping of topic-variable values based on user defined characteristics", "implementationNotes": "Sponsor-defined controlled terminology. This would most commonly be either a heading, or a category value pre-printed on the CRF, not a question to which the site would provide an answer. If a question is asked, the response would typically be a sponsor-defined codelist. If the form is laid out as a grid, then words such as \"Category\" can be included as the column header.", "label": "Category for Death Details", "mappingInstructions": "Maps directly to the SDTMIG variable listed in the SDTMIG Target column.", "name": "DDCAT", "ordinal": "7", "prompt": "[Death Detail Assessment Category]; NULL", "questionText": "What is the category of the death detail assessment?", "simpleDatatype": "Char"}, {"_links": {"parentProduct": {"href": "/mdr/cdashig/2-2", "title": "Clinical Data Acquisition Standards Harmonization Implementation Guide for Human Clinical Trials Version 2.2", "type": "Implementation Guide"}, "parentScenario": {"href": "/mdr/cdashig/2-2/scenarios/DD.HorizontalGeneric", "title": "Horizontal-Generic", "type": "CDASH Scenario"}, "priorVersion": {"href": "/mdr/cdashig/2-1/scenarios/DD.Generic/fields/DDSCAT", "title": "Subcategory for Death Details", "type": "Data Collection Field"}, "rootItem": {"href": "/mdr/root/cdashig/scenarios/DD.Generic/fields/DDSCAT", "title": "Version-agnostic anchor element for scenario field Horizontal-Generic.DDSCAT", "type": "Root Data Element"}, "self": {"href": "/mdr/cdashig/2-2/scenarios/DD.Generic/fields/DDSCAT", "title": "Subcategory for Death Details", "type": "Data Collection Field"}}, "completionInstructions": "Record the death detail subcategory, if not pre-printed on the CRF.", "core": "O", "definition": "A sub-division of the DDCAT values based on user defined characteristics", "implementationNotes": "Sponsor-defined controlled terminology. This would most commonly be either a heading or a category value pre-printed on the CRF, not a question to which the site would provide an answer. If a question is asked, the response would typically be a sponsor-defined codelist. If the form is laid out as a grid, then words such as \"Subcategory\" can be included as the column header DDSCAT can only be used if there is an DDCAT, and it must be a subcategorization of DDCAT.", "label": "Subcategory for Death Details", "mappingInstructions": "Maps directly to the SDTMIG variable listed in the SDTMIG Target column.", "name": "DDSCAT", "ordinal": "8", "prompt": "[Death Detail Assessment Subcategory]; NULL", "questionText": "What is the subcategory of the death detail assessment?", "simpleDatatype": "Char"}, {"_links": {"parentProduct": {"href": "/mdr/cdashig/2-2", "title": "Clinical Data Acquisition Standards Harmonization Implementation Guide for Human Clinical Trials Version 2.2", "type": "Implementation Guide"}, "parentScenario": {"href": "/mdr/cdashig/2-2/scenarios/DD.HorizontalGeneric", "title": "Horizontal-Generic", "type": "CDASH Scenario"}, "priorVersion": {"href": "/mdr/cdashig/2-1/scenarios/DD.Generic/fields/DDDAT", "title": "Death Details Date of Collection", "type": "Data Collection Field"}, "rootItem": {"href": "/mdr/root/cdashig/scenarios/DD.Generic/fields/DDDAT", "title": "Version-agnostic anchor element for scenario field Horizontal-Generic.DDDAT", "type": "Root Data Element"}, "sdtmigDatasetMappingTargets": [{"href": "/mdr/sdtmig/3-3/datasets/DD/variables/DDDTC", "title": "Date/Time of Collection", "type": "SDTM Dataset Variable"}], "self": {"href": "/mdr/cdashig/2-2/scenarios/DD.Generic/fields/DDDAT", "title": "Death Details Date of Collection", "type": "Data Collection Field"}}, "completionInstructions": "Record the date of collection using this format (DD-MON-YYYY).", "core": "R/C", "definition": "The date of collection represented in an unambiguous date format (e.g., DD-MON-YYYY)", "implementationNotes": "A single date may be collected for all death detail assessments when they are collected on the same date. The date of collection of each assessment can also be collected using a CDASH variable [DTHDXCD]_DDDAT. The date of the assessment may be determined from a collected date of visit and in such cases a separate assessment date field is not required.", "label": "Death Details Date of Collection", "mappingInstructions": "This does not map directly to an SDTMIG variable. For the SDTM submission dataset, concatenate all collected CDASH DATE and TIME components and populate the SDTMIG variable DDDTC in ISO 8601 format.", "name": "[DTHDXCD]_DDDAT", "ordinal": "9", "prompt": "[DTHDX] Date", "questionText": "What was the date [DTHDX] assessment was collected?", "simpleDatatype": "Char"}, {"_links": {"parentProduct": {"href": "/mdr/cdashig/2-2", "title": "Clinical Data Acquisition Standards Harmonization Implementation Guide for Human Clinical Trials Version 2.2", "type": "Implementation Guide"}, "parentScenario": {"href": "/mdr/cdashig/2-2/scenarios/DD.HorizontalGeneric", "title": "Horizontal-Generic", "type": "CDASH Scenario"}, "priorVersion": {"href": "/mdr/cdashig/2-1/scenarios/DD.Generic/fields/DTHDAT", "title": "Date of Death", "type": "Data Collection Field"}, "rootItem": {"href": "/mdr/root/cdashig/scenarios/DD.Generic/fields/DTHDAT", "title": "Version-agnostic anchor element for scenario field Horizontal-Generic.DTHDAT", "type": "Root Data Element"}, "sdtmigDatasetMappingTargets": [{"href": "/mdr/sdtmig/3-3/datasets/DM/variables/DTHDTC", "title": "Date/Time of Death", "type": "SDTM Dataset Variable"}], "self": {"href": "/mdr/cdashig/2-2/scenarios/DD.Generic/fields/DTHDAT", "title": "Date of Death", "type": "Data Collection Field"}}, "completionInstructions": "Record the date of death.", "core": "O", "definition": "Date of death for any subject who died", "implementationNotes": "The CDASH model defines Death Date as a timing variable; this is not included as a timing variable in the SDTMIG. It may be collected on any CRF deemed appropriate by the sponsor, but should only be collected once. The SDTMIG variable DTHDTC is mapped to the DM domain during the SDTM submission dataset creation process. The SDTMIG variable DM.DTHFLG is not a CDASH variable, but it is typically populated during the SDTM submission dataset creation process. Death Date may be mapped to other SDTM domains (e.g., DS), as deemed appropriate by the sponsor.", "label": "Date of Death", "mappingInstructions": "This field does not map directly to an SDTMIG variable. For the SDTM dataset, concatenate all collected CDASH DATE and TIME components and populate the SDTM variable DTHDTC in ISO 8601 format.", "name": "DTHDAT", "ordinal": "10", "prompt": "Death Date", "questionText": "What was the subject's date of death?", "simpleDatatype": "Char"}, {"_links": {"parentProduct": {"href": "/mdr/cdashig/2-2", "title": "Clinical Data Acquisition Standards Harmonization Implementation Guide for Human Clinical Trials Version 2.2", "type": "Implementation Guide"}, "parentScenario": {"href": "/mdr/cdashig/2-2/scenarios/DD.HorizontalGeneric", "title": "Horizontal-Generic", "type": "CDASH Scenario"}, "priorVersion": {"href": "/mdr/cdashig/2-1/scenarios/DD.Generic/fields/DDORRES", "title": "Death Details Result or Finding", "type": "Data Collection Field"}, "rootItem": {"href": "/mdr/root/cdashig/scenarios/DD.Generic/fields/DDORRES", "title": "Version-agnostic anchor element for scenario field Horizontal-Generic.DDORRES", "type": "Root Data Element"}, "sdtmigDatasetMappingTargets": [{"href": "/mdr/sdtmig/3-3/datasets/DD/variables/DDORRES", "title": "Result or Finding as Collected", "type": "SDTM Dataset Variable"}, {"href": "/mdr/sdtmig/3-3/datasets/DD/variables/DDTEST", "title": "Death Detail Assessment Name", "type": "SDTM Dataset Variable"}, {"href": "/mdr/sdtmig/3-3/datasets/DD/variables/DDTESTCD", "title": "Death Detail Assessment Short Name", "type": "SDTM Dataset Variable"}], "self": {"href": "/mdr/cdashig/2-2/scenarios/DD.Generic/fields/DDORRES", "title": "Death Details Result or Finding", "type": "Data Collection Field"}}, "completionInstructions": "Record the death detail response.", "core": "HR", "definition": "Result of the death detail assessment, as originally received or collected", "implementationNotes": "Each test may be collected using the CDASH variable [TESTCD] (e.g., PRCDTH) or [TESTCD]_DDORRES where TESTCD is the appropriate CT for the DD test code e.g., PRCDTH_DDORRES. This variable name is an example of the types of CDASH variable names that can be used in a denormalized data structure.", "label": "Death Details Result or Finding", "mappingInstructions": "Maps directly to the SDTMIG variable listed in the SDTMIG Target column. In addition to the SDTMIG variable DDORRES, create DDTESTCD from the CDASH variable name and determine the value of DDTEST from DDTESTCD. The CDASH prompt may also contain the DDTEST. Use appropriate CDISC Controlled Terminology for the test and test code.", "name": "[DTHDXCD]_DDORRES", "ordinal": "11", "prompt": "Result", "questionText": "What was the death detail assessment result?", "simpleDatatype": "Char"}, {"_links": {"codelist": [{"href": "/mdr/root/ct/sdtmct/codelists/C78735", "title": "Version-agnostic anchor resource for codelist C78735", "type": "Root Value Domain"}], "parentProduct": {"href": "/mdr/cdashig/2-2", "title": "Clinical Data Acquisition Standards Harmonization Implementation Guide for Human Clinical Trials Version 2.2", "type": "Implementation Guide"}, "parentScenario": {"href": "/mdr/cdashig/2-2/scenarios/DD.HorizontalGeneric", "title": "Horizontal-Generic", "type": "CDASH Scenario"}, "priorVersion": {"href": "/mdr/cdashig/2-1/scenarios/DD.Generic/fields/DDEVAL", "title": "Death Details Evaluator", "type": "Data Collection Field"}, "rootItem": {"href": "/mdr/root/cdashig/scenarios/DD.Generic/fields/DDEVAL", "title": "Version-agnostic anchor element for scenario field Horizontal-Generic.DDEVAL", "type": "Root Data Element"}, "sdtmigDatasetMappingTargets": [{"href": "/mdr/sdtmig/3-3/datasets/DD/variables/DDEVAL", "title": "Evaluator", "type": "SDTM Dataset Variable"}], "self": {"href": "/mdr/cdashig/2-2/scenarios/DD.Generic/fields/DDEVAL", "title": "Death Details Evaluator", "type": "Data Collection Field"}}, "completionInstructions": "Select the role of the person who provided the evaluation (e.g., INVESTIGATOR, ADJUDICATION COMMITTEE, VENDOR).", "core": "O", "definition": "The role of the person who provided the information", "implementationNotes": "Used only for results that are subjective (e.g., assigned by a person or a group). May be pre-printed or collected. Sponsors may collect the data using a subset list of controlled terminology on the CRF.", "label": "Death Details Evaluator", "mappingInstructions": "Maps directly to the SDTMIG variable listed in the SDTMIG Target column.", "name": "DDEVAL", "ordinal": "12", "prompt": "[Evaluator/Reporter]", "questionText": "Who provided the death detail assessment information?", "simpleDatatype": "Char"}], "ordinal": "1", "scenario": "DD - Implementation Options: HorizontalGeneric"}
