{"_links": {"parentClass": {"href": "/mdr/cdashig/2-2/classes/SpecialPurpose", "title": "Special-Purpose", "type": "Class"}, "parentDomain": {"href": "/mdr/cdashig/2-2/domains/DM", "title": "Demographics", "type": "CDASH Domain"}, "parentProduct": {"href": "/mdr/cdashig/2-2", "title": "Clinical Data Acquisition Standards Harmonization Implementation Guide for Human Clinical Trials Version 2.2", "type": "Implementation Guide"}, "self": {"href": "/mdr/cdashig/2-2/scenarios/DM.BirthDateCollectionSingleDate", "title": "Birth date collection using a single date field", "type": "CDASH Scenario"}}, "domain": "Demographics", "domainName": "DM", "fields": [{"_links": {"parentProduct": {"href": "/mdr/cdashig/2-2", "title": "Clinical Data Acquisition Standards Harmonization Implementation Guide for Human Clinical Trials Version 2.2", "type": "Implementation Guide"}, "parentScenario": {"href": "/mdr/cdashig/2-2/scenarios/DM.BirthDateCollectionSingleDate", "title": "Birth date collection using a single date field", "type": "CDASH Scenario"}, "rootItem": {"href": "/mdr/root/cdashig/scenarios/DM.BirthDateCollectionSingleDate/fields/STUDYID", "title": "Version-agnostic anchor element for scenario field Birth Date Collection Single Date.STUDYID", "type": "Root Data Element"}, "sdtmigDatasetMappingTargets": [{"href": "/mdr/sdtmig/3-3/datasets/DM/variables/STUDYID", "title": "Study Identifier", "type": "SDTM Dataset Variable"}], "self": {"href": "/mdr/cdashig/2-2/scenarios/DM.BirthDateCollectionSingleDate/fields/STUDYID", "title": "Study Identifier", "type": "Data Collection Field"}}, "core": "HR", "definition": "A unique identifier for a study.", "implementationNotes": "Although this field is not typically captured on a CRF, it should be displayed clearly on the CRF and/or in the EDC system. This field can be included in the database or populated during SDTM-based dataset creation before submission.", "label": "Study Identifier", "mappingInstructions": "Maps directly to the SDTMIG variable listed in the SDTMIG Target column.", "name": "STUDYID", "ordinal": "1", "prompt": "[Protocol/Study]", "questionText": "What is the study identifier?", "simpleDatatype": "Char"}, {"_links": {"parentProduct": {"href": "/mdr/cdashig/2-2", "title": "Clinical Data Acquisition Standards Harmonization Implementation Guide for Human Clinical Trials Version 2.2", "type": "Implementation Guide"}, "parentScenario": {"href": "/mdr/cdashig/2-2/scenarios/DM.BirthDateCollectionSingleDate", "title": "Birth date collection using a single date field", "type": "CDASH Scenario"}, "rootItem": {"href": "/mdr/root/cdashig/scenarios/DM.BirthDateCollectionSingleDate/fields/SITEID", "title": "Version-agnostic anchor element for scenario field Birth Date Collection Single Date.SITEID", "type": "Root Data Element"}, "sdtmigDatasetMappingTargets": [{"href": "/mdr/sdtmig/3-3/datasets/DM/variables/SITEID", "title": "Study Site Identifier", "type": "SDTM Dataset Variable"}], "self": {"href": "/mdr/cdashig/2-2/scenarios/DM.BirthDateCollectionSingleDate/fields/SITEID", "title": "Study Site Identifier", "type": "Data Collection Field"}}, "core": "HR", "definition": "A unique identifier for a site within a study.", "implementationNotes": "Paper: This is typically pre-printed in the header of each CRF page for single-site studies. For studies with multiple sites, this field may be left blank so that the number can be recorded by the site, or it may be pre-printed on the CRFs that are shipped to each site. \\n EDC: This should be pre-populated.", "label": "Study Site Identifier", "mappingInstructions": "Maps directly to the SDTMIG variable listed in the SDTMIG Target column.", "name": "SITEID", "ordinal": "2", "prompt": "Site (Identifier)", "questionText": "What is the site identifier?", "simpleDatatype": "Char"}, {"_links": {"parentProduct": {"href": "/mdr/cdashig/2-2", "title": "Clinical Data Acquisition Standards Harmonization Implementation Guide for Human Clinical Trials Version 2.2", "type": "Implementation Guide"}, "parentScenario": {"href": "/mdr/cdashig/2-2/scenarios/DM.BirthDateCollectionSingleDate", "title": "Birth date collection using a single date field", "type": "CDASH Scenario"}, "rootItem": {"href": "/mdr/root/cdashig/scenarios/DM.BirthDateCollectionSingleDate/fields/SUBJID", "title": "Version-agnostic anchor element for scenario field Birth Date Collection Single Date.SUBJID", "type": "Root Data Element"}, "sdtmigDatasetMappingTargets": [{"href": "/mdr/sdtmig/3-3/datasets/DM/variables/SUBJID", "title": "Subject Identifier for the Study", "type": "SDTM Dataset Variable"}], "self": {"href": "/mdr/cdashig/2-2/scenarios/DM.BirthDateCollectionSingleDate/fields/SUBJID", "title": "Subject Identifier for the Study", "type": "Data Collection Field"}}, "completionInstructions": "Record the identifier for the subject.", "core": "HR", "definition": "A unique subject identifier within a site and a study.", "implementationNotes": "Paper: This is typically recorded in the header of each CRF page. EDC: The subject identifiers may be system-generated. This CDASH variable is typically collected in all CDASH domains. However, this CDASH variable is populated only in the SDTMIG DM domain. For more information, refer to the SDTMIG.", "label": "Subject Identifier for the Study", "mappingInstructions": "Maps directly to the SDTMIG variable listed in the SDTMIG Target column.", "name": "SUBJID", "ordinal": "3", "prompt": "[Subject/Participant] (Identifier)", "questionText": "What [is/was] the (study) [subject/participant] identifier?", "simpleDatatype": "Char"}, {"_links": {"parentProduct": {"href": "/mdr/cdashig/2-2", "title": "Clinical Data Acquisition Standards Harmonization Implementation Guide for Human Clinical Trials Version 2.2", "type": "Implementation Guide"}, "parentScenario": {"href": "/mdr/cdashig/2-2/scenarios/DM.BirthDateCollectionSingleDate", "title": "Birth date collection using a single date field", "type": "CDASH Scenario"}, "rootItem": {"href": "/mdr/root/cdashig/scenarios/DM.BirthDateCollectionSingleDate/fields/BRTHDAT", "title": "Version-agnostic anchor element for scenario field Birth Date Collection Single Date.BRTHDAT", "type": "Root Data Element"}, "sdtmigDatasetMappingTargets": [{"href": "/mdr/sdtmig/3-3/datasets/DM/variables/BRTHDTC", "title": "Date/Time of Birth", "type": "SDTM Dataset Variable"}], "self": {"href": "/mdr/cdashig/2-2/scenarios/DM.BirthDateCollectionSingleDate/fields/BRTHDAT", "title": "Birth Date", "type": "Data Collection Field"}}, "completionInstructions": "Record the date of birth to the level of precision known (e.g., day/month/year, year, month/year) in this format (DD-MON-YYYY).", "core": "R/C", "definition": "A subject's date of birth (with or without the time of birth). The complete Date of Birth is made from the temporal components of Birth Year, Birth Month, Birth Day, and Birth Time..", "implementationNotes": "BRTHDAT is the collected field used for recording the full birth date. The sponsor may choose to database the date of birth as a single variable (BRTHDAT), or as separate variables for each component of the date/time (BRTHYY, BRTHMO, BRTHDD, BRTHTIM). The sponsor may choose a method based on database considerations, or for regulatory reasons. It is expected that what is collected for BRTHDAT (e.g., complete date, selected components) is reported in the SDTMIG variable BRTHDTC in ISO 8601 format. If data are collected in a manner resulting in a reduced precision level, then AGE (SDTM expected variable), if not collected on the CRF, should be derived using a documented algorithm that describes how age was determined and/or imputed for those birth dates collected with reduced precision.", "label": "Birth Date", "mappingInstructions": "This does not map directly to an SDTMIG variable. For the SDTM submission dataset, concatenate all collected CDASH DATE and TIME components and populate the SDTMIG variable BRTHDTC in ISO 8601 format.", "name": "BRTHDAT", "ordinal": "4", "prompt": "Birth Date", "questionText": "What is the subject's date of birth?", "simpleDatatype": "Char"}, {"_links": {"parentProduct": {"href": "/mdr/cdashig/2-2", "title": "Clinical Data Acquisition Standards Harmonization Implementation Guide for Human Clinical Trials Version 2.2", "type": "Implementation Guide"}, "parentScenario": {"href": "/mdr/cdashig/2-2/scenarios/DM.BirthDateCollectionSingleDate", "title": "Birth date collection using a single date field", "type": "CDASH Scenario"}, "rootItem": {"href": "/mdr/root/cdashig/scenarios/DM.BirthDateCollectionSingleDate/fields/BRTHTIM", "title": "Version-agnostic anchor element for scenario field Birth Date Collection Single Date.BRTHTIM", "type": "Root Data Element"}, "sdtmigDatasetMappingTargets": [{"href": "/mdr/sdtmig/3-3/datasets/DM/variables/BRTHDTC", "title": "Date/Time of Birth", "type": "SDTM Dataset Variable"}], "self": {"href": "/mdr/cdashig/2-2/scenarios/DM.BirthDateCollectionSingleDate/fields/BRTHTIM", "title": "Birth Time", "type": "Data Collection Field"}}, "completionInstructions": "Record the time of birth (as completely as possible).", "core": "O", "definition": "The time of birth of the subject, in an unambiguous time format (e.g., hh:mm).", "implementationNotes": "The level of detail collected by Time of Birth may be necessary for analysis for some pediatric, natal, or neonatal studies. Sponsors may choose to database the date of birth as a single variable (BRTHDAT), or as separate variables for each component of the date/time (BRTHYY, BRTHMO, BRTHDD, BRTHTIM). The sponsor may choose a method based on database considerations, or for regulatory reasons. It is expected that what is collected for BRTHDAT (e.g., complete date, components) is reported in the SDTMIG variable BRTHDTC in the ISO 8601 format. If data are collected in a manner resulting in a reduced precision level, then AGE (SDTMIG expected variable), if not collected on the CRF, should be derived using a documented algorithm that describes how the age was derived and/or imputed for those birth dates collected with reduced precision.", "label": "Birth Time", "mappingInstructions": "This does not map directly to an SDTMIG variable. For the SDTM submission dataset, concatenate all collected CDASH DATE and TIME components and populate the SDTMIG variable BRTHDTC in ISO 8601 format.", "name": "BRTHTIM", "ordinal": "5", "prompt": "Birth Time", "questionText": "What is the subject's time of birth?", "simpleDatatype": "Char"}, {"_links": {"parentProduct": {"href": "/mdr/cdashig/2-2", "title": "Clinical Data Acquisition Standards Harmonization Implementation Guide for Human Clinical Trials Version 2.2", "type": "Implementation Guide"}, "parentScenario": {"href": "/mdr/cdashig/2-2/scenarios/DM.BirthDateCollectionSingleDate", "title": "Birth date collection using a single date field", "type": "CDASH Scenario"}, "rootItem": {"href": "/mdr/root/cdashig/scenarios/DM.BirthDateCollectionSingleDate/fields/AGE", "title": "Version-agnostic anchor element for scenario field Birth Date Collection Single Date.AGE", "type": "Root Data Element"}, "sdtmigDatasetMappingTargets": [{"href": "/mdr/sdtmig/3-3/datasets/DM/variables/AGE", "title": "Age", "type": "SDTM Dataset Variable"}], "self": {"href": "/mdr/cdashig/2-2/scenarios/DM.BirthDateCollectionSingleDate/fields/AGE", "title": "Age", "type": "Data Collection Field"}}, "completionInstructions": "Record age of the subject.", "core": "O", "definition": "The age of the subject, expressed in AGEU.", "implementationNotes": "If age is collected, it should be collected as a number and, to be correctly interpreted, the age value should be associated to a variable for the age unit. It may be necessary to know when the age was collected, as age may need to be recalculated for analysis, such as deriving age at a reference start time (RFSTDTC for SDTM). BRTHDTC may not be available in all cases (due to subject privacy concerns). If AGE is collected, then it is recommended that the date of collection also be recorded, either separately or by association to the date of the visit.", "label": "Age", "mappingInstructions": "Maps directly to the SDTMIG variable listed in the SDTMIG Target column.", "name": "AGE", "ordinal": "6", "prompt": "Age", "questionText": "What is the subject's age?", "simpleDatatype": "Num"}, {"_links": {"codelist": [{"href": "/mdr/root/ct/sdtmct/codelists/C66781", "title": "Version-agnostic anchor resource for codelist C66781", "type": "Root Value Domain"}], "parentProduct": {"href": "/mdr/cdashig/2-2", "title": "Clinical Data Acquisition Standards Harmonization Implementation Guide for Human Clinical Trials Version 2.2", "type": "Implementation Guide"}, "parentScenario": {"href": "/mdr/cdashig/2-2/scenarios/DM.BirthDateCollectionSingleDate", "title": "Birth date collection using a single date field", "type": "CDASH Scenario"}, "rootItem": {"href": "/mdr/root/cdashig/scenarios/DM.BirthDateCollectionSingleDate/fields/AGEU", "title": "Version-agnostic anchor element for scenario field Birth Date Collection Single Date.AGEU", "type": "Root Data Element"}, "sdtmigDatasetMappingTargets": [{"href": "/mdr/sdtmig/3-3/datasets/DM/variables/AGEU", "title": "Age Units", "type": "SDTM Dataset Variable"}], "self": {"href": "/mdr/cdashig/2-2/scenarios/DM.BirthDateCollectionSingleDate/fields/AGEU", "title": "Age Units", "type": "Data Collection Field"}}, "completionInstructions": "Record the appropriate age unit (e.g., YEARS, MONTHS, WEEKS, etc.).", "core": "O", "definition": "Units of time that are routinely used to express the age of a person", "implementationNotes": "If age is captured on the CRF, the age unit must be known to make the age value meaningful. The age unit might be collected on the CRF, in those cases where the protocol allows for any age group, or it may be pre-printed on the CRF (typically with the unit of \"years\").", "label": "Age Units", "mappingInstructions": "Maps directly to the SDTMIG variable listed in the SDTMIG Target column.", "name": "AGEU", "ordinal": "7", "prompt": "Age Unit", "questionText": "What is the age unit used?", "simpleDatatype": "Char"}, {"_links": {"parentProduct": {"href": "/mdr/cdashig/2-2", "title": "Clinical Data Acquisition Standards Harmonization Implementation Guide for Human Clinical Trials Version 2.2", "type": "Implementation Guide"}, "parentScenario": {"href": "/mdr/cdashig/2-2/scenarios/DM.BirthDateCollectionSingleDate", "title": "Birth date collection using a single date field", "type": "CDASH Scenario"}, "rootItem": {"href": "/mdr/root/cdashig/scenarios/DM.BirthDateCollectionSingleDate/fields/DMDAT", "title": "Version-agnostic anchor element for scenario field Birth Date Collection Single Date.DMDAT", "type": "Root Data Element"}, "sdtmigDatasetMappingTargets": [{"href": "/mdr/sdtmig/3-3/datasets/DM/variables/DMDTC", "title": "Date/Time of Collection", "type": "SDTM Dataset Variable"}], "self": {"href": "/mdr/cdashig/2-2/scenarios/DM.BirthDateCollectionSingleDate/fields/DMDAT", "title": "Demographics Collection Date", "type": "Data Collection Field"}}, "completionInstructions": "Record the date of collection using this format (DD-MON-YYYY).", "core": "R/C", "definition": "The date of collection, represented in an unambiguous date format (e.g., DD-MON-YYYY).", "implementationNotes": "The date of collection may be determined from the date of visit; if so, a separate date field is not needed.", "label": "Demographics Collection Date", "mappingInstructions": "This does not map directly to an SDTMIG variable. For the SDTM submission dataset, concatenate all collected CDASH DATE and TIME components and populate the SDTMIG variable DMDTC in ISO 8601 format.", "name": "DMDAT", "ordinal": "8", "prompt": "Collection Date", "questionText": "What is the date of collection?", "simpleDatatype": "Char"}, {"_links": {"codelist": [{"href": "/mdr/root/ct/sdtmct/codelists/C66731", "title": "Version-agnostic anchor resource for codelist C66731", "type": "Root Value Domain"}], "parentProduct": {"href": "/mdr/cdashig/2-2", "title": "Clinical Data Acquisition Standards Harmonization Implementation Guide for Human Clinical Trials Version 2.2", "type": "Implementation Guide"}, "parentScenario": {"href": "/mdr/cdashig/2-2/scenarios/DM.BirthDateCollectionSingleDate", "title": "Birth date collection using a single date field", "type": "CDASH Scenario"}, "rootItem": {"href": "/mdr/root/cdashig/scenarios/DM.BirthDateCollectionSingleDate/fields/SEX", "title": "Version-agnostic anchor element for scenario field Birth Date Collection Single Date.SEX", "type": "Root Data Element"}, "sdtmigDatasetMappingTargets": [{"href": "/mdr/sdtmig/3-3/datasets/DM/variables/SEX", "title": "Sex", "type": "SDTM Dataset Variable"}], "self": {"href": "/mdr/cdashig/2-2/scenarios/DM.BirthDateCollectionSingleDate/fields/SEX", "title": "Sex", "type": "Data Collection Field"}}, "completionInstructions": "Record the appropriate sex (e.g., F (female), M (male).", "core": "R/C", "definition": "Sex of the subject, as determined by the investigator.", "implementationNotes": "Collect the subject's sex or gender, as reported by the investigator. This is a phenotypic assessment and not a genotypic assessment.", "label": "Sex", "mappingInstructions": "Maps directly to the SDTMIG variable listed in the SDTMIG Target column.", "name": "SEX", "ordinal": "9", "prompt": "Sex", "questionText": "What is the sex of the subject?", "simpleDatatype": "Char"}, {"_links": {"codelist": [{"href": "/mdr/root/ct/sdtmct/codelists/C66790", "title": "Version-agnostic anchor resource for codelist C66790", "type": "Root Value Domain"}], "parentProduct": {"href": "/mdr/cdashig/2-2", "title": "Clinical Data Acquisition Standards Harmonization Implementation Guide for Human Clinical Trials Version 2.2", "type": "Implementation Guide"}, "parentScenario": {"href": "/mdr/cdashig/2-2/scenarios/DM.BirthDateCollectionSingleDate", "title": "Birth date collection using a single date field", "type": "CDASH Scenario"}, "rootItem": {"href": "/mdr/root/cdashig/scenarios/DM.BirthDateCollectionSingleDate/fields/ETHNIC", "title": "Version-agnostic anchor element for scenario field Birth Date Collection Single Date.ETHNIC", "type": "Root Data Element"}, "sdtmigDatasetMappingTargets": [{"href": "/mdr/sdtmig/3-3/datasets/DM/variables/ETHNIC", "title": "Ethnicity", "type": "SDTM Dataset Variable"}], "self": {"href": "/mdr/cdashig/2-2/scenarios/DM.BirthDateCollectionSingleDate/fields/ETHNIC", "title": "Ethnicity", "type": "Data Collection Field"}}, "completionInstructions": "Study participants should self-report ethnicity, with ethnicity being asked about before race.", "core": "O", "definition": "A social group characterized by a distinctive social and cultural tradition maintained from generation to generation, a common history and origin and a sense of identification with the group; members of the group have distinctive features in their way of life, shared experiences and often a common genetic heritage; these features may be reflected in their experience of health and disease..", "implementationNotes": "For use when values are being collected using the exact non-extensible ETHNIC codelist (C66790) values. Sponsors should refer to the FDA's Collection of Race and Ethnicity Data in Clinical Trials guidance regarding the collection of ethnicity (http://www.fda.gov/).", "label": "Ethnicity", "mappingInstructions": "Maps directly to the SDTMIG variable listed in the SDTMIG Target column.", "name": "ETHNIC", "ordinal": "10", "prompt": "Ethnicity", "questionText": "Do you consider yourself Hispanic/Latino or not Hispanic/Latino?", "simpleDatatype": "Char"}, {"_links": {"codelist": [{"href": "/mdr/root/ct/sdtmct/codelists/C128690", "title": "Version-agnostic anchor resource for codelist C128690", "type": "Root Value Domain"}], "parentProduct": {"href": "/mdr/cdashig/2-2", "title": "Clinical Data Acquisition Standards Harmonization Implementation Guide for Human Clinical Trials Version 2.2", "type": "Implementation Guide"}, "parentScenario": {"href": "/mdr/cdashig/2-2/scenarios/DM.BirthDateCollectionSingleDate", "title": "Birth date collection using a single date field", "type": "CDASH Scenario"}, "rootItem": {"href": "/mdr/root/cdashig/scenarios/DM.BirthDateCollectionSingleDate/fields/CETHNIC", "title": "Version-agnostic anchor element for scenario field Birth Date Collection Single Date.CETHNIC", "type": "Root Data Element"}, "sdtmigDatasetMappingTargets": [{"href": "/mdr/sdtmig/3-3/datasets/SUPPQUAL/variables/QVAL", "title": "Data Value", "type": "SDTM Dataset Variable"}], "self": {"href": "/mdr/cdashig/2-2/scenarios/DM.BirthDateCollectionSingleDate/fields/CETHNIC", "title": "Collected Ethnicity", "type": "Data Collection Field"}}, "completionInstructions": "Study participants should self-report ethnicity, with ethnicity being asked about before race.", "core": "O", "definition": "A social group characterized by a distinctive social and cultural tradition maintained from generation to generation, a common history and origin and a sense of identification with the group; members of the group have distinctive features in their way of life, shared experiences, and often a common genetic heritage; these features may be reflected in their experience of health and disease.", "implementationNotes": "Use when values are collected using the NCI Thesaurus codelist for Ethnicity As Collected (C128690), the extended HL7 hierarchy of codelist values, or other regulatory agency-specific controlled terminology for ethnic group. Sponsors may append a suffix to denote multiple collected ethnicities (e.g. CETHNIC1, CETHNIC2).", "label": "Collected Ethnicity", "mappingInstructions": "This does not map directly to an SDTMIG variable. This information could be submitted in a SUPPDM dataset as the value of SUPPDM.QVAL where SUPPDM.QNAM = \"CETHNIC\" and SUPPDM.QLABEL= \"Collected Ethnicity\". See SDTMIG DM domain. Refer to the current SDTM and SDTMIG for instructions on placement of non-standard variables in SDTM domains.", "name": "CETHNIC", "ordinal": "11", "prompt": "Ethnicity", "questionText": "What is the ethnicity of the subject?", "simpleDatatype": "Char"}, {"_links": {"codelist": [{"href": "/mdr/root/ct/sdtmct/codelists/C74457", "title": "Version-agnostic anchor resource for codelist C74457", "type": "Root Value Domain"}], "parentProduct": {"href": "/mdr/cdashig/2-2", "title": "Clinical Data Acquisition Standards Harmonization Implementation Guide for Human Clinical Trials Version 2.2", "type": "Implementation Guide"}, "parentScenario": {"href": "/mdr/cdashig/2-2/scenarios/DM.BirthDateCollectionSingleDate", "title": "Birth date collection using a single date field", "type": "CDASH Scenario"}, "rootItem": {"href": "/mdr/root/cdashig/scenarios/DM.BirthDateCollectionSingleDate/fields/RACE", "title": "Version-agnostic anchor element for scenario field Birth Date Collection Single Date.RACE", "type": "Root Data Element"}, "sdtmigDatasetMappingTargets": [{"href": "/mdr/sdtmig/3-3/datasets/DM/variables/RACE", "title": "Race", "type": "SDTM Dataset Variable"}], "self": {"href": "/mdr/cdashig/2-2/scenarios/DM.BirthDateCollectionSingleDate/fields/RACE", "title": "Race", "type": "Data Collection Field"}}, "completionInstructions": "Study participants should self-report race, with race being asked about after ethnicity.", "core": "R/C", "definition": "An arbitrary classification based on physical characteristics; a group of persons related by common descent or heredity (US Center for Disease Control).", "implementationNotes": "In the US, use RACE when collecting the 5 FDA designations for race (i.e., American Indian or Alaska Native, Asian, Black or African American, Native Hawaiian or Other Pacific Islander, White; see (http://www.fda.gov/). See also the SDTMIG DM domain. For studies where data are collected outside the US, the recommended categories are the same except for Black instead of Black or African American. If multiple races are collected, an alternate sponsor-defined variable structure would be required. Sponsors may record multiple self-reported races for a subject by appending a suffix to denote multiple collected races (e.g., RACE1, RACE2) and populate RACE with the value MULTIPLE.", "label": "Race", "mappingInstructions": "Maps directly to the SDTMIG variable listed in the SDTMIG Target column.", "name": "RACE", "ordinal": "12", "prompt": "Race", "questionText": "Which of the following five racial designations best describes you? (More than one choice is acceptable.)", "simpleDatatype": "Char"}, {"_links": {"codelist": [{"href": "/mdr/root/ct/sdtmct/codelists/C128689", "title": "Version-agnostic anchor resource for codelist C128689", "type": "Root Value Domain"}], "parentProduct": {"href": "/mdr/cdashig/2-2", "title": "Clinical Data Acquisition Standards Harmonization Implementation Guide for Human Clinical Trials Version 2.2", "type": "Implementation Guide"}, "parentScenario": {"href": "/mdr/cdashig/2-2/scenarios/DM.BirthDateCollectionSingleDate", "title": "Birth date collection using a single date field", "type": "CDASH Scenario"}, "rootItem": {"href": "/mdr/root/cdashig/scenarios/DM.BirthDateCollectionSingleDate/fields/CRACE", "title": "Version-agnostic anchor element for scenario field Birth Date Collection Single Date.CRACE", "type": "Root Data Element"}, "sdtmigDatasetMappingTargets": [{"href": "/mdr/sdtmig/3-3/datasets/SUPPQUAL/variables/QVAL", "title": "Data Value", "type": "SDTM Dataset Variable"}], "self": {"href": "/mdr/cdashig/2-2/scenarios/DM.BirthDateCollectionSingleDate/fields/CRACE", "title": "Collected Race", "type": "Data Collection Field"}}, "completionInstructions": "Study participants should self-report race, with race being asked about after ethnicity. (The FDA guidance suggests that individuals be permitted to designate a multiracial identity. Check all that apply at the time of collection).", "core": "R/C", "definition": "An arbitrary classification based on physical characteristics; a group of persons related by common descent or heredity (US Centers for Disease Control).", "implementationNotes": "Use CRACE when more detailed race categorizations are desired (e.g., more than the 5 FDA). The HL7 Reference Information Model Structural Vocabulary Tables are designed to collapse up to the SDTM variable RACE with CT (e.g., American Indian or Alaska Native Asian, Black or African American, Native Hawaiian or Other Pacific Islander, White). If sponsors choose to map the extended Race codelist values to RACE CT (e.g., Japanese to Asian), then this mapped variable would be reported using the SDTMIG variable RACE. Sponsors should refer to the FDA guidance (http://www.fda.gov/). For studies where data are collected outside the US, the recommended categories are the same except for Black instead of Black or African American. If multiple races are collected, an alternate sponsor-defined variable structure would be required. Sponsors may record multiple self-reported races for a subject by appending a suffix to denote multiple collected races (e.g. CRACE1, CRACE2) and populate CRACE with the value MULTIPLE.", "label": "Collected Race", "mappingInstructions": "This does not map directly to an SDTMIG variable. This information could be submitted in a SUPPDM dataset as the value of SUPPDM.QVAL when SUPPDM.QNAM = \"CRACE\" and SUPPDM.QLABEL=\"Collected Race\". See SDTMIG DM Domain.", "name": "CRACE", "ordinal": "13", "prompt": "Race", "questionText": "Which of the following racial designations best describes you? (More than one choice is acceptable.)", "simpleDatatype": "Char"}, {"_links": {"parentProduct": {"href": "/mdr/cdashig/2-2", "title": "Clinical Data Acquisition Standards Harmonization Implementation Guide for Human Clinical Trials Version 2.2", "type": "Implementation Guide"}, "parentScenario": {"href": "/mdr/cdashig/2-2/scenarios/DM.BirthDateCollectionSingleDate", "title": "Birth date collection using a single date field", "type": "CDASH Scenario"}, "rootItem": {"href": "/mdr/root/cdashig/scenarios/DM.BirthDateCollectionSingleDate/fields/RACEOTH", "title": "Version-agnostic anchor element for scenario field Birth Date Collection Single Date.RACEOTH", "type": "Root Data Element"}, "sdtmigDatasetMappingTargets": [{"href": "/mdr/sdtmig/3-3/datasets/SUPPQUAL/variables/QVAL", "title": "Data Value", "type": "SDTM Dataset Variable"}], "self": {"href": "/mdr/cdashig/2-2/scenarios/DM.BirthDateCollectionSingleDate/fields/RACEOTH", "title": "Race Other", "type": "Data Collection Field"}}, "completionInstructions": "If none of the pre-printed values for RACE are applicable or if another, unprinted selection should be added to those pre-printed values, record the value in this free-text field.", "core": "O", "definition": "A free-text field to be used when none of the pre-printed values for RACE are applicable or if another, unprinted selection should be added to those pre-printed values.", "implementationNotes": "When creating the DM form, it is suggested that the 5 standard FDA race categories be included. Sponsors may choose to include another value (\"Specify, Other\") with a free-text field for extending the list of values. The RACEOTH variable contains the free text added by the site. The value(s) added in the optional variable might or might not collapse up into one of the 5 FDA categories. See SDTMIG DM domain examples for reporting this implementation.", "label": "Race Other", "mappingInstructions": "This does not map directly to an SDTMIG variable. This information could be submitted in a SUPPDM dataset as the value of SUPPDM.QVAL where SUPPDM.QNAM = \"RACEOTH\" and SUPP.QLABEL=\"RACE OTHER\". See SDTMIG DM Domain. Refer to the current SDTM and SDTMIG for instructions on placement of non-standard variables in SDTM domains.", "name": "RACEOTH", "ordinal": "14", "prompt": "Specify Other Race", "questionText": "What was the other race?", "simpleDatatype": "Char"}], "ordinal": "2", "scenario": "Birth date collection using a single date field"}
