{"_links": {"parentClass": {"href": "/mdr/cdashig/2-2/classes/Events", "title": "Events", "type": "Class"}, "parentDomain": {"href": "/mdr/cdashig/2-2/domains/DS", "title": "Disposition", "type": "CDASH Domain"}, "parentProduct": {"href": "/mdr/cdashig/2-2", "title": "Clinical Data Acquisition Standards Harmonization Implementation Guide for Human Clinical Trials Version 2.2", "type": "Implementation Guide"}, "self": {"href": "/mdr/cdashig/2-2/scenarios/DS.ProtocolMilestone", "title": "PROTOCOL MILESTONE/OTHER EVENT", "type": "CDASH Scenario"}}, "domain": "Disposition", "domainName": "DS", "fields": [{"_links": {"parentProduct": {"href": "/mdr/cdashig/2-2", "title": "Clinical Data Acquisition Standards Harmonization Implementation Guide for Human Clinical Trials Version 2.2", "type": "Implementation Guide"}, "parentScenario": {"href": "/mdr/cdashig/2-2/scenarios/DS.ProtocolMilestone", "title": "PROTOCOL MILESTONE/OTHER EVENT", "type": "CDASH Scenario"}, "rootItem": {"href": "/mdr/root/cdashig/scenarios/DS.ProtocolMilestone/fields/STUDYID", "title": "Version-agnostic anchor element for scenario field Protocol Milestone.STUDYID", "type": "Root Data Element"}, "sdtmigDatasetMappingTargets": [{"href": "/mdr/sdtmig/3-3/datasets/DS/variables/STUDYID", "title": "Study Identifier", "type": "SDTM Dataset Variable"}], "self": {"href": "/mdr/cdashig/2-2/scenarios/DS.ProtocolMilestone/fields/STUDYID", "title": "Study Identifier", "type": "Data Collection Field"}}, "core": "HR", "definition": "A unique identifier for a study.", "implementationNotes": "Although this field is not typically captured on a CRF, it should be displayed clearly on the CRF and/or in the EDC system. This field can be included in the database or populated during SDTM-based dataset creation before submission.", "label": "Study Identifier", "mappingInstructions": "Maps directly to the SDTMIG variable listed in the SDTMIG Target column.", "name": "STUDYID", "ordinal": "1", "prompt": "[Protocol/Study]", "questionText": "What is the study identifier?", "simpleDatatype": "Char"}, {"_links": {"parentProduct": {"href": "/mdr/cdashig/2-2", "title": "Clinical Data Acquisition Standards Harmonization Implementation Guide for Human Clinical Trials Version 2.2", "type": "Implementation Guide"}, "parentScenario": {"href": "/mdr/cdashig/2-2/scenarios/DS.ProtocolMilestone", "title": "PROTOCOL MILESTONE/OTHER EVENT", "type": "CDASH Scenario"}, "rootItem": {"href": "/mdr/root/cdashig/scenarios/DS.ProtocolMilestone/fields/SITEID", "title": "Version-agnostic anchor element for scenario field Protocol Milestone.SITEID", "type": "Root Data Element"}, "sdtmigDatasetMappingTargets": [{"href": "/mdr/sdtmig/3-3/datasets/DM/variables/SITEID", "title": "Study Site Identifier", "type": "SDTM Dataset Variable"}], "self": {"href": "/mdr/cdashig/2-2/scenarios/DS.ProtocolMilestone/fields/SITEID", "title": "Study Site Identifier", "type": "Data Collection Field"}}, "core": "HR", "definition": "A unique identifier for a site within a study.", "implementationNotes": "Paper: This is typically pre-printed in the header of each CRF page for single-site studies. For studies with multiple sites, this field may be left blank so that the number can be recorded by the site, or it may be pre-printed on the CRFs that are shipped to each site. \\n EDC: This should be prepopulated.", "label": "Study Site Identifier", "mappingInstructions": "Maps directly to the SDTMIG variable listed in the SDTMIG Target column.", "name": "SITEID", "ordinal": "2", "prompt": "Site (Identifier)", "questionText": "What is the site identifier?", "simpleDatatype": "Char"}, {"_links": {"parentProduct": {"href": "/mdr/cdashig/2-2", "title": "Clinical Data Acquisition Standards Harmonization Implementation Guide for Human Clinical Trials Version 2.2", "type": "Implementation Guide"}, "parentScenario": {"href": "/mdr/cdashig/2-2/scenarios/DS.ProtocolMilestone", "title": "PROTOCOL MILESTONE/OTHER EVENT", "type": "CDASH Scenario"}, "rootItem": {"href": "/mdr/root/cdashig/scenarios/DS.ProtocolMilestone/fields/SUBJID", "title": "Version-agnostic anchor element for scenario field Protocol Milestone.SUBJID", "type": "Root Data Element"}, "sdtmigDatasetMappingTargets": [{"href": "/mdr/sdtmig/3-3/datasets/DM/variables/SUBJID", "title": "Subject Identifier for the Study", "type": "SDTM Dataset Variable"}], "self": {"href": "/mdr/cdashig/2-2/scenarios/DS.ProtocolMilestone/fields/SUBJID", "title": "Subject Identifier for the Study", "type": "Data Collection Field"}}, "completionInstructions": "Record the identifier for the subject.", "core": "HR", "definition": "A unique subject identifier within a site and a study.", "implementationNotes": "Paper: This is typically recorded in the header of each CRF page. EDC: The subject identifiers may be system-generated. This CDASH variable is typically collected in all CDASH domains. However, this CDASH variable is populated only in the SDTMIG DM domain. For more information, refer to the SDTMIG.", "label": "Subject Identifier for the Study", "mappingInstructions": "Maps directly to the SDTMIG variable listed in the SDTMIG Target column.", "name": "SUBJID", "ordinal": "3", "prompt": "[Subject/Participant] (Identifier)", "questionText": "What [is/was] the (study) [subject/participant] identifier?", "simpleDatatype": "Char"}, {"_links": {"codelist": [{"href": "/mdr/root/ct/sdtmct/codelists/C74558", "title": "Version-agnostic anchor resource for codelist C74558", "type": "Root Value Domain"}], "parentProduct": {"href": "/mdr/cdashig/2-2", "title": "Clinical Data Acquisition Standards Harmonization Implementation Guide for Human Clinical Trials Version 2.2", "type": "Implementation Guide"}, "parentScenario": {"href": "/mdr/cdashig/2-2/scenarios/DS.ProtocolMilestone", "title": "PROTOCOL MILESTONE/OTHER EVENT", "type": "CDASH Scenario"}, "rootItem": {"href": "/mdr/root/cdashig/scenarios/DS.ProtocolMilestone/fields/DSCAT", "title": "Version-agnostic anchor element for scenario field Protocol Milestone.DSCAT", "type": "Root Data Element"}, "sdtmigDatasetMappingTargets": [{"href": "/mdr/sdtmig/3-3/datasets/DS/variables/DSCAT", "title": "Category for Disposition Event", "type": "SDTM Dataset Variable"}], "self": {"href": "/mdr/cdashig/2-2/scenarios/DS.ProtocolMilestone/fields/DSCAT", "title": "Category for Disposition Event", "type": "Data Collection Field"}}, "completionInstructions": "If collected on the CRF, the sponsor provides instructions to ensure the data is entered as intended.", "core": "HR", "definition": "A categorization of the disposition events, which is used to distinguish between disposition events, protocol milestones, and other events.", "implementationNotes": "This would most commonly be a heading on the CRF or screen, not a question to which the site would provide an answer. In this implementation scenario, DSCAT=\"PROTOCOL MILESTONE\" or \"OTHER EVENT\".", "label": "Category for Disposition Event", "mappingInstructions": "Maps directly to the SDTMIG variable listed in the SDTMIG Target column.", "name": "DSCAT", "ordinal": "4", "prompt": "[Disposition Category]", "questionText": "What was the category of the disposition?", "simpleDatatype": "Char"}, {"_links": {"parentProduct": {"href": "/mdr/cdashig/2-2", "title": "Clinical Data Acquisition Standards Harmonization Implementation Guide for Human Clinical Trials Version 2.2", "type": "Implementation Guide"}, "parentScenario": {"href": "/mdr/cdashig/2-2/scenarios/DS.ProtocolMilestone", "title": "PROTOCOL MILESTONE/OTHER EVENT", "type": "CDASH Scenario"}, "rootItem": {"href": "/mdr/root/cdashig/scenarios/DS.ProtocolMilestone/fields/DSSCAT", "title": "Version-agnostic anchor element for scenario field Protocol Milestone.DSSCAT", "type": "Root Data Element"}, "sdtmigDatasetMappingTargets": [{"href": "/mdr/sdtmig/3-3/datasets/DS/variables/DSSCAT", "title": "Subcategory for Disposition Event", "type": "SDTM Dataset Variable"}], "self": {"href": "/mdr/cdashig/2-2/scenarios/DS.ProtocolMilestone/fields/DSSCAT", "title": "Subcategory for Disposition Event", "type": "Data Collection Field"}}, "completionInstructions": "If collected on the CRF, the sponsor provides instructions to ensure the data is entered as intended.", "core": "O", "definition": "A sub-division of the DSCAT values based on user-defined characteristics.", "implementationNotes": "Sponsor-defined controlled terminology. This would most commonly be pre-printed on the CRF or screen and pre-populated in the data management system. This is not typically a question to which the site would provide an answer. DSSCAT can only be used if there is an DSCAT and it must be a subcategorization of the Protocol Milestone or Other Event.", "label": "Subcategory for Disposition Event", "mappingInstructions": "Maps directly to the SDTMIG variable listed in the SDTMIG Target column.", "name": "DSSCAT", "ordinal": "5", "prompt": "[Disposition Subcategory]; NULL", "questionText": "What was the subcategory of the disposition?", "simpleDatatype": "Char"}, {"_links": {"codelist": [{"href": "/mdr/root/ct/sdtmct/codelists/C99079", "title": "Version-agnostic anchor resource for codelist C99079", "type": "Root Value Domain"}], "parentProduct": {"href": "/mdr/cdashig/2-2", "title": "Clinical Data Acquisition Standards Harmonization Implementation Guide for Human Clinical Trials Version 2.2", "type": "Implementation Guide"}, "parentScenario": {"href": "/mdr/cdashig/2-2/scenarios/DS.ProtocolMilestone", "title": "PROTOCOL MILESTONE/OTHER EVENT", "type": "CDASH Scenario"}, "rootItem": {"href": "/mdr/root/cdashig/scenarios/DS.ProtocolMilestone/fields/EPOCH", "title": "Version-agnostic anchor element for scenario field Protocol Milestone.EPOCH", "type": "Root Data Element"}, "sdtmigDatasetMappingTargets": [{"href": "/mdr/sdtmig/3-3/datasets/DS/variables/EPOCH", "title": "Epoch", "type": "SDTM Dataset Variable"}], "self": {"href": "/mdr/cdashig/2-2/scenarios/DS.ProtocolMilestone/fields/EPOCH", "title": "Epoch", "type": "Data Collection Field"}}, "completionInstructions": "Check the [epoch, or insert more appropriate wording] for which disposition event is being recorded.", "core": "R/C", "definition": "Trial Epoch (e.g., 'BLINDED TREATMENT', 'OPEN LABEL TREATMENT', 'SCREENING', 'RUN-IN') for which subject disposition is being collected.", "implementationNotes": "If protocol milestones or other events are collected more than once in the study, EPOCH may be needed to differentiate them. Typically, the trial epoch will be pre-printed on the CRF as part of the title of the page; however, some companies have a standard CRF module that includes a pick-list of epochs. See the SDTMIG for further information regarding EPOCH.", "label": "Epoch", "mappingInstructions": "Maps directly to the SDTMIG variable listed in the SDTMIG Target column.", "name": "EPOCH", "ordinal": "6", "prompt": "Trial Period", "questionText": "What is the trial period for this disposition event?", "simpleDatatype": "Char"}, {"_links": {"codelist": [{"href": "/mdr/root/ct/sdtmct/codelists/C114118", "title": "Version-agnostic anchor resource for codelist C114118", "type": "Root Value Domain"}, {"href": "/mdr/root/ct/sdtmct/codelists/C150811", "title": "Version-agnostic anchor resource for codelist C150811", "type": "Root Value Domain"}], "parentProduct": {"href": "/mdr/cdashig/2-2", "title": "Clinical Data Acquisition Standards Harmonization Implementation Guide for Human Clinical Trials Version 2.2", "type": "Implementation Guide"}, "parentScenario": {"href": "/mdr/cdashig/2-2/scenarios/DS.ProtocolMilestone", "title": "PROTOCOL MILESTONE/OTHER EVENT", "type": "CDASH Scenario"}, "rootItem": {"href": "/mdr/root/cdashig/scenarios/DS.ProtocolMilestone/fields/DSDECOD", "title": "Version-agnostic anchor element for scenario field Protocol Milestone.DSDECOD", "type": "Root Data Element"}, "sdtmigDatasetMappingTargets": [{"href": "/mdr/sdtmig/3-3/datasets/DS/variables/DSDECOD", "title": "Standardized Disposition Term", "type": "SDTM Dataset Variable"}], "self": {"href": "/mdr/cdashig/2-2/scenarios/DS.ProtocolMilestone/fields/DSDECOD", "title": "Standardized Disposition Term", "type": "Data Collection Field"}}, "completionInstructions": "If collected on the CRF, the sponsor provides instructions to ensure the data is entered as intended.", "core": "R/C", "definition": "The standardized terminology of the disposition term.", "implementationNotes": "Refer to the SDTMIG for guidelines for assigning DSCAT, DSTERM, and DSDECOD for events considered protocol milestones or other events. Where DSCAT = \"PROTOCOL MILESTONE\", DSTERM contains the verbatim (as collected) and/or standardized text; DSDECOD uses the extensible controlled terminology codelist (PROTMLST). Where DSCAT=\"OTHER EVENT\", DSDECOD uses the extensible controlled terminology codelist (OTHEVENT).", "label": "Standardized Disposition Term", "mappingInstructions": "Maps directly to the SDTMIG variable listed in the SDTMIG Target column. Both DSDECOD and DSTERM must be populated in SDTM.", "name": "DSDECOD", "ordinal": "7", "prompt": "[Sponsor-defined]", "questionText": "[Sponsor-defined]", "simpleDatatype": "Char"}, {"_links": {"parentProduct": {"href": "/mdr/cdashig/2-2", "title": "Clinical Data Acquisition Standards Harmonization Implementation Guide for Human Clinical Trials Version 2.2", "type": "Implementation Guide"}, "parentScenario": {"href": "/mdr/cdashig/2-2/scenarios/DS.ProtocolMilestone", "title": "PROTOCOL MILESTONE/OTHER EVENT", "type": "CDASH Scenario"}, "rootItem": {"href": "/mdr/root/cdashig/scenarios/DS.ProtocolMilestone/fields/DSTERM", "title": "Version-agnostic anchor element for scenario field Protocol Milestone.DSTERM", "type": "Root Data Element"}, "sdtmigDatasetMappingTargets": [{"href": "/mdr/sdtmig/3-3/datasets/DS/variables/DSTERM", "title": "Reported Term for the Disposition Event", "type": "SDTM Dataset Variable"}], "self": {"href": "/mdr/cdashig/2-2/scenarios/DS.ProtocolMilestone/fields/DSTERM", "title": "Reported Term for the Disposition Event", "type": "Data Collection Field"}}, "completionInstructions": "If collected on the CRF, the sponsor provides instructions to ensure the data is entered as intended. \\n \\n \\n \\n \\n", "core": "R/C", "definition": "The verbatim or pre-specified name of the disposition term.", "implementationNotes": "When defining protocol milestones or other events, sponsors may populate DSTERM and DSDECOD with the same value (e.g., RANDOMIZATION, INFORMED CONSENT OBTAINED). DSTERM may also be populated with a verbatim term, which is then standardized in DSDECOD.", "label": "Reported Term for the Disposition Event", "mappingInstructions": "Maps directly to the SDTMIG variable listed in the SDTMIG Target column. The SDTMIG variables DSDECOD and DSTERM must be populated in SDTM.", "name": "DSTERM", "ordinal": "8", "prompt": "[Sponsor-defined]", "questionText": "[Sponsor-defined]", "simpleDatatype": "Char"}, {"_links": {"parentProduct": {"href": "/mdr/cdashig/2-2", "title": "Clinical Data Acquisition Standards Harmonization Implementation Guide for Human Clinical Trials Version 2.2", "type": "Implementation Guide"}, "parentScenario": {"href": "/mdr/cdashig/2-2/scenarios/DS.ProtocolMilestone", "title": "PROTOCOL MILESTONE/OTHER EVENT", "type": "CDASH Scenario"}, "rootItem": {"href": "/mdr/root/cdashig/scenarios/DS.ProtocolMilestone/fields/DSSTDAT", "title": "Version-agnostic anchor element for scenario field Protocol Milestone.DSSTDAT", "type": "Root Data Element"}, "sdtmigDatasetMappingTargets": [{"href": "/mdr/sdtmig/3-3/datasets/DS/variables/DSSTDTC", "title": "Start Date/Time of Disposition Event", "type": "SDTM Dataset Variable"}], "self": {"href": "/mdr/cdashig/2-2/scenarios/DS.ProtocolMilestone/fields/DSSTDAT", "title": "Disposition Event Start Date", "type": "Data Collection Field"}}, "completionInstructions": "Record the date of the protocol milestone/other event as defined in the protocol and/or CRF completion instructions, using this format (DD-MON-YYYY).", "core": "R/C", "definition": "The date of the specified protocol milestone (e.g., informed consent, randomization) represented in an unambiguous date format (e.g., DD-MON-YYYY).", "implementationNotes": "Sponsors should define in the protocol and/or CRF completion instructions the criteria for completion of each protocol milestone/other event and its associated (start) date.", "label": "Disposition Event Start Date", "mappingInstructions": "This does not map directly to an SDTMIG variable. For the SDTM submission dataset, concatenate all collected CDASH START DATE and TIME components and populate the SDTMIG variable DSSTDTC in ISO 8601 format.", "name": "DSSTDAT", "ordinal": "9", "prompt": "[Protocol Milestone/Other Event Name] (start) Date", "questionText": "What was the [protocol milestone/other event name] (start) date?", "simpleDatatype": "Char"}, {"_links": {"parentProduct": {"href": "/mdr/cdashig/2-2", "title": "Clinical Data Acquisition Standards Harmonization Implementation Guide for Human Clinical Trials Version 2.2", "type": "Implementation Guide"}, "parentScenario": {"href": "/mdr/cdashig/2-2/scenarios/DS.ProtocolMilestone", "title": "PROTOCOL MILESTONE/OTHER EVENT", "type": "CDASH Scenario"}, "rootItem": {"href": "/mdr/root/cdashig/scenarios/DS.ProtocolMilestone/fields/DSSTTIM", "title": "Version-agnostic anchor element for scenario field Protocol Milestone.DSSTTIM", "type": "Root Data Element"}, "sdtmigDatasetMappingTargets": [{"href": "/mdr/sdtmig/3-3/datasets/DS/variables/DSSTDTC", "title": "Start Date/Time of Disposition Event", "type": "SDTM Dataset Variable"}], "self": {"href": "/mdr/cdashig/2-2/scenarios/DS.ProtocolMilestone/fields/DSSTTIM", "title": "Disposition Event Start Time", "type": "Data Collection Field"}}, "completionInstructions": "Record the time (as complete as possible) as defined in the protocol and/or CRF completion instructions.", "core": "O", "definition": "The time of the specified protocol milestone (e.g., informed consent, randomization) or other event, represented in an unambiguous time format (e.g., hh:mm:ss).", "implementationNotes": "Sponsors should define in the protocol and/or CRF completion instructions the criteria for completion of each protocol milestone/other event (start) time. Collecting the time of the event is only appropriate if it can be realistically determined and if there is a scientific reason for needing to know this level of detail.", "label": "Disposition Event Start Time", "mappingInstructions": "This does not map directly to an SDTMIG variable. For the SDTM submission dataset, concatenate all collected CDASH START DATE and TIME components and populate the SDTMIG variable DSSTDTC in ISO 8601 format.", "name": "DSSTTIM", "ordinal": "10", "prompt": "[Protocol Milestone/Other Event Name] (start) Time", "questionText": "What was the [protocol milestone/other event name] (start) time?", "simpleDatatype": "Char"}, {"_links": {"codelist": [{"href": "/mdr/root/ct/sdtmct/codelists/C66742", "title": "Version-agnostic anchor resource for codelist C66742", "type": "Root Value Domain"}], "parentProduct": {"href": "/mdr/cdashig/2-2", "title": "Clinical Data Acquisition Standards Harmonization Implementation Guide for Human Clinical Trials Version 2.2", "type": "Implementation Guide"}, "parentScenario": {"href": "/mdr/cdashig/2-2/scenarios/DS.ProtocolMilestone", "title": "PROTOCOL MILESTONE/OTHER EVENT", "type": "CDASH Scenario"}, "rootItem": {"href": "/mdr/root/cdashig/scenarios/DS.ProtocolMilestone/fields/DSUNBLND", "title": "Version-agnostic anchor element for scenario field Protocol Milestone.DSUNBLND", "type": "Root Data Element"}, "sdtmigDatasetMappingTargets": [{"href": "/mdr/sdtmig/3-3/datasets/DS/variables/DSTERM", "title": "Reported Term for the Disposition Event", "type": "SDTM Dataset Variable"}, {"href": "/mdr/sdtmig/3-3/datasets/DS/variables/DSDECOD", "title": "Standardized Disposition Term", "type": "SDTM Dataset Variable"}], "self": {"href": "/mdr/cdashig/2-2/scenarios/DS.ProtocolMilestone/fields/DSUNBLND", "title": "Unblinded", "type": "Data Collection Field"}}, "completionInstructions": "Record \"Yes\" if the subject's treatment assignment was unblinded/unmasked intentionally due to an adverse event, or unintentionally for other reasons (e.g., an administrative action) during the subject's blinded/masked treatment.", "core": "O", "definition": "An indication of whether the subject's treatment information was revealed to any unauthorized site personnel during the trial.", "implementationNotes": "If DSUNBLND is \"Yes\" and information was collected about the reason for the unblinding, populate DSCAT with \"OTHER EVENT\" and the SDTMIG variables DSTERM with the free text and DSDECOD with the standardized text (e.g., TREATMENT UNBLINDED). If DSUNBLND is \"Yes\", and the unblinding also resulted in the subject discontinuing the trial prematurely, be sure to capture the applicable discontinuation details. If the unblinding occurred due to an adverse event, DSTERM contains the text of the AE (if collected on the CRF) and in the AE domain the SDTMIG variable AEACNOTH (\"Were any other actions taken in response to this adverse event?\") may include the text \"Treatment Unblinded\". DSUNBLND may also be used to document intentional unblinding at a protocol-defined point in the trial.", "label": "Unblinded", "mappingInstructions": "This does not map directly to an SDTM variable. If the CDASH field DSUNBLIND=\"Y\", then the SDTMIG variables DSDECOD and DSTERM=\"TREATMENT UNBLINDED\" and DSCAT =\"OTHER EVENT\". If DSUNBLIND=\"N\", then the CRF should be annotated to indicate that this value is NOT SUBMITTED.", "name": "DSUNBLND", "ordinal": "11", "prompt": "Unblinded", "questionText": "Was (study) treatment unblinded by the site?", "simpleDatatype": "Char"}], "ordinal": "1", "scenario": "PROTOCOL MILESTONE/OTHER EVENT"}
