{"_links": {"parentClass": {"href": "/mdr/cdashig/2-2/classes/Findings", "title": "Findings", "type": "Class"}, "parentDomain": {"href": "/mdr/cdashig/2-2/domains/EG", "title": "ECG Test Results", "type": "CDASH Domain"}, "parentProduct": {"href": "/mdr/cdashig/2-2", "title": "Clinical Data Acquisition Standards Harmonization Implementation Guide for Human Clinical Trials Version 2.2", "type": "Implementation Guide"}, "priorVersion": {"href": "/mdr/cdashig/2-1/scenarios/EG.CentralReading", "title": "Central Reading", "type": "CDASH Scenario"}, "self": {"href": "/mdr/cdashig/2-2/scenarios/EG.CentralReading", "title": "Central Reading", "type": "CDASH Scenario"}}, "domain": "ECG", "domainName": "EG", "fields": [{"_links": {"parentProduct": {"href": "/mdr/cdashig/2-2", "title": "Clinical Data Acquisition Standards Harmonization Implementation Guide for Human Clinical Trials Version 2.2", "type": "Implementation Guide"}, "parentScenario": {"href": "/mdr/cdashig/2-2/scenarios/EG.CentralReading", "title": "Central Reading", "type": "CDASH Scenario"}, "priorVersion": {"href": "/mdr/cdashig/2-1/scenarios/EG.CentralReading/fields/STUDYID", "title": "Study Identifier", "type": "Data Collection Field"}, "rootItem": {"href": "/mdr/root/cdashig/scenarios/EG.CentralReading/fields/STUDYID", "title": "Version-agnostic anchor element for scenario field Central Reading.STUDYID", "type": "Root Data Element"}, "sdtmigDatasetMappingTargets": [{"href": "/mdr/sdtmig/3-3/datasets/EG/variables/STUDYID", "title": "Study Identifier", "type": "SDTM Dataset Variable"}], "self": {"href": "/mdr/cdashig/2-2/scenarios/EG.CentralReading/fields/STUDYID", "title": "Study Identifier", "type": "Data Collection Field"}}, "core": "HR", "definition": "A unique identifier for a study.", "implementationNotes": "Although this field is not typically captured on a CRF, it should be displayed clearly on the CRF and/or in the EDC system. This field can be included in the database or populated during SDTM-based dataset creation before submission.", "label": "Study Identifier", "mappingInstructions": "Maps directly to the SDTMIG variable listed in the SDTMIG Target column.", "name": "STUDYID", "ordinal": "1", "prompt": "[Protocol/Study]", "questionText": "What is the study identifier?", "simpleDatatype": "Char"}, {"_links": {"parentProduct": {"href": "/mdr/cdashig/2-2", "title": "Clinical Data Acquisition Standards Harmonization Implementation Guide for Human Clinical Trials Version 2.2", "type": "Implementation Guide"}, "parentScenario": {"href": "/mdr/cdashig/2-2/scenarios/EG.CentralReading", "title": "Central Reading", "type": "CDASH Scenario"}, "priorVersion": {"href": "/mdr/cdashig/2-1/scenarios/EG.CentralReading/fields/SITEID", "title": "Study Site Identifier", "type": "Data Collection Field"}, "rootItem": {"href": "/mdr/root/cdashig/scenarios/EG.CentralReading/fields/SITEID", "title": "Version-agnostic anchor element for scenario field Central Reading.SITEID", "type": "Root Data Element"}, "sdtmigDatasetMappingTargets": [{"href": "/mdr/sdtmig/3-3/datasets/DM/variables/SITEID", "title": "Study Site Identifier", "type": "SDTM Dataset Variable"}], "self": {"href": "/mdr/cdashig/2-2/scenarios/EG.CentralReading/fields/SITEID", "title": "Study Site Identifier", "type": "Data Collection Field"}}, "core": "HR", "definition": "A unique identifier for a site within a study.", "implementationNotes": "Paper: This is typically pre-printed in the header of each CRF page for single-site studies. For studies with multiple sites, this field may be left blank so that the number can be recorded by the site, or it may be pre-printed on the CRFs that are shipped to each site. \\n EDC: This should be pre-populated.", "label": "Study Site Identifier", "mappingInstructions": "Maps directly to the SDTMIG variable listed in the SDTMIG Target column.", "name": "SITEID", "ordinal": "2", "prompt": "Site (Identifier)", "questionText": "What is the site identifier?", "simpleDatatype": "Char"}, {"_links": {"parentProduct": {"href": "/mdr/cdashig/2-2", "title": "Clinical Data Acquisition Standards Harmonization Implementation Guide for Human Clinical Trials Version 2.2", "type": "Implementation Guide"}, "parentScenario": {"href": "/mdr/cdashig/2-2/scenarios/EG.CentralReading", "title": "Central Reading", "type": "CDASH Scenario"}, "priorVersion": {"href": "/mdr/cdashig/2-1/scenarios/EG.CentralReading/fields/SUBJID", "title": "Subject Identifier for the Study", "type": "Data Collection Field"}, "rootItem": {"href": "/mdr/root/cdashig/scenarios/EG.CentralReading/fields/SUBJID", "title": "Version-agnostic anchor element for scenario field Central Reading.SUBJID", "type": "Root Data Element"}, "sdtmigDatasetMappingTargets": [{"href": "/mdr/sdtmig/3-3/datasets/DM/variables/SUBJID", "title": "Subject Identifier for the Study", "type": "SDTM Dataset Variable"}], "self": {"href": "/mdr/cdashig/2-2/scenarios/EG.CentralReading/fields/SUBJID", "title": "Subject Identifier for the Study", "type": "Data Collection Field"}}, "completionInstructions": "Record the identifier for the subject.", "core": "HR", "definition": "A unique subject identifier within a site and a study.", "implementationNotes": "Paper: This is typically recorded in the header of each CRF page. EDC: The subject identifiers may be system-generated. This CDASH variable is typically collected in all CDASH domains. However, this CDASH variable is populated only in the SDTMIG DM domain. For more information, refer to the SDTMIG.", "label": "Subject Identifier for the Study", "mappingInstructions": "Maps directly to the SDTMIG variable listed in the SDTMIG Target column.", "name": "SUBJID", "ordinal": "3", "prompt": "[Subject/Participant] (Identifier)", "questionText": "What [is/was] the (study) [subject/participant] identifier?", "simpleDatatype": "Char"}, {"_links": {"parentProduct": {"href": "/mdr/cdashig/2-2", "title": "Clinical Data Acquisition Standards Harmonization Implementation Guide for Human Clinical Trials Version 2.2", "type": "Implementation Guide"}, "parentScenario": {"href": "/mdr/cdashig/2-2/scenarios/EG.CentralReading", "title": "Central Reading", "type": "CDASH Scenario"}, "priorVersion": {"href": "/mdr/cdashig/2-1/scenarios/EG.CentralReading/fields/VISIT", "title": "Visit Name", "type": "Data Collection Field"}, "rootItem": {"href": "/mdr/root/cdashig/scenarios/EG.CentralReading/fields/VISIT", "title": "Version-agnostic anchor element for scenario field Central Reading.VISIT", "type": "Root Data Element"}, "sdtmigDatasetMappingTargets": [{"href": "/mdr/sdtmig/3-3/datasets/EG/variables/VISIT", "title": "Visit Name", "type": "SDTM Dataset Variable"}], "self": {"href": "/mdr/cdashig/2-2/scenarios/EG.CentralReading/fields/VISIT", "title": "Visit Name", "type": "Data Collection Field"}}, "core": "R/C", "definition": "The name of a clinical encounter that encompasses planned and unplanned trial interventions, procedures, and assessments that may be performed on a subject.", "implementationNotes": "The name of the clinical encounter is typically pre-printed or displayed within the EDC for any visit-based data collection, most often in Findings domains. This Visit text description is then available in any EDC data extract for that Findings domain.", "label": "Visit Name", "mappingInstructions": "Maps directly to the SDTMIG variable listed in the SDTMIG Target column.", "name": "VISIT", "ordinal": "4", "prompt": "[Visit]", "questionText": "What is the visit name?", "simpleDatatype": "Char"}, {"_links": {"parentProduct": {"href": "/mdr/cdashig/2-2", "title": "Clinical Data Acquisition Standards Harmonization Implementation Guide for Human Clinical Trials Version 2.2", "type": "Implementation Guide"}, "parentScenario": {"href": "/mdr/cdashig/2-2/scenarios/EG.CentralReading", "title": "Central Reading", "type": "CDASH Scenario"}, "priorVersion": {"href": "/mdr/cdashig/2-1/scenarios/EG.CentralReading/fields/VISDAT", "title": "Visit Date", "type": "Data Collection Field"}, "rootItem": {"href": "/mdr/root/cdashig/scenarios/EG.CentralReading/fields/VISDAT", "title": "Version-agnostic anchor element for scenario field Central Reading.VISDAT", "type": "Root Data Element"}, "self": {"href": "/mdr/cdashig/2-2/scenarios/EG.CentralReading/fields/VISDAT", "title": "Visit Date", "type": "Data Collection Field"}}, "completionInstructions": "Record the [date/start date] of the visit using this format (DD-MON-YYYY).", "core": "R/C", "definition": "Date the clinical encounter occurred (or started).", "implementationNotes": "The date the ECG measurements were collected can be determined from the visit date variable (VISDAT) and applying that date to all of the ECG measurements at that visit, or the collection date can be included on the ECG CRF using the date (EGDAT) field.", "label": "Visit Date", "mappingInstructions": "This field is not an SDTM variable. The date of a measurement, test, observation can be determined from the date/time of visit (VISDAT/VISTIM) and then concatenating the CDASH VISDAT/VISTIM components and populating the SDTMIG variable EGDTC in ISO 8601 format.", "name": "VISDAT", "ordinal": "5", "prompt": "(Visit) Date", "questionText": "What [is/was] the date of the visit?", "simpleDatatype": "Char"}, {"_links": {"parentProduct": {"href": "/mdr/cdashig/2-2", "title": "Clinical Data Acquisition Standards Harmonization Implementation Guide for Human Clinical Trials Version 2.2", "type": "Implementation Guide"}, "parentScenario": {"href": "/mdr/cdashig/2-2/scenarios/EG.CentralReading", "title": "Central Reading", "type": "CDASH Scenario"}, "priorVersion": {"href": "/mdr/cdashig/2-1/scenarios/EG.CentralReading/fields/EGCAT", "title": "Category for ECG", "type": "Data Collection Field"}, "rootItem": {"href": "/mdr/root/cdashig/scenarios/EG.CentralReading/fields/EGCAT", "title": "Version-agnostic anchor element for scenario field Central Reading.EGCAT", "type": "Root Data Element"}, "sdtmigDatasetMappingTargets": [{"href": "/mdr/sdtmig/3-3/datasets/EG/variables/EGCAT", "title": "Category for ECG", "type": "SDTM Dataset Variable"}], "self": {"href": "/mdr/cdashig/2-2/scenarios/EG.CentralReading/fields/EGCAT", "title": "Category for ECG", "type": "Data Collection Field"}}, "completionInstructions": "Record the ECG finding category, if not pre-printed on the CRF.", "core": "O", "definition": "A grouping of topic-variable values based on user-defined characteristics.", "implementationNotes": "Sponsor-defined controlled terminology. This would most commonly be either a heading or a pre-printed category value on the CRF, not a question to which the site would provide an answer. If a question is asked, the response would typically be a sponsor-defined codelist. If the form is laid out as a grid, then words such as \"Category\" can be included as the column header.", "label": "Category for ECG", "mappingInstructions": "Maps directly to the SDTMIG variable listed in the SDTMIG Target column.", "name": "EGCAT", "ordinal": "6", "prompt": "[ECG Category]; NULL", "questionText": "What was the category of the ECG finding?", "simpleDatatype": "Char"}, {"_links": {"parentProduct": {"href": "/mdr/cdashig/2-2", "title": "Clinical Data Acquisition Standards Harmonization Implementation Guide for Human Clinical Trials Version 2.2", "type": "Implementation Guide"}, "parentScenario": {"href": "/mdr/cdashig/2-2/scenarios/EG.CentralReading", "title": "Central Reading", "type": "CDASH Scenario"}, "priorVersion": {"href": "/mdr/cdashig/2-1/scenarios/EG.CentralReading/fields/EGSCAT", "title": "Subcategory for ECG", "type": "Data Collection Field"}, "rootItem": {"href": "/mdr/root/cdashig/scenarios/EG.CentralReading/fields/EGSCAT", "title": "Version-agnostic anchor element for scenario field Central Reading.EGSCAT", "type": "Root Data Element"}, "sdtmigDatasetMappingTargets": [{"href": "/mdr/sdtmig/3-3/datasets/EG/variables/EGSCAT", "title": "Subcategory for ECG", "type": "SDTM Dataset Variable"}], "self": {"href": "/mdr/cdashig/2-2/scenarios/EG.CentralReading/fields/EGSCAT", "title": "Subcategory for ECG", "type": "Data Collection Field"}}, "completionInstructions": "Record the ECG finding subcategory, if not pre-printed on the CRF.", "core": "O", "definition": "A sub-division of the EGCAT values based on user-defined characteristics.", "implementationNotes": "Sponsor-defined controlled terminology. This would most commonly be either a heading or a pre-printed category value on the CRF, not a question to which the site would provide an answer. If a question is asked, the response would typically be a sponsor-defined codelist. If the form is laid out as a grid, then words such as \"Subcategory\" can be included as the column header EGSCAT can only be used if there is an EGCAT, and it must be a subcategorization of EGCAT.", "label": "Subcategory for ECG", "mappingInstructions": "Maps directly to the SDTMIG variable listed in the SDTMIG Target column.", "name": "EGSCAT", "ordinal": "7", "prompt": "[ECG Subcategory]; NULL", "questionText": "What was the subcategory of the ECG finding?", "simpleDatatype": "Char"}, {"_links": {"codelist": [{"href": "/mdr/root/ct/sdtmct/codelists/C66742", "title": "Version-agnostic anchor resource for codelist C66742", "type": "Root Value Domain"}], "parentProduct": {"href": "/mdr/cdashig/2-2", "title": "Clinical Data Acquisition Standards Harmonization Implementation Guide for Human Clinical Trials Version 2.2", "type": "Implementation Guide"}, "parentScenario": {"href": "/mdr/cdashig/2-2/scenarios/EG.CentralReading", "title": "Central Reading", "type": "CDASH Scenario"}, "priorVersion": {"href": "/mdr/cdashig/2-1/scenarios/EG.CentralReading/fields/EGPERF", "title": "ECG Performed", "type": "Data Collection Field"}, "rootItem": {"href": "/mdr/root/cdashig/scenarios/EG.CentralReading/fields/EGPERF", "title": "Version-agnostic anchor element for scenario field Central Reading.EGPERF", "type": "Root Data Element"}, "sdtmigDatasetMappingTargets": [{"href": "/mdr/sdtmig/3-3/datasets/EG/variables/EGSTAT", "title": "Completion Status", "type": "SDTM Dataset Variable"}], "self": {"href": "/mdr/cdashig/2-2/scenarios/EG.CentralReading/fields/EGPERF", "title": "ECG Performed", "type": "Data Collection Field"}}, "completionInstructions": "Indicate whether or not an ECG or specific ECG test was done.", "core": "HR", "definition": "An indication of whether a planned ECG measurement, series of ECG measurements, tests, or observations was performed.", "implementationNotes": "This may be implemented for an entire ECG, or a specific ECG test basis. General prompt question to be used as a data management tool to verify that missing results are confirmed missing.", "label": "ECG Performed", "mappingInstructions": "This does not map directly to an SDTMIG variable. May be used to derive a value into the SDTMIG variable EGSTAT. If the CDASH field EGPERF= \"N\", the value of EGSTAT will be \"NOT DONE\". If EGPERF = \"Y\", EGSTAT should be null. A combination of SDTMIG variables (e.g., EGCAT and EGSCAT, EGTPT) is used to indicate that multiple tests were not done. In this situation, the SDTMIG variable EGTESTCD would be populated as EGALL and an appropriate test name (EGTEST) provided. See SDTMIG for additional information.", "name": "EGPERF", "ordinal": "8", "prompt": "ECG Performed", "questionText": "Was the ECG performed?", "simpleDatatype": "Char"}, {"_links": {"parentProduct": {"href": "/mdr/cdashig/2-2", "title": "Clinical Data Acquisition Standards Harmonization Implementation Guide for Human Clinical Trials Version 2.2", "type": "Implementation Guide"}, "parentScenario": {"href": "/mdr/cdashig/2-2/scenarios/EG.CentralReading", "title": "Central Reading", "type": "CDASH Scenario"}, "rootItem": {"href": "/mdr/root/cdashig/scenarios/EG.CentralReading/fields/EGREPNUM", "title": "Version-agnostic anchor element for scenario field Central Reading.EGREPNUM", "type": "Root Data Element"}, "sdtmigDatasetMappingTargets": [{"href": "/mdr/sdtmig/3-3/datasets/EG/variables/EGREPNUM", "title": "Repetition Number", "type": "SDTM Dataset Variable"}], "self": {"href": "/mdr/cdashig/2-2/scenarios/EG.CentralReading/fields/EGREPNUM", "title": "ECG Repetition Number", "type": "Data Collection Field"}}, "completionInstructions": "Record which repetition of the ECG this is.", "core": "O", "definition": "The incidence number of a test that is repeated within a given timeframe for the same test. The level of granularity can vary (e.g., within a timepoint, within a visit; multiple measurements of blood pressure, multiple analyses of a sample).", "implementationNotes": "If there are multiple ECGs, this is used to record in which order this ECG occurred.", "label": "ECG Repetition Number", "mappingInstructions": "Maps directly to the SDTMIG variable listed in the SDTMIG Target column.", "name": "EGREPNUM", "ordinal": "9", "prompt": "Repetition number", "questionText": "Which repetition of the ECG is this?", "simpleDatatype": "Num"}, {"_links": {"parentProduct": {"href": "/mdr/cdashig/2-2", "title": "Clinical Data Acquisition Standards Harmonization Implementation Guide for Human Clinical Trials Version 2.2", "type": "Implementation Guide"}, "parentScenario": {"href": "/mdr/cdashig/2-2/scenarios/EG.CentralReading", "title": "Central Reading", "type": "CDASH Scenario"}, "priorVersion": {"href": "/mdr/cdashig/2-1/scenarios/EG.CentralReading/fields/EGREFID", "title": "ECG Reference ID", "type": "Data Collection Field"}, "rootItem": {"href": "/mdr/root/cdashig/scenarios/EG.CentralReading/fields/EGREFID", "title": "Version-agnostic anchor element for scenario field Central Reading.EGREFID", "type": "Root Data Element"}, "sdtmigDatasetMappingTargets": [{"href": "/mdr/sdtmig/3-3/datasets/EG/variables/EGREFID", "title": "ECG Reference ID", "type": "SDTM Dataset Variable"}], "self": {"href": "/mdr/cdashig/2-2/scenarios/EG.CentralReading/fields/EGREFID", "title": "ECG Reference ID", "type": "Data Collection Field"}}, "completionInstructions": "Record the identifier number assigned.", "core": "O", "definition": "An internal or external identifier of the ECG (e.g., waveform number).", "implementationNotes": "This can be used to confirm that the appropriate data record is present in the electronic transfer if this reference ID happens to be available to the site at the time of collection. It can also be used to link the clinical significance assessment to the proper record in the electronic data. (e.g., UUID for external waveform file, session number automatically generated by electronic equipment).", "label": "ECG Reference ID", "mappingInstructions": "Maps directly to the SDTMIG variable listed in the SDTMIG Target column. May be used to create RELREC to link this record with a record in another domain.", "name": "EGREFID", "ordinal": "10", "prompt": "(ECG) [Reference Identifier/Accession Number]", "questionText": "What was the (ECG) [reference identifier/accession number]?", "simpleDatatype": "Char"}, {"_links": {"codelist": [{"href": "/mdr/root/ct/sdtmct/codelists/C71151", "title": "Version-agnostic anchor resource for codelist C71151", "type": "Root Value Domain"}], "parentProduct": {"href": "/mdr/cdashig/2-2", "title": "Clinical Data Acquisition Standards Harmonization Implementation Guide for Human Clinical Trials Version 2.2", "type": "Implementation Guide"}, "parentScenario": {"href": "/mdr/cdashig/2-2/scenarios/EG.CentralReading", "title": "Central Reading", "type": "CDASH Scenario"}, "priorVersion": {"href": "/mdr/cdashig/2-1/scenarios/EG.CentralReading/fields/EGMETHOD", "title": "Method of ECG Test", "type": "Data Collection Field"}, "rootItem": {"href": "/mdr/root/cdashig/scenarios/EG.CentralReading/fields/EGMETHOD", "title": "Version-agnostic anchor element for scenario field Central Reading.EGMETHOD", "type": "Root Data Element"}, "sdtmigDatasetMappingTargets": [{"href": "/mdr/sdtmig/3-3/datasets/EG/variables/EGMETHOD", "title": "Method of Test or Examination", "type": "SDTM Dataset Variable"}], "self": {"href": "/mdr/cdashig/2-2/scenarios/EG.CentralReading/fields/EGMETHOD", "title": "Method of ECG Test", "type": "Data Collection Field"}}, "completionInstructions": "Record the method used for the ECG.", "core": "O", "definition": "Method of the test or examination.", "implementationNotes": "Results may be affected by whether conditions for ECG as specified in the protocol were properly met. One possible condition is the method used to collect or calculate the ECG data. If the protocol requires this type of information, then this question may be included to confirm that the method used matches the protocol. The following are examples of when it is not necessary to collect these data on the CRF: \\n * Method of ECG is provided as part of the electronic data. \\n * Method of ECG is not pertinent to the protocol. \\n * The protocol specifies only 1 possible method for collecting ECG measurements and the sponsor does not feel there is significant risk of the sites performing the ECG using the incorrect method.", "label": "Method of ECG Test", "mappingInstructions": "Maps directly to the SDTMIG variable listed in the SDTMIG Target column.", "name": "EGMETHOD", "ordinal": "11", "prompt": "Method", "questionText": "What was the method used for the ECG?", "simpleDatatype": "Char"}, {"_links": {"codelist": [{"href": "/mdr/root/ct/sdtmct/codelists/C90013", "title": "Version-agnostic anchor resource for codelist C90013", "type": "Root Value Domain"}], "parentProduct": {"href": "/mdr/cdashig/2-2", "title": "Clinical Data Acquisition Standards Harmonization Implementation Guide for Human Clinical Trials Version 2.2", "type": "Implementation Guide"}, "parentScenario": {"href": "/mdr/cdashig/2-2/scenarios/EG.CentralReading", "title": "Central Reading", "type": "CDASH Scenario"}, "rootItem": {"href": "/mdr/root/cdashig/scenarios/EG.CentralReading/fields/EGLEAD", "title": "Version-agnostic anchor element for scenario field Central Reading.EGLEAD", "type": "Root Data Element"}, "sdtmigDatasetMappingTargets": [{"href": "/mdr/sdtmig/3-3/datasets/EG/variables/EGLEAD", "title": "Lead Location Used for Measurement", "type": "SDTM Dataset Variable"}], "self": {"href": "/mdr/cdashig/2-2/scenarios/EG.CentralReading/fields/EGLEAD", "title": "ECG Lead Location Used for Measurement", "type": "Data Collection Field"}}, "completionInstructions": "Record which lead was used for this measurement.", "core": "O", "definition": "The lead used for the measurement (e.g., \"LEAD I\", \"LEAD II\", \"LEAD III\", \"LEAD rV2\", \"LEAD V1\")", "implementationNotes": "This is used when more specificity for the location is desired for the ECG data.", "label": "ECG Lead Location Used for Measurement", "mappingInstructions": "Maps directly to the SDTMIG variable listed in the SDTMIG Target column.", "name": "EGLEAD", "ordinal": "12", "prompt": "Lead Location", "questionText": "Which lead location was used for this measurement?", "simpleDatatype": "Char"}, {"_links": {"codelist": [{"href": "/mdr/root/ct/sdtmct/codelists/C71148", "title": "Version-agnostic anchor resource for codelist C71148", "type": "Root Value Domain"}], "parentProduct": {"href": "/mdr/cdashig/2-2", "title": "Clinical Data Acquisition Standards Harmonization Implementation Guide for Human Clinical Trials Version 2.2", "type": "Implementation Guide"}, "parentScenario": {"href": "/mdr/cdashig/2-2/scenarios/EG.CentralReading", "title": "Central Reading", "type": "CDASH Scenario"}, "priorVersion": {"href": "/mdr/cdashig/2-1/scenarios/EG.CentralReading/fields/EGPOS", "title": "ECG Position of Subject", "type": "Data Collection Field"}, "rootItem": {"href": "/mdr/root/cdashig/scenarios/EG.CentralReading/fields/EGPOS", "title": "Version-agnostic anchor element for scenario field Central Reading.EGPOS", "type": "Root Data Element"}, "sdtmigDatasetMappingTargets": [{"href": "/mdr/sdtmig/3-3/datasets/EG/variables/EGPOS", "title": "ECG Position of Subject", "type": "SDTM Dataset Variable"}], "self": {"href": "/mdr/cdashig/2-2/scenarios/EG.CentralReading/fields/EGPOS", "title": "ECG Position of Subject", "type": "Data Collection Field"}}, "completionInstructions": "Record the position of the subject during the ECG.", "core": "O", "definition": "The position of the subject during the ECG measurement.", "implementationNotes": "Results may be affected by whether conditions for ECG as specified in the protocol were properly met. One common condition is the subject's position. If the protocol requires this type of information, then this question may be included to confirm that the subject's position matches the protocol. The following are examples of when it is not necessary to collect these data on the CRF: \\n * Position of the subject is provided as part of the electronic data. \\n * Position of the subject is not pertinent to the protocol. \\n * The protocol specifies only 1 possible position and the sponsor does not feel there is significant risk of the sites performing the ECG with the subject in the wrong position.", "label": "ECG Position of Subject", "mappingInstructions": "Maps directly to the SDTMIG variable listed in the SDTMIG Target column.", "name": "EGPOS", "ordinal": "13", "prompt": "Position", "questionText": "What was the position of the subject during the ECG measurement?", "simpleDatatype": "Char"}, {"_links": {"parentProduct": {"href": "/mdr/cdashig/2-2", "title": "Clinical Data Acquisition Standards Harmonization Implementation Guide for Human Clinical Trials Version 2.2", "type": "Implementation Guide"}, "parentScenario": {"href": "/mdr/cdashig/2-2/scenarios/EG.CentralReading", "title": "Central Reading", "type": "CDASH Scenario"}, "priorVersion": {"href": "/mdr/cdashig/2-1/scenarios/EG.CentralReading/fields/EGDAT", "title": "ECG Date", "type": "Data Collection Field"}, "rootItem": {"href": "/mdr/root/cdashig/scenarios/EG.CentralReading/fields/EGDAT", "title": "Version-agnostic anchor element for scenario field Central Reading.EGDAT", "type": "Root Data Element"}, "sdtmigDatasetMappingTargets": [{"href": "/mdr/sdtmig/3-3/datasets/EG/variables/EGDTC", "title": "Date/Time of ECG", "type": "SDTM Dataset Variable"}], "self": {"href": "/mdr/cdashig/2-2/scenarios/EG.CentralReading/fields/EGDAT", "title": "ECG Date", "type": "Data Collection Field"}}, "completionInstructions": "Record the date the ECG was done using this format (DD-MON-YYYY).", "core": "R/C", "definition": "The date the ECG was performed, represented in an unambiguous date format (e.g., DD-MON-YYYY).", "implementationNotes": "A complete date is expected. The date of collection may be determined from the date of visit (VISDAT) and, if so, a separate assessment date field is not required.", "label": "ECG Date", "mappingInstructions": "This does not map directly to an SDTMIG variable. For the SDTM submission dataset, concatenate all collected CDASH DATE and TIME components and populate the SDTMIG variable EGDTC in ISO 8601 format.", "name": "EGDAT", "ordinal": "14", "prompt": "ECG Date", "questionText": "What was the date of the ECG?", "simpleDatatype": "Char"}, {"_links": {"parentProduct": {"href": "/mdr/cdashig/2-2", "title": "Clinical Data Acquisition Standards Harmonization Implementation Guide for Human Clinical Trials Version 2.2", "type": "Implementation Guide"}, "parentScenario": {"href": "/mdr/cdashig/2-2/scenarios/EG.CentralReading", "title": "Central Reading", "type": "CDASH Scenario"}, "priorVersion": {"href": "/mdr/cdashig/2-1/scenarios/EG.CentralReading/fields/EGTPT", "title": "ECG Planned Time Point Name", "type": "Data Collection Field"}, "rootItem": {"href": "/mdr/root/cdashig/scenarios/EG.CentralReading/fields/EGTPT", "title": "Version-agnostic anchor element for scenario field Central Reading.EGTPT", "type": "Root Data Element"}, "sdtmigDatasetMappingTargets": [{"href": "/mdr/sdtmig/3-3/datasets/EG/variables/EGTPT", "title": "Planned Time Point Name", "type": "SDTM Dataset Variable"}], "self": {"href": "/mdr/cdashig/2-2/scenarios/EG.CentralReading/fields/EGTPT", "title": "ECG Planned Time Point Name", "type": "Data Collection Field"}}, "completionInstructions": "Record the time point labels for when the ECG test should be taken, if not pre-printed on the CRF.", "core": "R/C", "definition": "A text description of planned time point when measurements should be taken as defined in the protocol.", "implementationNotes": "Planned time points are needed to differentiate multiple sequential assessments. It is recommended that time points should be pre-printed on the CRF rather than collected in a free-text field. If the form is laid out as a grid, then words such as \"Planned Time Point\" can be included as the column header.", "label": "ECG Planned Time Point Name", "mappingInstructions": "Maps directly to the SDTMIG variable listed in the SDTMIG Target column. See the SDTMIG for additional information on representing time points. SDTMIG time-point anchors EGTPTREF (text description) and EGRFTDTC (date/time) may be needed, as well as SDTMIG variables EGTPTNUM, EGELTM.", "name": "EGTPT", "ordinal": "15", "prompt": "[Planned Time Point Name]", "questionText": "What was the planned time point of the ECG measurement?", "simpleDatatype": "Char"}, {"_links": {"parentProduct": {"href": "/mdr/cdashig/2-2", "title": "Clinical Data Acquisition Standards Harmonization Implementation Guide for Human Clinical Trials Version 2.2", "type": "Implementation Guide"}, "parentScenario": {"href": "/mdr/cdashig/2-2/scenarios/EG.CentralReading", "title": "Central Reading", "type": "CDASH Scenario"}, "priorVersion": {"href": "/mdr/cdashig/2-1/scenarios/EG.CentralReading/fields/EGTIM", "title": "ECG Time", "type": "Data Collection Field"}, "rootItem": {"href": "/mdr/root/cdashig/scenarios/EG.CentralReading/fields/EGTIM", "title": "Version-agnostic anchor element for scenario field Central Reading.EGTIM", "type": "Root Data Element"}, "sdtmigDatasetMappingTargets": [{"href": "/mdr/sdtmig/3-3/datasets/EG/variables/EGDTC", "title": "Date/Time of ECG", "type": "SDTM Dataset Variable"}], "self": {"href": "/mdr/cdashig/2-2/scenarios/EG.CentralReading/fields/EGTIM", "title": "ECG Time", "type": "Data Collection Field"}}, "completionInstructions": "Record the time the ECG was done (as complete as possible).", "core": "R/C", "definition": "Time of ECG, represented in an unambiguous time format (e.g., hh:mm:ss).", "implementationNotes": "May be required when multiple assessments are done on 1 day or when the timing in relationship to study treatment is required for analysis.", "label": "ECG Time", "mappingInstructions": "This does not map directly to an SDTMIG variable. For the SDTM submission dataset, concatenate all collected CDASH DATE and TIME components and populate the SDTMIG variable EGDTC in ISO 8601 format.", "name": "EGTIM", "ordinal": "16", "prompt": "ECG Time", "questionText": "What was the time the ECG was collected?", "simpleDatatype": "Char"}], "ordinal": "1", "scenario": "Central Reading"}
