{"_links": {"parentClass": {"href": "/mdr/cdashig/2-2/classes/Findings", "title": "Findings", "type": "Class"}, "parentDomain": {"href": "/mdr/cdashig/2-2/domains/EG", "title": "ECG Test Results", "type": "CDASH Domain"}, "parentProduct": {"href": "/mdr/cdashig/2-2", "title": "Clinical Data Acquisition Standards Harmonization Implementation Guide for Human Clinical Trials Version 2.2", "type": "Implementation Guide"}, "priorVersion": {"href": "/mdr/cdashig/2-1/scenarios/EG.LocalReading", "title": "Local Reading", "type": "CDASH Scenario"}, "self": {"href": "/mdr/cdashig/2-2/scenarios/EG.LocalReading", "title": "Local Reading", "type": "CDASH Scenario"}}, "domain": "ECG", "domainName": "EG", "fields": [{"_links": {"parentProduct": {"href": "/mdr/cdashig/2-2", "title": "Clinical Data Acquisition Standards Harmonization Implementation Guide for Human Clinical Trials Version 2.2", "type": "Implementation Guide"}, "parentScenario": {"href": "/mdr/cdashig/2-2/scenarios/EG.LocalReading", "title": "Local Reading", "type": "CDASH Scenario"}, "priorVersion": {"href": "/mdr/cdashig/2-1/scenarios/EG.LocalReading/fields/STUDYID", "title": "Study Identifier", "type": "Data Collection Field"}, "rootItem": {"href": "/mdr/root/cdashig/scenarios/EG.LocalReading/fields/STUDYID", "title": "Version-agnostic anchor element for scenario field Local Reading.STUDYID", "type": "Root Data Element"}, "sdtmigDatasetMappingTargets": [{"href": "/mdr/sdtmig/3-3/datasets/EG/variables/STUDYID", "title": "Study Identifier", "type": "SDTM Dataset Variable"}], "self": {"href": "/mdr/cdashig/2-2/scenarios/EG.LocalReading/fields/STUDYID", "title": "Study Identifier", "type": "Data Collection Field"}}, "core": "HR", "definition": "A unique identifier for a study.", "implementationNotes": "Although this field is not typically captured on a CRF, it should be displayed clearly on the CRF and/or in the EDC system. This field can be included in the database or populated during SDTM-based dataset creation before submission.", "label": "Study Identifier", "mappingInstructions": "Maps directly to the SDTMIG variable listed in the SDTMIG Target column.", "name": "STUDYID", "ordinal": "1", "prompt": "[Protocol/Study]", "questionText": "What is the study identifier?", "simpleDatatype": "Char"}, {"_links": {"parentProduct": {"href": "/mdr/cdashig/2-2", "title": "Clinical Data Acquisition Standards Harmonization Implementation Guide for Human Clinical Trials Version 2.2", "type": "Implementation Guide"}, "parentScenario": {"href": "/mdr/cdashig/2-2/scenarios/EG.LocalReading", "title": "Local Reading", "type": "CDASH Scenario"}, "priorVersion": {"href": "/mdr/cdashig/2-1/scenarios/EG.LocalReading/fields/SITEID", "title": "Study Site Identifier", "type": "Data Collection Field"}, "rootItem": {"href": "/mdr/root/cdashig/scenarios/EG.LocalReading/fields/SITEID", "title": "Version-agnostic anchor element for scenario field Local Reading.SITEID", "type": "Root Data Element"}, "sdtmigDatasetMappingTargets": [{"href": "/mdr/sdtmig/3-3/datasets/DM/variables/SITEID", "title": "Study Site Identifier", "type": "SDTM Dataset Variable"}], "self": {"href": "/mdr/cdashig/2-2/scenarios/EG.LocalReading/fields/SITEID", "title": "Study Site Identifier", "type": "Data Collection Field"}}, "core": "HR", "definition": "A unique identifier for a site within a study.", "implementationNotes": "Paper: This is typically pre-printed in the header of each CRF page for single-site studies. For studies with multiple sites, this field may be left blank so that the number can be recorded by the site, or it may be pre-printed on the CRFs that are shipped to each site. \\n EDC: This should be pre-populated.", "label": "Study Site Identifier", "mappingInstructions": "Maps directly to the SDTMIG variable listed in the SDTMIG Target column.", "name": "SITEID", "ordinal": "2", "prompt": "Site (Identifier)", "questionText": "What is the site identifier?", "simpleDatatype": "Char"}, {"_links": {"parentProduct": {"href": "/mdr/cdashig/2-2", "title": "Clinical Data Acquisition Standards Harmonization Implementation Guide for Human Clinical Trials Version 2.2", "type": "Implementation Guide"}, "parentScenario": {"href": "/mdr/cdashig/2-2/scenarios/EG.LocalReading", "title": "Local Reading", "type": "CDASH Scenario"}, "priorVersion": {"href": "/mdr/cdashig/2-1/scenarios/EG.LocalReading/fields/SUBJID", "title": "Subject Identifier for the Study", "type": "Data Collection Field"}, "rootItem": {"href": "/mdr/root/cdashig/scenarios/EG.LocalReading/fields/SUBJID", "title": "Version-agnostic anchor element for scenario field Local Reading.SUBJID", "type": "Root Data Element"}, "sdtmigDatasetMappingTargets": [{"href": "/mdr/sdtmig/3-3/datasets/DM/variables/SUBJID", "title": "Subject Identifier for the Study", "type": "SDTM Dataset Variable"}], "self": {"href": "/mdr/cdashig/2-2/scenarios/EG.LocalReading/fields/SUBJID", "title": "Subject Identifier for the Study", "type": "Data Collection Field"}}, "completionInstructions": "Record the identifier for the subject.", "core": "HR", "definition": "A unique subject identifier within a site and a study.", "implementationNotes": "Paper: This is typically recorded in the header of each CRF page. EDC: The subject identifiers may be system-generated. This CDASH variable is typically collected in all CDASH domains. However, this CDASH variable is populated only in the SDTMIG DM domain. For more information, refer to the SDTMIG.", "label": "Subject Identifier for the Study", "mappingInstructions": "Maps directly to the SDTMIG variable listed in the SDTMIG Target column.", "name": "SUBJID", "ordinal": "3", "prompt": "[Subject/Participant] (Identifier)", "questionText": "What [is/was] the (study) [subject/participant] identifier?", "simpleDatatype": "Char"}, {"_links": {"parentProduct": {"href": "/mdr/cdashig/2-2", "title": "Clinical Data Acquisition Standards Harmonization Implementation Guide for Human Clinical Trials Version 2.2", "type": "Implementation Guide"}, "parentScenario": {"href": "/mdr/cdashig/2-2/scenarios/EG.LocalReading", "title": "Local Reading", "type": "CDASH Scenario"}, "priorVersion": {"href": "/mdr/cdashig/2-1/scenarios/EG.LocalReading/fields/VISIT", "title": "Visit Name", "type": "Data Collection Field"}, "rootItem": {"href": "/mdr/root/cdashig/scenarios/EG.LocalReading/fields/VISIT", "title": "Version-agnostic anchor element for scenario field Local Reading.VISIT", "type": "Root Data Element"}, "sdtmigDatasetMappingTargets": [{"href": "/mdr/sdtmig/3-3/datasets/EG/variables/VISIT", "title": "Visit Name", "type": "SDTM Dataset Variable"}], "self": {"href": "/mdr/cdashig/2-2/scenarios/EG.LocalReading/fields/VISIT", "title": "Visit Name", "type": "Data Collection Field"}}, "core": "R/C", "definition": "The name of a clinical encounter that encompasses planned and unplanned trial interventions, procedures, and assessments that may be performed on a subject.", "implementationNotes": "The name of the clinical encounter is typically pre-printed on the CRF or displayed within the EDC for any visit-based data collection, most often in Findings domains. This Visit text description is then available in any EDC data extract for that Findings domain.", "label": "Visit Name", "mappingInstructions": "Maps directly to the SDTMIG variable listed in the SDTMIG Target column.", "name": "VISIT", "ordinal": "4", "prompt": "[Visit]", "questionText": "What is the visit name?", "simpleDatatype": "Char"}, {"_links": {"parentProduct": {"href": "/mdr/cdashig/2-2", "title": "Clinical Data Acquisition Standards Harmonization Implementation Guide for Human Clinical Trials Version 2.2", "type": "Implementation Guide"}, "parentScenario": {"href": "/mdr/cdashig/2-2/scenarios/EG.LocalReading", "title": "Local Reading", "type": "CDASH Scenario"}, "priorVersion": {"href": "/mdr/cdashig/2-1/scenarios/EG.LocalReading/fields/VISDAT", "title": "Visit Date", "type": "Data Collection Field"}, "rootItem": {"href": "/mdr/root/cdashig/scenarios/EG.LocalReading/fields/VISDAT", "title": "Version-agnostic anchor element for scenario field Local Reading.VISDAT", "type": "Root Data Element"}, "self": {"href": "/mdr/cdashig/2-2/scenarios/EG.LocalReading/fields/VISDAT", "title": "Visit Date", "type": "Data Collection Field"}}, "completionInstructions": "Record the [date/start date] of the visit using this format (DD-MON-YYYY).", "core": "R/C", "definition": "Date the clinical encounter occurred (or started).", "implementationNotes": "The date the ECG measurements were collected can be determined from the visit date variable (VISDAT) and applying that date to all of the ECG measurements at that visit, or the collection date can be included on the ECG CRF using the date (EGDAT) field.", "label": "Visit Date", "mappingInstructions": "This field is not an SDTM variable. The date of a measurement, test, observation can be determined from the date/time of visit (VISDAT/VISTIM) and then concatenating the CDASH VISDAT/VISTIM components and populating the SDTMIG variable EGDTC in ISO 8601 format.", "name": "VISDAT", "ordinal": "5", "prompt": "(Visit) Date", "questionText": "What [is/was] the date of the visit?", "simpleDatatype": "Char"}, {"_links": {"parentProduct": {"href": "/mdr/cdashig/2-2", "title": "Clinical Data Acquisition Standards Harmonization Implementation Guide for Human Clinical Trials Version 2.2", "type": "Implementation Guide"}, "parentScenario": {"href": "/mdr/cdashig/2-2/scenarios/EG.LocalReading", "title": "Local Reading", "type": "CDASH Scenario"}, "priorVersion": {"href": "/mdr/cdashig/2-1/scenarios/EG.LocalReading/fields/EGCAT", "title": "Category for ECG", "type": "Data Collection Field"}, "rootItem": {"href": "/mdr/root/cdashig/scenarios/EG.LocalReading/fields/EGCAT", "title": "Version-agnostic anchor element for scenario field Local Reading.EGCAT", "type": "Root Data Element"}, "sdtmigDatasetMappingTargets": [{"href": "/mdr/sdtmig/3-3/datasets/EG/variables/EGCAT", "title": "Category for ECG", "type": "SDTM Dataset Variable"}], "self": {"href": "/mdr/cdashig/2-2/scenarios/EG.LocalReading/fields/EGCAT", "title": "Category for ECG", "type": "Data Collection Field"}}, "completionInstructions": "Record the ECG finding category, if not pre-printed on the CRF.", "core": "O", "definition": "A grouping of topic-variable values based on user-defined characteristics.", "implementationNotes": "Sponsor-defined controlled terminology. This would most commonly be either a heading or a pre-printed category value on the CRF, and not a question to which the site would provide an answer. If a question is asked, the response would typically be a sponsor-defined codelist. If the form is laid out as a grid, then words such as \"Category\" can be included as the column header.", "label": "Category for ECG", "mappingInstructions": "Maps directly to the SDTMIG variable listed in the SDTMIG Target column.", "name": "EGCAT", "ordinal": "6", "prompt": "[ECG Category]; NULL", "questionText": "What was the category of the ECG finding?", "simpleDatatype": "Char"}, {"_links": {"parentProduct": {"href": "/mdr/cdashig/2-2", "title": "Clinical Data Acquisition Standards Harmonization Implementation Guide for Human Clinical Trials Version 2.2", "type": "Implementation Guide"}, "parentScenario": {"href": "/mdr/cdashig/2-2/scenarios/EG.LocalReading", "title": "Local Reading", "type": "CDASH Scenario"}, "priorVersion": {"href": "/mdr/cdashig/2-1/scenarios/EG.LocalReading/fields/EGSCAT", "title": "Subcategory for ECG", "type": "Data Collection Field"}, "rootItem": {"href": "/mdr/root/cdashig/scenarios/EG.LocalReading/fields/EGSCAT", "title": "Version-agnostic anchor element for scenario field Local Reading.EGSCAT", "type": "Root Data Element"}, "sdtmigDatasetMappingTargets": [{"href": "/mdr/sdtmig/3-3/datasets/EG/variables/EGSCAT", "title": "Subcategory for ECG", "type": "SDTM Dataset Variable"}], "self": {"href": "/mdr/cdashig/2-2/scenarios/EG.LocalReading/fields/EGSCAT", "title": "Subcategory for ECG", "type": "Data Collection Field"}}, "completionInstructions": "Record the ECG finding subcategory, if not pre-printed on the CRF.", "core": "O", "definition": "A sub-division of the EGCAT values based on user-defined characteristics.", "implementationNotes": "Sponsor-defined controlled terminology. This would most commonly be either a heading or a pre-printed category value on the CRF, and not a question to which the site would provide an answer. If a question is asked, the response would typically be a sponsor-defined codelist. If the form is laid out as a grid, then words such as \"Subcategory\" can be included as the column header EGSCAT can only be used if there is an EGCAT, and it must be a subcategorization of EGCAT.", "label": "Subcategory for ECG", "mappingInstructions": "Maps directly to the SDTMIG variable listed in the SDTMIG Target column.", "name": "EGSCAT", "ordinal": "7", "prompt": "[ECG Subcategory]; NULL", "questionText": "What was the subcategory of the ECG finding?", "simpleDatatype": "Char"}, {"_links": {"codelist": [{"href": "/mdr/root/ct/sdtmct/codelists/C66742", "title": "Version-agnostic anchor resource for codelist C66742", "type": "Root Value Domain"}], "parentProduct": {"href": "/mdr/cdashig/2-2", "title": "Clinical Data Acquisition Standards Harmonization Implementation Guide for Human Clinical Trials Version 2.2", "type": "Implementation Guide"}, "parentScenario": {"href": "/mdr/cdashig/2-2/scenarios/EG.LocalReading", "title": "Local Reading", "type": "CDASH Scenario"}, "priorVersion": {"href": "/mdr/cdashig/2-1/scenarios/EG.LocalReading/fields/EGPERF", "title": "ECG Performed", "type": "Data Collection Field"}, "rootItem": {"href": "/mdr/root/cdashig/scenarios/EG.LocalReading/fields/EGPERF", "title": "Version-agnostic anchor element for scenario field Local Reading.EGPERF", "type": "Root Data Element"}, "sdtmigDatasetMappingTargets": [{"href": "/mdr/sdtmig/3-3/datasets/EG/variables/EGSTAT", "title": "Completion Status", "type": "SDTM Dataset Variable"}], "self": {"href": "/mdr/cdashig/2-2/scenarios/EG.LocalReading/fields/EGPERF", "title": "ECG Performed", "type": "Data Collection Field"}}, "completionInstructions": "Indicate whether or not ECG or specific ECG test was done.", "core": "HR", "definition": "An indication of whether a planned measurement, series of measurements, test, or observation was performed.", "implementationNotes": "This may be implemented for an entire ECG, or a specific ECG test basis. General prompt question to be used as a data management tool to verify that missing results are confirmed missing.", "label": "ECG Performed", "mappingInstructions": "This does not map directly to an SDTMIG variable. May be used to derive a value into the SDTMIG variable EGSTAT. If the CDASH field EGPERF=\"N\", the value of EGSTAT will be \"NOT DONE\". If EGPERF=\"Y\", EGSTAT should be null. A combination of SDTMIG variables ( e.g., EGCAT and EGSCAT, EGTPT ) is used to indicate that multiple tests were not done. In this situation, the SDTMIG variable EGTESTCD would be populated as EGALL and an appropriate test name (EGTEST) provided. See SDTMIG for additional information.", "name": "EGPERF", "ordinal": "8", "prompt": "ECG Performed", "questionText": "Was the ECG performed?", "simpleDatatype": "Char"}, {"_links": {"parentProduct": {"href": "/mdr/cdashig/2-2", "title": "Clinical Data Acquisition Standards Harmonization Implementation Guide for Human Clinical Trials Version 2.2", "type": "Implementation Guide"}, "parentScenario": {"href": "/mdr/cdashig/2-2/scenarios/EG.LocalReading", "title": "Local Reading", "type": "CDASH Scenario"}, "rootItem": {"href": "/mdr/root/cdashig/scenarios/EG.LocalReading/fields/EGREPNUM", "title": "Version-agnostic anchor element for scenario field Local Reading.EGREPNUM", "type": "Root Data Element"}, "sdtmigDatasetMappingTargets": [{"href": "/mdr/sdtmig/3-3/datasets/EG/variables/EGREPNUM", "title": "Repetition Number", "type": "SDTM Dataset Variable"}], "self": {"href": "/mdr/cdashig/2-2/scenarios/EG.LocalReading/fields/EGREPNUM", "title": "ECG Repetition Number", "type": "Data Collection Field"}}, "completionInstructions": "Record which repetition of the ECG this is.", "core": "O", "definition": "The incidence number of a test that is repeated within a given timeframe for the same test. The level of granularity can vary (e.g., within a timepoint, within a visit; multiple measurements of blood pressure, multiple analyses of a sample).", "implementationNotes": "If there are multiple ECGs, this is used to record in which order this ECG occurred.", "label": "ECG Repetition Number", "mappingInstructions": "Maps directly to the SDTMIG variable listed in the SDTMIG Target column.", "name": "EGREPNUM", "ordinal": "9", "prompt": "Repetition Number", "questionText": "What repetition of the ECG is this?", "simpleDatatype": "Num"}, {"_links": {"codelist": [{"href": "/mdr/root/ct/sdtmct/codelists/C71151", "title": "Version-agnostic anchor resource for codelist C71151", "type": "Root Value Domain"}], "parentProduct": {"href": "/mdr/cdashig/2-2", "title": "Clinical Data Acquisition Standards Harmonization Implementation Guide for Human Clinical Trials Version 2.2", "type": "Implementation Guide"}, "parentScenario": {"href": "/mdr/cdashig/2-2/scenarios/EG.LocalReading", "title": "Local Reading", "type": "CDASH Scenario"}, "priorVersion": {"href": "/mdr/cdashig/2-1/scenarios/EG.LocalReading/fields/EGMETHOD", "title": "Method of ECG Test", "type": "Data Collection Field"}, "rootItem": {"href": "/mdr/root/cdashig/scenarios/EG.LocalReading/fields/EGMETHOD", "title": "Version-agnostic anchor element for scenario field Local Reading.EGMETHOD", "type": "Root Data Element"}, "sdtmigDatasetMappingTargets": [{"href": "/mdr/sdtmig/3-3/datasets/EG/variables/EGMETHOD", "title": "Method of Test or Examination", "type": "SDTM Dataset Variable"}], "self": {"href": "/mdr/cdashig/2-2/scenarios/EG.LocalReading/fields/EGMETHOD", "title": "Method of ECG Test", "type": "Data Collection Field"}}, "completionInstructions": "Record the method used for the ECG.", "core": "O", "definition": "Method of the test or examination.", "implementationNotes": "Results may be affected by whether conditions for ECG as specified in the protocol were properly met. One possible condition is the method used to collect or calculate the ECG data. If the protocol requires this type of information, then this question may be included to confirm that the method used matches the protocol. The following are examples of when it is not necessary to collect these data on the CRF: \\n * Method of ECG is provided as part of the electronic data. \\n * Method of ECG is not pertinent to the protocol. \\n * The protocol specifies only 1 possible method for collecting ECG measurements and the sponsor does not feel there is significant risk of the sites performing the ECG using the incorrect method.", "label": "Method of ECG Test", "mappingInstructions": "Maps directly to the SDTMIG variable listed in the SDTMIG Target column.", "name": "EGMETHOD", "ordinal": "10", "prompt": "Method", "questionText": "What was the method used for the ECG?", "simpleDatatype": "Char"}, {"_links": {"codelist": [{"href": "/mdr/root/ct/sdtmct/codelists/C90013", "title": "Version-agnostic anchor resource for codelist C90013", "type": "Root Value Domain"}], "parentProduct": {"href": "/mdr/cdashig/2-2", "title": "Clinical Data Acquisition Standards Harmonization Implementation Guide for Human Clinical Trials Version 2.2", "type": "Implementation Guide"}, "parentScenario": {"href": "/mdr/cdashig/2-2/scenarios/EG.LocalReading", "title": "Local Reading", "type": "CDASH Scenario"}, "rootItem": {"href": "/mdr/root/cdashig/scenarios/EG.LocalReading/fields/EGLEAD", "title": "Version-agnostic anchor element for scenario field Local Reading.EGLEAD", "type": "Root Data Element"}, "sdtmigDatasetMappingTargets": [{"href": "/mdr/sdtmig/3-3/datasets/EG/variables/EGLEAD", "title": "Lead Location Used for Measurement", "type": "SDTM Dataset Variable"}], "self": {"href": "/mdr/cdashig/2-2/scenarios/EG.LocalReading/fields/EGLEAD", "title": "ECG Lead Location Used for Measurement", "type": "Data Collection Field"}}, "completionInstructions": "Record which lead was used for this measurement.", "core": "O", "definition": "The lead used for the measurement (e.g., \"LEAD I\", \"LEAD II\", \"LEAD III\", \"LEAD rV2\", \"LEAD V1\").", "implementationNotes": "This is used when more specificity for the location is desired for the ECG data.", "label": "ECG Lead Location Used for Measurement", "mappingInstructions": "Maps directly to the SDTMIG variable listed in the SDTMIG Target column.", "name": "EGLEAD", "ordinal": "11", "prompt": "Lead Location", "questionText": "Which lead location was used for this measurement?", "simpleDatatype": "Char"}, {"_links": {"codelist": [{"href": "/mdr/root/ct/sdtmct/codelists/C71148", "title": "Version-agnostic anchor resource for codelist C71148", "type": "Root Value Domain"}], "parentProduct": {"href": "/mdr/cdashig/2-2", "title": "Clinical Data Acquisition Standards Harmonization Implementation Guide for Human Clinical Trials Version 2.2", "type": "Implementation Guide"}, "parentScenario": {"href": "/mdr/cdashig/2-2/scenarios/EG.LocalReading", "title": "Local Reading", "type": "CDASH Scenario"}, "priorVersion": {"href": "/mdr/cdashig/2-1/scenarios/EG.LocalReading/fields/EGPOS", "title": "ECG Position of Subject", "type": "Data Collection Field"}, "rootItem": {"href": "/mdr/root/cdashig/scenarios/EG.LocalReading/fields/EGPOS", "title": "Version-agnostic anchor element for scenario field Local Reading.EGPOS", "type": "Root Data Element"}, "sdtmigDatasetMappingTargets": [{"href": "/mdr/sdtmig/3-3/datasets/EG/variables/EGPOS", "title": "ECG Position of Subject", "type": "SDTM Dataset Variable"}], "self": {"href": "/mdr/cdashig/2-2/scenarios/EG.LocalReading/fields/EGPOS", "title": "ECG Position of Subject", "type": "Data Collection Field"}}, "completionInstructions": "Record the position of the subject during the ECG.", "core": "O", "definition": "The position of the subject during the ECG measurement.", "implementationNotes": "Results may be affected by whether conditions for ECG as specified in the protocol were properly met. If the protocol requires this type of information, then this question may be included to confirm that the subject's position matches the protocol. The following are examples of when it is not necessary to collect these data on the CRF: \\n * Position of the subject is provided as part of the electronic data. \\n * Position of the subject is not pertinent to the protocol. \\n * The protocol specifies only 1 possible position and the sponsor does not feel there is significant risk of the sites performing the ECG with the subject in the wrong position.", "label": "ECG Position of Subject", "mappingInstructions": "Maps directly to the SDTMIG variable listed in the SDTMIG Target column.", "name": "EGPOS", "ordinal": "12", "prompt": "Position", "questionText": "What was the position of the subject during the ECG measurement?", "simpleDatatype": "Char"}, {"_links": {"parentProduct": {"href": "/mdr/cdashig/2-2", "title": "Clinical Data Acquisition Standards Harmonization Implementation Guide for Human Clinical Trials Version 2.2", "type": "Implementation Guide"}, "parentScenario": {"href": "/mdr/cdashig/2-2/scenarios/EG.LocalReading", "title": "Local Reading", "type": "CDASH Scenario"}, "priorVersion": {"href": "/mdr/cdashig/2-1/scenarios/EG.LocalReading/fields/EGDAT", "title": "Date of ECG", "type": "Data Collection Field"}, "rootItem": {"href": "/mdr/root/cdashig/scenarios/EG.LocalReading/fields/EGDAT", "title": "Version-agnostic anchor element for scenario field Local Reading.EGDAT", "type": "Root Data Element"}, "sdtmigDatasetMappingTargets": [{"href": "/mdr/sdtmig/3-3/datasets/EG/variables/EGDTC", "title": "Date/Time of ECG", "type": "SDTM Dataset Variable"}], "self": {"href": "/mdr/cdashig/2-2/scenarios/EG.LocalReading/fields/EGDAT", "title": "Date of ECG", "type": "Data Collection Field"}}, "completionInstructions": "Record the date ECG was done using this format (DD-MON-YYYY).", "core": "R/C", "definition": "The date the ECG was performed, represented in an unambiguous date format (e.g., DD-MON-YYYY).", "implementationNotes": "A complete date is expected. The date of collection may be determined from the date of visit (VISDAT) and if so, a separate assessment date field is not required.", "label": "Date of ECG", "mappingInstructions": "This does not map directly to an SDTMIG variable. For the SDTM submission dataset, concatenate all collected CDASH DATE and TIME components and populate the SDTMIG variable EGDTC in ISO 8601 format.", "name": "EGDAT", "ordinal": "13", "prompt": "ECG Date", "questionText": "What was the date of the ECG?", "simpleDatatype": "Char"}, {"_links": {"parentProduct": {"href": "/mdr/cdashig/2-2", "title": "Clinical Data Acquisition Standards Harmonization Implementation Guide for Human Clinical Trials Version 2.2", "type": "Implementation Guide"}, "parentScenario": {"href": "/mdr/cdashig/2-2/scenarios/EG.LocalReading", "title": "Local Reading", "type": "CDASH Scenario"}, "priorVersion": {"href": "/mdr/cdashig/2-1/scenarios/EG.LocalReading/fields/EGTPT", "title": "ECG Planned Time Point Name", "type": "Data Collection Field"}, "rootItem": {"href": "/mdr/root/cdashig/scenarios/EG.LocalReading/fields/EGTPT", "title": "Version-agnostic anchor element for scenario field Local Reading.EGTPT", "type": "Root Data Element"}, "sdtmigDatasetMappingTargets": [{"href": "/mdr/sdtmig/3-3/datasets/EG/variables/EGTPT", "title": "Planned Time Point Name", "type": "SDTM Dataset Variable"}], "self": {"href": "/mdr/cdashig/2-2/scenarios/EG.LocalReading/fields/EGTPT", "title": "ECG Planned Time Point Name", "type": "Data Collection Field"}}, "completionInstructions": "Record the time point labels for when the ECG test should be taken, if not pre-printed on the CRF.", "core": "R/C", "definition": "A text description of planned time point when measurements should be taken as defined in the protocol.", "implementationNotes": "Planned time points are needed to differentiate multiple sequential assessments. It is recommended that time points should be pre-printed on the CRF rather than collected in a free-text field. If the form is laid out as a grid, then words such as \"Planned Time Point\" can be included as the column heading.", "label": "ECG Planned Time Point Name", "mappingInstructions": "Maps directly to the SDTMIG variable listed in the SDTMIG Target column. See the SDTMIG for additional information on representing time points. SDTMIG time-point anchors EGTPTREF (text description) and EGRFTDTC (date/time) may be needed, as well as SDTMIG variables EGTPTNUM, EGELTM.", "name": "EGTPT", "ordinal": "14", "prompt": "[Planned Time Point Name]", "questionText": "What was the planned time point of the ECG measurement?", "simpleDatatype": "Char"}, {"_links": {"parentProduct": {"href": "/mdr/cdashig/2-2", "title": "Clinical Data Acquisition Standards Harmonization Implementation Guide for Human Clinical Trials Version 2.2", "type": "Implementation Guide"}, "parentScenario": {"href": "/mdr/cdashig/2-2/scenarios/EG.LocalReading", "title": "Local Reading", "type": "CDASH Scenario"}, "priorVersion": {"href": "/mdr/cdashig/2-1/scenarios/EG.LocalReading/fields/EGTIM", "title": "Time of ECG", "type": "Data Collection Field"}, "rootItem": {"href": "/mdr/root/cdashig/scenarios/EG.LocalReading/fields/EGTIM", "title": "Version-agnostic anchor element for scenario field Local Reading.EGTIM", "type": "Root Data Element"}, "sdtmigDatasetMappingTargets": [{"href": "/mdr/sdtmig/3-3/datasets/EG/variables/EGDTC", "title": "Date/Time of ECG", "type": "SDTM Dataset Variable"}], "self": {"href": "/mdr/cdashig/2-2/scenarios/EG.LocalReading/fields/EGTIM", "title": "Time of ECG", "type": "Data Collection Field"}}, "completionInstructions": "Record the time the ECG was done (as complete as possible).", "core": "R/C", "definition": "Time of ECG, represented in an unambiguous time format (e.g., hh:mm:ss).", "implementationNotes": "May be required when multiple assessments are done on 1 day or when the timing in relationship to study treatment is required for analysis.", "label": "Time of ECG", "mappingInstructions": "This does not map directly to an SDTMIG variable. For the SDTM submission dataset, concatenate all collected CDASH DATE and TIME components and populate the SDTMIG variable EGDTC in ISO 8601 format.", "name": "EGTIM", "ordinal": "15", "prompt": "ECG Time", "questionText": "What was the time the ECG was collected?", "simpleDatatype": "Char"}, {"_links": {"codelist": [{"href": "/mdr/root/ct/sdtmct/codelists/C71152", "title": "Version-agnostic anchor resource for codelist C71152", "type": "Root Value Domain"}], "parentProduct": {"href": "/mdr/cdashig/2-2", "title": "Clinical Data Acquisition Standards Harmonization Implementation Guide for Human Clinical Trials Version 2.2", "type": "Implementation Guide"}, "parentScenario": {"href": "/mdr/cdashig/2-2/scenarios/EG.LocalReading", "title": "Local Reading", "type": "CDASH Scenario"}, "priorVersion": {"href": "/mdr/cdashig/2-1/scenarios/EG.LocalReading/fields/EGTEST", "title": "ECG Test or Examination Name", "type": "Data Collection Field"}, "rootItem": {"href": "/mdr/root/cdashig/scenarios/EG.LocalReading/fields/EGTEST", "title": "Version-agnostic anchor element for scenario field Local Reading.EGTEST", "type": "Root Data Element"}, "sdtmigDatasetMappingTargets": [{"href": "/mdr/sdtmig/3-3/datasets/EG/variables/EGTEST", "title": "ECG Test or Examination Name", "type": "SDTM Dataset Variable"}, {"href": "/mdr/sdtmig/3-3/datasets/EG/variables/EGTESTCD", "title": "ECG Test or Examination Short Name", "type": "SDTM Dataset Variable"}], "self": {"href": "/mdr/cdashig/2-2/scenarios/EG.LocalReading/fields/EGTEST", "title": "ECG Test or Examination Name", "type": "Data Collection Field"}}, "completionInstructions": "Record the name of the ECG measurement or finding, if not pre-printed on the CRF. If collected on the CRF, the sponsor may provide additional instructions to ensure the data is entered as intended.", "core": "HR", "definition": "Descriptive name of the measurement or finding.", "implementationNotes": "Required to identify which test the result is for. It is recommended that the test names be pre-printed on the CRF rather than collected in a free-text field. If the form is laid out as a grid, then words such as \"Test\" can be included as the column heading.", "label": "ECG Test or Examination Name", "mappingInstructions": "Maps directly to the SDTMIG variable listed in the column with the heading SDTMIG Target. The SDTMIG variable EGTESTCD may be determined from the value collected in EGTEST. The SDTMIG variables EGTESTCD and EGTEST are required in the SDTM submission datasets. Use appropriate CDISC Controlled Terminology for the test and test code.", "name": "EGTEST", "ordinal": "16", "prompt": "[ECG Test Name]", "questionText": "What was the ECG test name?", "simpleDatatype": "Char"}, {"_links": {"parentProduct": {"href": "/mdr/cdashig/2-2", "title": "Clinical Data Acquisition Standards Harmonization Implementation Guide for Human Clinical Trials Version 2.2", "type": "Implementation Guide"}, "parentScenario": {"href": "/mdr/cdashig/2-2/scenarios/EG.LocalReading", "title": "Local Reading", "type": "CDASH Scenario"}, "priorVersion": {"href": "/mdr/cdashig/2-1/scenarios/EG.LocalReading/fields/EGORRES", "title": "ECG Result or Finding in Original Units", "type": "Data Collection Field"}, "rootItem": {"href": "/mdr/root/cdashig/scenarios/EG.LocalReading/fields/EGORRES", "title": "Version-agnostic anchor element for scenario field Local Reading.EGORRES", "type": "Root Data Element"}, "sdtmigDatasetMappingTargets": [{"href": "/mdr/sdtmig/3-3/datasets/EG/variables/EGORRES", "title": "Result or Finding in Original Units", "type": "SDTM Dataset Variable"}], "self": {"href": "/mdr/cdashig/2-2/scenarios/EG.LocalReading/fields/EGORRES", "title": "ECG Result or Finding in Original Units", "type": "Data Collection Field"}}, "completionInstructions": "Record test results, interpretations or findings.", "core": "HR", "definition": "Result of the measurement or finding as originally received or collected.", "implementationNotes": "Both quantitative results and interpretive findings or summaries may be recorded here.", "label": "ECG Result or Finding in Original Units", "mappingInstructions": "Maps directly to the SDTMIG variable listed in the SDTMIG Target column.", "name": "EGORRES", "ordinal": "17", "prompt": "(Result)", "questionText": "What was the result of the ECG?", "simpleDatatype": "Char"}, {"_links": {"codelist": [{"href": "/mdr/root/ct/sdtmct/codelists/C71620", "title": "Version-agnostic anchor resource for codelist C71620", "type": "Root Value Domain"}, {"href": "/mdr/root/ct/cdashct/codelists/C78422", "title": "Version-agnostic anchor resource for codelist C78422", "type": "Root Value Domain"}], "parentProduct": {"href": "/mdr/cdashig/2-2", "title": "Clinical Data Acquisition Standards Harmonization Implementation Guide for Human Clinical Trials Version 2.2", "type": "Implementation Guide"}, "parentScenario": {"href": "/mdr/cdashig/2-2/scenarios/EG.LocalReading", "title": "Local Reading", "type": "CDASH Scenario"}, "priorVersion": {"href": "/mdr/cdashig/2-1/scenarios/EG.LocalReading/fields/EGORRESU", "title": "ECG Original Units", "type": "Data Collection Field"}, "rootItem": {"href": "/mdr/root/cdashig/scenarios/EG.LocalReading/fields/EGORRESU", "title": "Version-agnostic anchor element for scenario field Local Reading.EGORRESU", "type": "Root Data Element"}, "sdtmigDatasetMappingTargets": [{"href": "/mdr/sdtmig/3-3/datasets/EG/variables/EGORRESU", "title": "Original Units", "type": "SDTM Dataset Variable"}], "self": {"href": "/mdr/cdashig/2-2/scenarios/EG.LocalReading/fields/EGORRESU", "title": "ECG Original Units", "type": "Data Collection Field"}}, "completionInstructions": "Record or select the original unit in which these data were collected, if not pre-printed on CRF.", "core": "R/C", "definition": "The unit of the result as originally received or collected.", "implementationNotes": "May be included if quantitative results are recorded. Because units for quantitative ECG results are typically limited, units should be pre-printed on the CRF with the associated test when possible, rather than having sites record the units. This item is not necessary for qualitative results.", "label": "ECG Original Units", "mappingInstructions": "Maps directly to the SDTMIG variable listed in the SDTMIG Target column.", "name": "EGORRESU", "ordinal": "18", "prompt": "Unit", "questionText": "What was the unit of the ECG results?", "simpleDatatype": "Char"}, {"_links": {"codelist": [{"href": "/mdr/root/ct/sdtmct/codelists/C66742", "title": "Version-agnostic anchor resource for codelist C66742", "type": "Root Value Domain"}], "parentProduct": {"href": "/mdr/cdashig/2-2", "title": "Clinical Data Acquisition Standards Harmonization Implementation Guide for Human Clinical Trials Version 2.2", "type": "Implementation Guide"}, "parentScenario": {"href": "/mdr/cdashig/2-2/scenarios/EG.LocalReading", "title": "Local Reading", "type": "CDASH Scenario"}, "priorVersion": {"href": "/mdr/cdashig/2-1/scenarios/EG.LocalReading/fields/EGCLSIG", "title": "ECG Clinical Significance", "type": "Data Collection Field"}, "rootItem": {"href": "/mdr/root/cdashig/scenarios/EG.LocalReading/fields/EGCLSIG", "title": "Version-agnostic anchor element for scenario field Local Reading.EGCLSIG", "type": "Root Data Element"}, "sdtmigDatasetMappingTargets": [{"href": "/mdr/sdtmig/3-3/datasets/SUPPQUAL/variables/QVAL", "title": "Data Value", "type": "SDTM Dataset Variable"}], "self": {"href": "/mdr/cdashig/2-2/scenarios/EG.LocalReading/fields/EGCLSIG", "title": "ECG Clinical Significance", "type": "Data Collection Field"}}, "completionInstructions": "Record whether ECG results were clinically significant.", "core": "O", "definition": "An indication of whether the ECG results were clinically significant.", "implementationNotes": "Could apply to specific measurements or to overall interpretation.", "label": "ECG Clinical Significance", "mappingInstructions": "This does not map directly to an SDTMIG variable. This information could be submitted in a SUPPEG dataset as the value of SUPPEG.QVAL where SUPPEG.QNAM =\"EGCLSIG\" and SUPPEG.QLABEL=\"Clinically Significant\". Refer to the current SDTM and SDTMIG for instructions on placement of non-standard variables in SDTM domains.", "name": "EGCLSIG", "ordinal": "19", "prompt": "Clinically Significant", "questionText": "Was the ECG clinically significant?", "simpleDatatype": "Char"}], "ordinal": "2", "scenario": "Local Reading"}
