{"_links": {"parentClass": {"href": "/mdr/cdashig/2-2/classes/Findings", "title": "Findings", "type": "Class"}, "parentDomain": {"href": "/mdr/cdashig/2-2/domains/LB", "title": "Laboratory Test Results", "type": "CDASH Domain"}, "parentProduct": {"href": "/mdr/cdashig/2-2", "title": "Clinical Data Acquisition Standards Harmonization Implementation Guide for Human Clinical Trials Version 2.2", "type": "Implementation Guide"}, "priorVersion": {"href": "/mdr/cdashig/2-1/scenarios/LB.CentralProcessing", "title": "Central Processing", "type": "CDASH Scenario"}, "self": {"href": "/mdr/cdashig/2-2/scenarios/LB.CentralProcessing", "title": "Central Processing", "type": "CDASH Scenario"}}, "domain": "Labs", "domainName": "LB", "fields": [{"_links": {"parentProduct": {"href": "/mdr/cdashig/2-2", "title": "Clinical Data Acquisition Standards Harmonization Implementation Guide for Human Clinical Trials Version 2.2", "type": "Implementation Guide"}, "parentScenario": {"href": "/mdr/cdashig/2-2/scenarios/LB.CentralProcessing", "title": "Central Processing", "type": "CDASH Scenario"}, "priorVersion": {"href": "/mdr/cdashig/2-1/scenarios/LB.CentralProcessing/fields/STUDYID", "title": "Study Identifier", "type": "Data Collection Field"}, "rootItem": {"href": "/mdr/root/cdashig/scenarios/LB.CentralProcessing/fields/STUDYID", "title": "Version-agnostic anchor element for scenario field Central Processing.STUDYID", "type": "Root Data Element"}, "sdtmigDatasetMappingTargets": [{"href": "/mdr/sdtmig/3-3/datasets/LB/variables/STUDYID", "title": "Study Identifier", "type": "SDTM Dataset Variable"}], "self": {"href": "/mdr/cdashig/2-2/scenarios/LB.CentralProcessing/fields/STUDYID", "title": "Study Identifier", "type": "Data Collection Field"}}, "core": "HR", "definition": "A unique identifier for a study.", "implementationNotes": "Although this field is not typically captured on a CRF, it should be displayed clearly on the CRF and/or in the EDC system. This field can be included in the database or populated during SDTM-based dataset creation before submission.", "label": "Study Identifier", "mappingInstructions": "Maps directly to the SDTMIG variable listed in the SDTMIG Target column.", "name": "STUDYID", "ordinal": "1", "prompt": "[Protocol/Study]", "questionText": "What is the study identifier?", "simpleDatatype": "Char"}, {"_links": {"parentProduct": {"href": "/mdr/cdashig/2-2", "title": "Clinical Data Acquisition Standards Harmonization Implementation Guide for Human Clinical Trials Version 2.2", "type": "Implementation Guide"}, "parentScenario": {"href": "/mdr/cdashig/2-2/scenarios/LB.CentralProcessing", "title": "Central Processing", "type": "CDASH Scenario"}, "priorVersion": {"href": "/mdr/cdashig/2-1/scenarios/LB.CentralProcessing/fields/SITEID", "title": "Study Site Identifier", "type": "Data Collection Field"}, "rootItem": {"href": "/mdr/root/cdashig/scenarios/LB.CentralProcessing/fields/SITEID", "title": "Version-agnostic anchor element for scenario field Central Processing.SITEID", "type": "Root Data Element"}, "sdtmigDatasetMappingTargets": [{"href": "/mdr/sdtmig/3-3/datasets/DM/variables/SITEID", "title": "Study Site Identifier", "type": "SDTM Dataset Variable"}], "self": {"href": "/mdr/cdashig/2-2/scenarios/LB.CentralProcessing/fields/SITEID", "title": "Study Site Identifier", "type": "Data Collection Field"}}, "core": "HR", "definition": "A unique identifier for a site within a study.", "implementationNotes": "Paper: This is typically pre-printed in the header of each CRF page for single-site studies. For studies with multiple sites, this field may be left blank so that the number can be recorded by the site, or it may be pre-printed on the CRFs that are shipped to each site. \\n EDC: This should be pre-populated.", "label": "Study Site Identifier", "mappingInstructions": "Maps directly to the SDTMIG variable listed in the SDTMIG Target column.", "name": "SITEID", "ordinal": "2", "prompt": "Site (Identifier)", "questionText": "What is the site identifier?", "simpleDatatype": "Char"}, {"_links": {"parentProduct": {"href": "/mdr/cdashig/2-2", "title": "Clinical Data Acquisition Standards Harmonization Implementation Guide for Human Clinical Trials Version 2.2", "type": "Implementation Guide"}, "parentScenario": {"href": "/mdr/cdashig/2-2/scenarios/LB.CentralProcessing", "title": "Central Processing", "type": "CDASH Scenario"}, "priorVersion": {"href": "/mdr/cdashig/2-1/scenarios/LB.CentralProcessing/fields/SUBJID", "title": "Subject Identifier for the Study", "type": "Data Collection Field"}, "rootItem": {"href": "/mdr/root/cdashig/scenarios/LB.CentralProcessing/fields/SUBJID", "title": "Version-agnostic anchor element for scenario field Central Processing.SUBJID", "type": "Root Data Element"}, "sdtmigDatasetMappingTargets": [{"href": "/mdr/sdtmig/3-3/datasets/DM/variables/SUBJID", "title": "Subject Identifier for the Study", "type": "SDTM Dataset Variable"}], "self": {"href": "/mdr/cdashig/2-2/scenarios/LB.CentralProcessing/fields/SUBJID", "title": "Subject Identifier for the Study", "type": "Data Collection Field"}}, "completionInstructions": "Record the identifier for the subject.", "core": "HR", "definition": "A unique subject identifier within a site and a study.", "implementationNotes": "Paper: This is typically recorded in the header of each CRF page. EDC: The subject identifiers may be system-generated. This CDASH variable is typically collected in all CDASH domains. However, this CDASH variable is populated only in the SDTMIG DM domain. For more information, refer to the SDTMIG.", "label": "Subject Identifier for the Study", "mappingInstructions": "Maps directly to the SDTMIG variable listed in the SDTMIG Target column.", "name": "SUBJID", "ordinal": "3", "prompt": "[Subject/Participant] (Identifier)", "questionText": "What [is/was] the (study) [subject/participant] identifier?", "simpleDatatype": "Char"}, {"_links": {"parentProduct": {"href": "/mdr/cdashig/2-2", "title": "Clinical Data Acquisition Standards Harmonization Implementation Guide for Human Clinical Trials Version 2.2", "type": "Implementation Guide"}, "parentScenario": {"href": "/mdr/cdashig/2-2/scenarios/LB.CentralProcessing", "title": "Central Processing", "type": "CDASH Scenario"}, "priorVersion": {"href": "/mdr/cdashig/2-1/scenarios/LB.CentralProcessing/fields/VISIT", "title": "Visit Name", "type": "Data Collection Field"}, "rootItem": {"href": "/mdr/root/cdashig/scenarios/LB.CentralProcessing/fields/VISIT", "title": "Version-agnostic anchor element for scenario field Central Processing.VISIT", "type": "Root Data Element"}, "sdtmigDatasetMappingTargets": [{"href": "/mdr/sdtmig/3-3/datasets/LB/variables/VISIT", "title": "Visit Name", "type": "SDTM Dataset Variable"}], "self": {"href": "/mdr/cdashig/2-2/scenarios/LB.CentralProcessing/fields/VISIT", "title": "Visit Name", "type": "Data Collection Field"}}, "core": "R/C", "definition": "The name of a clinical encounter that encompasses planned and unplanned trial interventions, procedures, and assessments that may be performed on a subject.", "implementationNotes": "The name of the clinical encounter is typically pre-printed on the CRF or displayed in the EDC for any visit-based data collection, most often in Findings domains. This Visit text description is then available in any EDC data extract for that Findings domain.", "label": "Visit Name", "mappingInstructions": "Maps directly to the SDTMIG variable listed in the SDTMIG Target column.", "name": "VISIT", "ordinal": "4", "prompt": "[Visit]", "questionText": "What is the visit name?", "simpleDatatype": "Char"}, {"_links": {"parentProduct": {"href": "/mdr/cdashig/2-2", "title": "Clinical Data Acquisition Standards Harmonization Implementation Guide for Human Clinical Trials Version 2.2", "type": "Implementation Guide"}, "parentScenario": {"href": "/mdr/cdashig/2-2/scenarios/LB.CentralProcessing", "title": "Central Processing", "type": "CDASH Scenario"}, "priorVersion": {"href": "/mdr/cdashig/2-1/scenarios/LB.CentralProcessing/fields/VISDAT", "title": "Visit Date", "type": "Data Collection Field"}, "rootItem": {"href": "/mdr/root/cdashig/scenarios/LB.CentralProcessing/fields/VISDAT", "title": "Version-agnostic anchor element for scenario field Central Processing.VISDAT", "type": "Root Data Element"}, "self": {"href": "/mdr/cdashig/2-2/scenarios/LB.CentralProcessing/fields/VISDAT", "title": "Visit Date", "type": "Data Collection Field"}}, "completionInstructions": "Record the [date/start date] of the visit using DD-MON-YYYY format.", "core": "R/C", "definition": "Date the clinical encounter occurred (or started).", "implementationNotes": "The date the laboratory specimens were collected can be determined from the visit date variable (VISDAT) and applying that date to all of the laboratory tests at that visit, or the specimen collection date can be collected on the Laboratory CRF using the date (LBDAT) field.", "label": "Visit Date", "mappingInstructions": "This field is not an SDTM variable. The date of a measurement, test, observation, or specimen collection can be determined from the date/time of visit (VISDAT/VISTIM) and then concatenating the CDASH VISDAT/VISTIM components and populating the SDTMIG variable LBDTC in ISO 8601 format.", "name": "VISDAT", "ordinal": "5", "prompt": "(Visit) Date", "questionText": "What [is/was] the date of the visit?", "simpleDatatype": "Char"}, {"_links": {"codelist": [{"href": "/mdr/root/ct/sdtmct/codelists/C66742", "title": "Version-agnostic anchor resource for codelist C66742", "type": "Root Value Domain"}], "parentProduct": {"href": "/mdr/cdashig/2-2", "title": "Clinical Data Acquisition Standards Harmonization Implementation Guide for Human Clinical Trials Version 2.2", "type": "Implementation Guide"}, "parentScenario": {"href": "/mdr/cdashig/2-2/scenarios/LB.CentralProcessing", "title": "Central Processing", "type": "CDASH Scenario"}, "priorVersion": {"href": "/mdr/cdashig/2-1/scenarios/LB.CentralProcessing/fields/LBPERF", "title": "Lab Performed", "type": "Data Collection Field"}, "rootItem": {"href": "/mdr/root/cdashig/scenarios/LB.CentralProcessing/fields/LBPERF", "title": "Version-agnostic anchor element for scenario field Central Processing.LBPERF", "type": "Root Data Element"}, "sdtmigDatasetMappingTargets": [{"href": "/mdr/sdtmig/3-3/datasets/LB/variables/LBSTAT", "title": "Completion Status", "type": "SDTM Dataset Variable"}], "self": {"href": "/mdr/cdashig/2-2/scenarios/LB.CentralProcessing/fields/LBPERF", "title": "Lab Performed", "type": "Data Collection Field"}}, "completionInstructions": "Indicate whether or not lab specimen was collected or measurement performed.", "core": "HR", "definition": "An indication of whether a planned lab measurement, series of lab measurements, tests, observations or was performed or specimens collected.", "implementationNotes": "This may be implemented for an entire lab panel, or a specific lab test. General prompt question to be used as a data management tool to verify that missing results are confirmed missing.", "label": "Lab Performed", "mappingInstructions": "This does not map directly to an SDTMIG variable. May be used to derive a value into the SDTMIG variable LBSTAT. If the CDASH variable LBPERF = \"N\", the value of LBSTAT will be \"NOT DONE\". If LBPERF = \"Y\", LBSTAT should be null. A combination of SDTMIG variables ( e.g., LBCAT and LBSCAT, LBTPT) is used to indicate that multiple tests were not done. In this situation, the SDTMIG variable LBTESTCD would be populated as LBALL and an appropriate test name (LBTEST) provided. See SDTMIG for additional information.", "name": "LBPERF", "ordinal": "6", "prompt": "Lab Performed; Sample Collected", "questionText": "Was the sample collected?; Was the lab performed?", "simpleDatatype": "Char"}, {"_links": {"parentProduct": {"href": "/mdr/cdashig/2-2", "title": "Clinical Data Acquisition Standards Harmonization Implementation Guide for Human Clinical Trials Version 2.2", "type": "Implementation Guide"}, "parentScenario": {"href": "/mdr/cdashig/2-2/scenarios/LB.CentralProcessing", "title": "Central Processing", "type": "CDASH Scenario"}, "priorVersion": {"href": "/mdr/cdashig/2-1/scenarios/LB.CentralProcessing/fields/LBDAT", "title": "Specimen Collection Date", "type": "Data Collection Field"}, "rootItem": {"href": "/mdr/root/cdashig/scenarios/LB.CentralProcessing/fields/LBDAT", "title": "Version-agnostic anchor element for scenario field Central Processing.LBDAT", "type": "Root Data Element"}, "sdtmigDatasetMappingTargets": [{"href": "/mdr/sdtmig/3-3/datasets/LB/variables/LBDTC", "title": "Date/Time of Specimen Collection", "type": "SDTM Dataset Variable"}], "self": {"href": "/mdr/cdashig/2-2/scenarios/LB.CentralProcessing/fields/LBDAT", "title": "Specimen Collection Date", "type": "Data Collection Field"}}, "completionInstructions": "Record the (start) date when specimen collection was done using this format (DD-MON-YYYY).", "core": "R/C", "definition": "The date of specimen collection, represented in an unambiguous date format (e.g., DD-MON-YYYY).", "implementationNotes": "A complete date is expected. The date of specimen collection may be determined from the date of visit (VISDAT) and, if so, a separate assessment date field is not required. The SDTMIG LBDTC variable contains either a date/time when a specimen is collected at a point in time or the start date/time, when a specimen is collected over time.", "label": "Specimen Collection Date", "mappingInstructions": "This does not map directly to an SDTMIG variable. For the SDTM submission dataset, concatenate all collected CDASH DATE and TIME components and populate the SDTMIG variable LBDTC in ISO 8601 format.", "name": "LBDAT", "ordinal": "7", "prompt": "Specimen Collection (Start) Date", "questionText": "What was the (start) date of the lab specimen collection?", "simpleDatatype": "Char"}, {"_links": {"parentProduct": {"href": "/mdr/cdashig/2-2", "title": "Clinical Data Acquisition Standards Harmonization Implementation Guide for Human Clinical Trials Version 2.2", "type": "Implementation Guide"}, "parentScenario": {"href": "/mdr/cdashig/2-2/scenarios/LB.CentralProcessing", "title": "Central Processing", "type": "CDASH Scenario"}, "priorVersion": {"href": "/mdr/cdashig/2-1/scenarios/LB.CentralProcessing/fields/LBTIM", "title": "Specimen Collection Time", "type": "Data Collection Field"}, "rootItem": {"href": "/mdr/root/cdashig/scenarios/LB.CentralProcessing/fields/LBTIM", "title": "Version-agnostic anchor element for scenario field Central Processing.LBTIM", "type": "Root Data Element"}, "sdtmigDatasetMappingTargets": [{"href": "/mdr/sdtmig/3-3/datasets/LB/variables/LBDTC", "title": "Date/Time of Specimen Collection", "type": "SDTM Dataset Variable"}], "self": {"href": "/mdr/cdashig/2-2/scenarios/LB.CentralProcessing/fields/LBTIM", "title": "Specimen Collection Time", "type": "Data Collection Field"}}, "completionInstructions": "Record the (start) time of collection (as complete as possible).", "core": "R/C", "definition": "The time of specimen collection, represented in an unambiguous time format (e.g., hh:mm:ss).", "implementationNotes": "May be required when multiple assessments are done on 1 day or when the timing in relationship to study treatment is required for analysis or a specimen is collected over an extended time period.", "label": "Specimen Collection Time", "mappingInstructions": "This does not map directly to an SDTMIG variable. For the SDTM submission dataset, concatenate all collected CDASH DATE and TIME components and populate the SDTMIG variable LBDTC in ISO 8601 format.", "name": "LBTIM", "ordinal": "8", "prompt": "Specimen Collection (Start) Time", "questionText": "What was the (start) time of the lab specimen collection?", "simpleDatatype": "Char"}, {"_links": {"parentProduct": {"href": "/mdr/cdashig/2-2", "title": "Clinical Data Acquisition Standards Harmonization Implementation Guide for Human Clinical Trials Version 2.2", "type": "Implementation Guide"}, "parentScenario": {"href": "/mdr/cdashig/2-2/scenarios/LB.CentralProcessing", "title": "Central Processing", "type": "CDASH Scenario"}, "priorVersion": {"href": "/mdr/cdashig/2-1/scenarios/LB.CentralProcessing/fields/LBCAT", "title": "Category for Lab Test", "type": "Data Collection Field"}, "rootItem": {"href": "/mdr/root/cdashig/scenarios/LB.CentralProcessing/fields/LBCAT", "title": "Version-agnostic anchor element for scenario field Central Processing.LBCAT", "type": "Root Data Element"}, "sdtmigDatasetMappingTargets": [{"href": "/mdr/sdtmig/3-3/datasets/LB/variables/LBCAT", "title": "Category for Lab Test", "type": "SDTM Dataset Variable"}], "self": {"href": "/mdr/cdashig/2-2/scenarios/LB.CentralProcessing/fields/LBCAT", "title": "Category for Lab Test", "type": "Data Collection Field"}}, "completionInstructions": "Record the lab test category, if not pre-printed on the CRF.", "core": "R/C", "definition": "A grouping of topic-variable values based on user-defined characteristics.", "implementationNotes": "Sponsor-defined controlled terminology. This would most commonly be either a heading or a pre-printed category value on the CRF, and not a question to which the site would provide an answer. If a question is asked, the response would typically be a sponsor-defined codelist. If the form is laid out as a grid, then words such as \"Category\" can be included in the column heading. Laboratory tests have commonly recognized categories and subcategories that should be used whenever appropriate. LBCAT and or LBSCAT should be included if lab status (NOT DONE) is collected for each lab category/subcategory (e.g., HEMATOLOGY, CHEMISTRY, URINALYSIS).", "label": "Category for Lab Test", "mappingInstructions": "Maps directly to the SDTMIG variable listed in the SDTMIG Target column.", "name": "LBCAT", "ordinal": "9", "prompt": "[Lab Panel Name]; NULL", "questionText": "What was the name of the lab panel?", "simpleDatatype": "Char"}, {"_links": {"parentProduct": {"href": "/mdr/cdashig/2-2", "title": "Clinical Data Acquisition Standards Harmonization Implementation Guide for Human Clinical Trials Version 2.2", "type": "Implementation Guide"}, "parentScenario": {"href": "/mdr/cdashig/2-2/scenarios/LB.CentralProcessing", "title": "Central Processing", "type": "CDASH Scenario"}, "priorVersion": {"href": "/mdr/cdashig/2-1/scenarios/LB.CentralProcessing/fields/LBSCAT", "title": "Subcategory for Lab Test", "type": "Data Collection Field"}, "rootItem": {"href": "/mdr/root/cdashig/scenarios/LB.CentralProcessing/fields/LBSCAT", "title": "Version-agnostic anchor element for scenario field Central Processing.LBSCAT", "type": "Root Data Element"}, "sdtmigDatasetMappingTargets": [{"href": "/mdr/sdtmig/3-3/datasets/LB/variables/LBSCAT", "title": "Subcategory for Lab Test", "type": "SDTM Dataset Variable"}], "self": {"href": "/mdr/cdashig/2-2/scenarios/LB.CentralProcessing/fields/LBSCAT", "title": "Subcategory for Lab Test", "type": "Data Collection Field"}}, "completionInstructions": "Record the lab test subcategory, if not pre-printed on the CRF.", "core": "R/C", "definition": "A sub-division of the LBCAT values based on user-defined characteristics.", "implementationNotes": "Sponsor-defined controlled terminology (e.g. electrolytes, liver function). This would most commonly be pre-printed on the CRF or screen and pre-populated in the data management system. This is not typically a question to which the site would provide an answer. Laboratory tests have commonly recognized categories and subcategories that should be used whenever appropriate. LBSCAT can only be used if there is an LBCAT, and it must be a subcategorization of LBCAT.", "label": "Subcategory for Lab Test", "mappingInstructions": "Maps directly to the SDTMIG variable listed in the SDTMIG Target column.", "name": "LBSCAT", "ordinal": "10", "prompt": "[Lab Sub-Panel Name]; NULL", "questionText": "What was the name of the lab sub-panel?", "simpleDatatype": "Char"}, {"_links": {"parentProduct": {"href": "/mdr/cdashig/2-2", "title": "Clinical Data Acquisition Standards Harmonization Implementation Guide for Human Clinical Trials Version 2.2", "type": "Implementation Guide"}, "parentScenario": {"href": "/mdr/cdashig/2-2/scenarios/LB.CentralProcessing", "title": "Central Processing", "type": "CDASH Scenario"}, "priorVersion": {"href": "/mdr/cdashig/2-1/scenarios/LB.CentralProcessing/fields/LBTPT", "title": "Lab Planned Time Point Name", "type": "Data Collection Field"}, "rootItem": {"href": "/mdr/root/cdashig/scenarios/LB.CentralProcessing/fields/LBTPT", "title": "Version-agnostic anchor element for scenario field Central Processing.LBTPT", "type": "Root Data Element"}, "sdtmigDatasetMappingTargets": [{"href": "/mdr/sdtmig/3-3/datasets/LB/variables/LBTPT", "title": "Planned Time Point Name", "type": "SDTM Dataset Variable"}], "self": {"href": "/mdr/cdashig/2-2/scenarios/LB.CentralProcessing/fields/LBTPT", "title": "Lab Planned Time Point Name", "type": "Data Collection Field"}}, "completionInstructions": "Record the planned time point labels for the lab test, if not pre-printed on the CRF.", "core": "R/C", "definition": "A text description of planned time point when measurements should be taken, as defined in the protocol.", "implementationNotes": "Planned time points are needed to differentiate multiple sequential assessments. It is recommended that time points should be pre-printed on the CRF rather than collected in a free-text field. If the form is laid out as a grid, then words such as \"Planned Time Point\" can be included in the column heading.", "label": "Lab Planned Time Point Name", "mappingInstructions": "Maps directly to the SDTMIG variable listed in the SDTMIG Target column. See the SDTMIG for additional information on representing time points. SDTMIG time-point anchors LBTPTREF (text description) and LBRFTDTC (date/time) may be needed, as well as SDTMIG variables LBTPTNUM, LBELTM.", "name": "LBTPT", "ordinal": "11", "prompt": "[Planned Time Point Name]", "questionText": "What was the planned time point of the lab?", "simpleDatatype": "Char"}, {"_links": {"codelist": [{"href": "/mdr/root/ct/sdtmct/codelists/C66742", "title": "Version-agnostic anchor resource for codelist C66742", "type": "Root Value Domain"}], "parentProduct": {"href": "/mdr/cdashig/2-2", "title": "Clinical Data Acquisition Standards Harmonization Implementation Guide for Human Clinical Trials Version 2.2", "type": "Implementation Guide"}, "parentScenario": {"href": "/mdr/cdashig/2-2/scenarios/LB.CentralProcessing", "title": "Central Processing", "type": "CDASH Scenario"}, "priorVersion": {"href": "/mdr/cdashig/2-1/scenarios/LB.CentralProcessing/fields/LBCOND", "title": "Lab Test Condition Met", "type": "Data Collection Field"}, "rootItem": {"href": "/mdr/root/cdashig/scenarios/LB.CentralProcessing/fields/LBCOND", "title": "Version-agnostic anchor element for scenario field Central Processing.LBCOND", "type": "Root Data Element"}, "sdtmigDatasetMappingTargets": [{"href": "/mdr/sdtmig/3-3/datasets/SUPPQUAL/variables/QVAL", "title": "Data Value", "type": "SDTM Dataset Variable"}], "self": {"href": "/mdr/cdashig/2-2/scenarios/LB.CentralProcessing/fields/LBCOND", "title": "Lab Test Condition Met", "type": "Data Collection Field"}}, "completionInstructions": "Record whether protocol defined testing conditions were met.", "core": "R/C", "definition": "Indication whether the testing conditions defined in the protocol were met (e.g., low-fat diet).", "implementationNotes": "This information is collected when the laboratory test results may be affected by whether conditions for testing were properly met. The specific testing conditions required should be pre-printed on the CRF. This may not be relevant for all tests.", "label": "Lab Test Condition Met", "mappingInstructions": "This does not map directly to an SDTMIG variable. This information could be submitted in a SUPPLB dataset as the value of SUPPLB.QVAL where SUPPLB.QNAM =\"LBCOND\" and SUPPLB.LABEL=\"Test Condition Met\". Refer to the current SDTM and SDTMIG for instructions on placement of non-standard variables (NSVs) in SDTM domains.", "name": "LBCOND", "ordinal": "12", "prompt": "Test Condition Met", "questionText": "Were the protocol-defined testing conditions met?", "simpleDatatype": "Char"}, {"_links": {"codelist": [{"href": "/mdr/root/ct/sdtmct/codelists/C66742", "title": "Version-agnostic anchor resource for codelist C66742", "type": "Root Value Domain"}], "parentProduct": {"href": "/mdr/cdashig/2-2", "title": "Clinical Data Acquisition Standards Harmonization Implementation Guide for Human Clinical Trials Version 2.2", "type": "Implementation Guide"}, "parentScenario": {"href": "/mdr/cdashig/2-2/scenarios/LB.CentralProcessing", "title": "Central Processing", "type": "CDASH Scenario"}, "priorVersion": {"href": "/mdr/cdashig/2-1/scenarios/LB.CentralProcessing/fields/LBFAST", "title": "Lab Fasting Status", "type": "Data Collection Field"}, "rootItem": {"href": "/mdr/root/cdashig/scenarios/LB.CentralProcessing/fields/LBFAST", "title": "Version-agnostic anchor element for scenario field Central Processing.LBFAST", "type": "Root Data Element"}, "sdtmigDatasetMappingTargets": [{"href": "/mdr/sdtmig/3-3/datasets/LB/variables/LBFAST", "title": "Fasting Status", "type": "SDTM Dataset Variable"}], "self": {"href": "/mdr/cdashig/2-2/scenarios/LB.CentralProcessing/fields/LBFAST", "title": "Lab Fasting Status", "type": "Data Collection Field"}}, "completionInstructions": "Record whether the subject was fasting prior to the test being performed.", "core": "R/C", "definition": "An indication that the subject has abstained from food/water for the specified amount of time.", "implementationNotes": "Results may be affected by whether the subject was fasting. This may not be relevant for all tests.", "label": "Lab Fasting Status", "mappingInstructions": "Maps directly to the SDTMIG variable listed in the SDTMIG Target column.", "name": "LBFAST", "ordinal": "13", "prompt": "Fasting", "questionText": "Was the subject fasting?", "simpleDatatype": "Char"}, {"_links": {"parentProduct": {"href": "/mdr/cdashig/2-2", "title": "Clinical Data Acquisition Standards Harmonization Implementation Guide for Human Clinical Trials Version 2.2", "type": "Implementation Guide"}, "parentScenario": {"href": "/mdr/cdashig/2-2/scenarios/LB.CentralProcessing", "title": "Central Processing", "type": "CDASH Scenario"}, "priorVersion": {"href": "/mdr/cdashig/2-1/scenarios/LB.CentralProcessing/fields/LBREFID", "title": "Lab Specimen ID", "type": "Data Collection Field"}, "rootItem": {"href": "/mdr/root/cdashig/scenarios/LB.CentralProcessing/fields/LBREFID", "title": "Version-agnostic anchor element for scenario field Central Processing.LBREFID", "type": "Root Data Element"}, "sdtmigDatasetMappingTargets": [{"href": "/mdr/sdtmig/3-3/datasets/LB/variables/LBREFID", "title": "Specimen ID", "type": "SDTM Dataset Variable"}], "self": {"href": "/mdr/cdashig/2-2/scenarios/LB.CentralProcessing/fields/LBREFID", "title": "Lab Specimen ID", "type": "Data Collection Field"}}, "completionInstructions": "Record the specimen or accession number assigned.", "core": "R/C", "definition": "An internal or external identifier (e.g., specimen identifier).", "implementationNotes": "This can be used to confirm that the appropriate data record is present in the electronic transfer. May be included for linking back to specimens (e.g., Specimen ID).", "label": "Lab Specimen ID", "mappingInstructions": "Maps directly to the SDTMIG variable listed in the SDTMIG Target column. May be used to create RELREC to link this record with a record in another domain.", "name": "LBREFID", "ordinal": "14", "prompt": "(Laboratory) [Reference identifier/Accession Number]", "questionText": "What was the (laboratory test) [reference identifier/accession number]?", "simpleDatatype": "Char"}], "ordinal": "1", "scenario": "Central Processing"}
