{"_links": {"parentClass": {"href": "/mdr/cdashig/2-2/classes/Findings", "title": "Findings", "type": "Class"}, "parentDomain": {"href": "/mdr/cdashig/2-2/domains/MB", "title": "Microbiology Specimen", "type": "CDASH Domain"}, "parentProduct": {"href": "/mdr/cdashig/2-2", "title": "Clinical Data Acquisition Standards Harmonization Implementation Guide for Human Clinical Trials Version 2.2", "type": "Implementation Guide"}, "priorVersion": {"href": "/mdr/cdashig/2-1/scenarios/MB.LocalProcessing", "title": "Local Processing", "type": "CDASH Scenario"}, "self": {"href": "/mdr/cdashig/2-2/scenarios/MB.LocalProcessing", "title": "Local Processing", "type": "CDASH Scenario"}}, "domain": "Microbiology Specimen", "domainName": "MB", "fields": [{"_links": {"parentProduct": {"href": "/mdr/cdashig/2-2", "title": "Clinical Data Acquisition Standards Harmonization Implementation Guide for Human Clinical Trials Version 2.2", "type": "Implementation Guide"}, "parentScenario": {"href": "/mdr/cdashig/2-2/scenarios/MB.LocalProcessing", "title": "Local Processing", "type": "CDASH Scenario"}, "priorVersion": {"href": "/mdr/cdashig/2-1/scenarios/MB.LocalProcessing/fields/STUDYID", "title": "Study Identifier", "type": "Data Collection Field"}, "rootItem": {"href": "/mdr/root/cdashig/scenarios/MB.LocalProcessing/fields/STUDYID", "title": "Version-agnostic anchor element for scenario field Local Processing.STUDYID", "type": "Root Data Element"}, "sdtmigDatasetMappingTargets": [{"href": "/mdr/sdtmig/3-3/datasets/MB/variables/STUDYID", "title": "Study Identifier", "type": "SDTM Dataset Variable"}], "self": {"href": "/mdr/cdashig/2-2/scenarios/MB.LocalProcessing/fields/STUDYID", "title": "Study Identifier", "type": "Data Collection Field"}}, "core": "HR", "definition": "A unique identifier for a study.", "implementationNotes": "Although this field is not typically captured on a CRF, it should be displayed clearly on the CRF and/or in the EDC system. This field can be included in the database or populated during SDTM-based dataset creation before submission.", "label": "Study Identifier", "mappingInstructions": "Maps directly to the SDTMIG variable listed in the SDTMIG Target column.", "name": "STUDYID", "ordinal": "1", "prompt": "[Protocol/Study]", "questionText": "What is the study identifier?", "simpleDatatype": "Char"}, {"_links": {"parentProduct": {"href": "/mdr/cdashig/2-2", "title": "Clinical Data Acquisition Standards Harmonization Implementation Guide for Human Clinical Trials Version 2.2", "type": "Implementation Guide"}, "parentScenario": {"href": "/mdr/cdashig/2-2/scenarios/MB.LocalProcessing", "title": "Local Processing", "type": "CDASH Scenario"}, "priorVersion": {"href": "/mdr/cdashig/2-1/scenarios/MB.LocalProcessing/fields/SITEID", "title": "Study Site Identifier", "type": "Data Collection Field"}, "rootItem": {"href": "/mdr/root/cdashig/scenarios/MB.LocalProcessing/fields/SITEID", "title": "Version-agnostic anchor element for scenario field Local Processing.SITEID", "type": "Root Data Element"}, "sdtmigDatasetMappingTargets": [{"href": "/mdr/sdtmig/3-3/datasets/DM/variables/SITEID", "title": "Study Site Identifier", "type": "SDTM Dataset Variable"}], "self": {"href": "/mdr/cdashig/2-2/scenarios/MB.LocalProcessing/fields/SITEID", "title": "Study Site Identifier", "type": "Data Collection Field"}}, "core": "HR", "definition": "A unique identifier for a site within a study.", "implementationNotes": "Paper: This is typically pre-printed in the header of each CRF page for single-site studies. For studies with multiple sites, this field may be left blank so that the number can be recorded by the site, or it may be pre-printed on the CRFs that are shipped to each site. \\n EDC: This should be pre-populated.", "label": "Study Site Identifier", "mappingInstructions": "Maps directly to the SDTMIG variable listed in the SDTMIG Target column.", "name": "SITEID", "ordinal": "2", "prompt": "Site (Identifier)", "questionText": "What is the site identifier?", "simpleDatatype": "Char"}, {"_links": {"parentProduct": {"href": "/mdr/cdashig/2-2", "title": "Clinical Data Acquisition Standards Harmonization Implementation Guide for Human Clinical Trials Version 2.2", "type": "Implementation Guide"}, "parentScenario": {"href": "/mdr/cdashig/2-2/scenarios/MB.LocalProcessing", "title": "Local Processing", "type": "CDASH Scenario"}, "priorVersion": {"href": "/mdr/cdashig/2-1/scenarios/MB.LocalProcessing/fields/SUBJID", "title": "Subject Identifier for the Study", "type": "Data Collection Field"}, "rootItem": {"href": "/mdr/root/cdashig/scenarios/MB.LocalProcessing/fields/SUBJID", "title": "Version-agnostic anchor element for scenario field Local Processing.SUBJID", "type": "Root Data Element"}, "sdtmigDatasetMappingTargets": [{"href": "/mdr/sdtmig/3-3/datasets/DM/variables/SUBJID", "title": "Subject Identifier for the Study", "type": "SDTM Dataset Variable"}], "self": {"href": "/mdr/cdashig/2-2/scenarios/MB.LocalProcessing/fields/SUBJID", "title": "Subject Identifier for the Study", "type": "Data Collection Field"}}, "completionInstructions": "Record the identifier for the subject.", "core": "HR", "definition": "A unique subject identifier within a site and a study.", "implementationNotes": "Paper: This is typically recorded in the header of each CRF page. EDC: The subject identifiers may be system-generated. This CDASH variable is typically collected in all CDASH domains. However, this CDASH variable is populated only in the SDTMIG DM domain. For more information, refer to the SDTMIG.", "label": "Subject Identifier for the Study", "mappingInstructions": "Maps directly to the SDTMIG variable listed in the SDTMIG Target column.", "name": "SUBJID", "ordinal": "3", "prompt": "[Subject/Participant] (Identifier)", "questionText": "What [is/was] the (study) [subject/participant] identifier?", "simpleDatatype": "Char"}, {"_links": {"parentProduct": {"href": "/mdr/cdashig/2-2", "title": "Clinical Data Acquisition Standards Harmonization Implementation Guide for Human Clinical Trials Version 2.2", "type": "Implementation Guide"}, "parentScenario": {"href": "/mdr/cdashig/2-2/scenarios/MB.LocalProcessing", "title": "Local Processing", "type": "CDASH Scenario"}, "priorVersion": {"href": "/mdr/cdashig/2-1/scenarios/MB.LocalProcessing/fields/VISIT", "title": "Visit Name", "type": "Data Collection Field"}, "rootItem": {"href": "/mdr/root/cdashig/scenarios/MB.LocalProcessing/fields/VISIT", "title": "Version-agnostic anchor element for scenario field Local Processing.VISIT", "type": "Root Data Element"}, "sdtmigDatasetMappingTargets": [{"href": "/mdr/sdtmig/3-3/datasets/MB/variables/VISIT", "title": "Visit Name", "type": "SDTM Dataset Variable"}], "self": {"href": "/mdr/cdashig/2-2/scenarios/MB.LocalProcessing/fields/VISIT", "title": "Visit Name", "type": "Data Collection Field"}}, "core": "R/C", "definition": "The name of a clinical encounter that encompasses planned and unplanned trial interventions, procedures, and assessments that may be performed on a subject.", "implementationNotes": "The name of the clinical encounter is typically pre-printed on the CRF or displayed within the EDC for any visit-based data collection, most often in Findings domains. This Visit text description is then available in any EDC data extract for that Findings domain.", "label": "Visit Name", "mappingInstructions": "Maps directly to the SDTMIG variable listed in the SDTMIG Target column.", "name": "VISIT", "ordinal": "4", "prompt": "[Visit]", "questionText": "What is the visit name?", "simpleDatatype": "Char"}, {"_links": {"parentProduct": {"href": "/mdr/cdashig/2-2", "title": "Clinical Data Acquisition Standards Harmonization Implementation Guide for Human Clinical Trials Version 2.2", "type": "Implementation Guide"}, "parentScenario": {"href": "/mdr/cdashig/2-2/scenarios/MB.LocalProcessing", "title": "Local Processing", "type": "CDASH Scenario"}, "priorVersion": {"href": "/mdr/cdashig/2-1/scenarios/MB.LocalProcessing/fields/VISDAT", "title": "Visit Date", "type": "Data Collection Field"}, "rootItem": {"href": "/mdr/root/cdashig/scenarios/MB.LocalProcessing/fields/VISDAT", "title": "Version-agnostic anchor element for scenario field Local Processing.VISDAT", "type": "Root Data Element"}, "self": {"href": "/mdr/cdashig/2-2/scenarios/MB.LocalProcessing/fields/VISDAT", "title": "Visit Date", "type": "Data Collection Field"}}, "completionInstructions": "Record the [date/start date] of the visit using the format (DD-MON-YYYY).", "core": "R/C", "definition": "Date the clinical encounter occurred (or started).", "implementationNotes": "The date that the microbiology specimens were collected can be determined from from the visit date variable (VISDAT) and applying that date to all of the microbiology findings at that visit, or the specimen collection date can be included on the Microbiology Findings CRF using the date (MBDAT) field.", "label": "Visit Date", "mappingInstructions": "This field is not an SDTM variable. The date of a measurement, test, observation or specimen collection date can be determined from the date/time of visit (VISDAT/VISTIM) and then concatenating the CDASH VISDAT/VISTIM components and populating the SDTMIG variable MBDTC in ISO 8601 format.", "name": "VISDAT", "ordinal": "5", "prompt": "(Visit) Date", "questionText": "What [is/was] the date of the visit?", "simpleDatatype": "Char"}, {"_links": {"codelist": [{"href": "/mdr/root/ct/sdtmct/codelists/C66742", "title": "Version-agnostic anchor resource for codelist C66742", "type": "Root Value Domain"}], "parentProduct": {"href": "/mdr/cdashig/2-2", "title": "Clinical Data Acquisition Standards Harmonization Implementation Guide for Human Clinical Trials Version 2.2", "type": "Implementation Guide"}, "parentScenario": {"href": "/mdr/cdashig/2-2/scenarios/MB.LocalProcessing", "title": "Local Processing", "type": "CDASH Scenario"}, "priorVersion": {"href": "/mdr/cdashig/2-1/scenarios/MB.LocalProcessing/fields/MBPERF", "title": "Microbiology Sampling Performed", "type": "Data Collection Field"}, "rootItem": {"href": "/mdr/root/cdashig/scenarios/MB.LocalProcessing/fields/MBPERF", "title": "Version-agnostic anchor element for scenario field Local Processing.MBPERF", "type": "Root Data Element"}, "sdtmigDatasetMappingTargets": [{"href": "/mdr/sdtmig/3-3/datasets/MB/variables/MBSTAT", "title": "Completion Status", "type": "SDTM Dataset Variable"}], "self": {"href": "/mdr/cdashig/2-2/scenarios/MB.LocalProcessing/fields/MBPERF", "title": "Microbiology Sampling Performed", "type": "Data Collection Field"}}, "completionInstructions": "Indicate whether or not microbiology examination was performed.", "core": "O", "definition": "An indication of whether a planned measurement or series of measurements, test, or observations was performed, or specimen was collected.", "implementationNotes": "This may be implemented for an entire panel. General prompt question to be used as a data management tool to verify that missing results are confirmed missing.", "label": "Microbiology Sampling Performed", "mappingInstructions": "This does not map directly to an SDTMIG variable. May be used to derive a value into the SDTM variable MBSTAT. If MBPERF=\"N\", the value of MBSTAT will be \"NOT DONE\". If MBPERF=\"Y\", MBSTAT should be null. A combination of SDTMIG variables (e.g., MBCAT and MBSCAT, MBTPT ) is used to indicate that multiple tests were not done. In this situation, the SDTMIG variable MBTESTCD would be populated as MBALL and an appropriate test name (MBTEST) provided. See the SDTMIG.", "name": "MBPERF", "ordinal": "6", "prompt": "Microbiology Examination Performed", "questionText": "Was the microbiology examination performed?", "simpleDatatype": "Char"}, {"_links": {"parentProduct": {"href": "/mdr/cdashig/2-2", "title": "Clinical Data Acquisition Standards Harmonization Implementation Guide for Human Clinical Trials Version 2.2", "type": "Implementation Guide"}, "parentScenario": {"href": "/mdr/cdashig/2-2/scenarios/MB.LocalProcessing", "title": "Local Processing", "type": "CDASH Scenario"}, "priorVersion": {"href": "/mdr/cdashig/2-1/scenarios/MB.LocalProcessing/fields/MBREFID", "title": "MB Reference ID", "type": "Data Collection Field"}, "rootItem": {"href": "/mdr/root/cdashig/scenarios/MB.LocalProcessing/fields/MBREFID", "title": "Version-agnostic anchor element for scenario field Local Processing.MBREFID", "type": "Root Data Element"}, "sdtmigDatasetMappingTargets": [{"href": "/mdr/sdtmig/3-3/datasets/MB/variables/MBREFID", "title": "Reference ID", "type": "SDTM Dataset Variable"}], "self": {"href": "/mdr/cdashig/2-2/scenarios/MB.LocalProcessing/fields/MBREFID", "title": "MB Reference ID", "type": "Data Collection Field"}}, "completionInstructions": "Record the specimen [accession/reference] number assigned.", "core": "O", "definition": "An internal or external identifier (e.g., specimen identifier).", "implementationNotes": "This can be used to reconcile CRF data. May be included for linking back to specimens (e.g., Specimen ID).", "label": "MB Reference ID", "mappingInstructions": "Maps directly to the SDTMIG variable listed in the SDTMIG Target column. May be used to create RELREC to link this record with a record in another domain.", "name": "MBREFID", "ordinal": "7", "prompt": "(Microbiology Test) [Reference identifier/Accession Number]", "questionText": "What was the (microbiology test) [reference identifier/accession number]?", "simpleDatatype": "Char"}, {"_links": {"parentProduct": {"href": "/mdr/cdashig/2-2", "title": "Clinical Data Acquisition Standards Harmonization Implementation Guide for Human Clinical Trials Version 2.2", "type": "Implementation Guide"}, "parentScenario": {"href": "/mdr/cdashig/2-2/scenarios/MB.LocalProcessing", "title": "Local Processing", "type": "CDASH Scenario"}, "priorVersion": {"href": "/mdr/cdashig/2-1/scenarios/MB.LocalProcessing/fields/MBSPID", "title": "MB Sponsor-Defined Identifier", "type": "Data Collection Field"}, "rootItem": {"href": "/mdr/root/cdashig/scenarios/MB.LocalProcessing/fields/MBSPID", "title": "Version-agnostic anchor element for scenario field Local Processing.MBSPID", "type": "Root Data Element"}, "sdtmigDatasetMappingTargets": [{"href": "/mdr/sdtmig/3-3/datasets/MB/variables/MBSPID", "title": "Sponsor-Defined Identifier", "type": "SDTM Dataset Variable"}], "self": {"href": "/mdr/cdashig/2-2/scenarios/MB.LocalProcessing/fields/MBSPID", "title": "MB Sponsor-Defined Identifier", "type": "Data Collection Field"}}, "completionInstructions": "If collected on the CRF, the sponsor may insert instructions to ensure each record has a unique identifier.", "core": "O", "definition": "A sponsor-defined identifier. In CDASH, this is typically used for pre-printed or auto-generated numbers on the CRF, or any other type of identifier that does not already have a defined CDASH identifier field.", "implementationNotes": "Because SPID is a sponsor-defined identifier, conformance to Question Text or Item Prompt is not applicable. Typically used as an identifier in a data query to communicate clearly to the site the specific record in question or to reconcile data. May be used to record pre-printed number (e.g., line number, record number) on the CRF. This field may be populated by the sponsor's data collection system.", "label": "MB Sponsor-Defined Identifier", "mappingInstructions": "Maps directly to the SDTMIG variable listed in the SDTMIG Target column. May be used to create RELREC to link this record with a record in another domain.", "name": "MBSPID", "ordinal": "8", "prompt": "[Sponsor defined]", "questionText": "[Sponsor-defined question]", "simpleDatatype": "Char"}, {"_links": {"parentProduct": {"href": "/mdr/cdashig/2-2", "title": "Clinical Data Acquisition Standards Harmonization Implementation Guide for Human Clinical Trials Version 2.2", "type": "Implementation Guide"}, "parentScenario": {"href": "/mdr/cdashig/2-2/scenarios/MB.LocalProcessing", "title": "Local Processing", "type": "CDASH Scenario"}, "priorVersion": {"href": "/mdr/cdashig/2-1/scenarios/MB.LocalProcessing/fields/MBGRPID", "title": "MB Group ID", "type": "Data Collection Field"}, "rootItem": {"href": "/mdr/root/cdashig/scenarios/MB.LocalProcessing/fields/MBGRPID", "title": "Version-agnostic anchor element for scenario field Local Processing.MBGRPID", "type": "Root Data Element"}, "sdtmigDatasetMappingTargets": [{"href": "/mdr/sdtmig/3-3/datasets/MB/variables/MBGRPID", "title": "Group ID", "type": "SDTM Dataset Variable"}], "self": {"href": "/mdr/cdashig/2-2/scenarios/MB.LocalProcessing/fields/MBGRPID", "title": "MB Group ID", "type": "Data Collection Field"}}, "completionInstructions": "If collected on the CRF, the sponsor may insert instructions as to where it may be appropriate to group MB specimen records within a subject and how to indicate a specific MBGRPID..", "core": "O", "definition": "A group identifier used to link together a block of related records within a subject in a domain.", "implementationNotes": "Used to link together a block of related records within a subject. Should not be used to link detection records in MB to the associated susceptibility results in the MS domain. NHOID should be used to identify the non-host organism.", "label": "MB Group ID", "mappingInstructions": "Maps directly to the SDTMIG variable listed in the SDTMIG Target column.", "name": "MBGRPID", "ordinal": "9", "prompt": "[Test/Procedure/Observation] Group Identifier", "questionText": "What [is/was] the [test/procedure/observation] group identifier?", "simpleDatatype": "Char"}, {"_links": {"parentProduct": {"href": "/mdr/cdashig/2-2", "title": "Clinical Data Acquisition Standards Harmonization Implementation Guide for Human Clinical Trials Version 2.2", "type": "Implementation Guide"}, "parentScenario": {"href": "/mdr/cdashig/2-2/scenarios/MB.LocalProcessing", "title": "Local Processing", "type": "CDASH Scenario"}, "priorVersion": {"href": "/mdr/cdashig/2-1/scenarios/MB.LocalProcessing/fields/MBLNKID", "title": "MB Link ID", "type": "Data Collection Field"}, "rootItem": {"href": "/mdr/root/cdashig/scenarios/MB.LocalProcessing/fields/MBLNKID", "title": "Version-agnostic anchor element for scenario field Local Processing.MBLNKID", "type": "Root Data Element"}, "sdtmigDatasetMappingTargets": [{"href": "/mdr/sdtmig/3-3/datasets/MB/variables/MBLNKID", "title": "Link ID", "type": "SDTM Dataset Variable"}], "self": {"href": "/mdr/cdashig/2-2/scenarios/MB.LocalProcessing/fields/MBLNKID", "title": "MB Link ID", "type": "Data Collection Field"}}, "completionInstructions": "If collected on the CRF, the sponsor may insert instructions to ensure each microbiology specimen or result record has a unique identifier that will link records across domains.", "core": "O", "definition": "An identifier used to link related records across domains.", "implementationNotes": "This may be a one-to-one or a one-to-many relationship. May be used to link to susceptibility records (in MS) if needed.", "label": "MB Link ID", "mappingInstructions": "Maps directly to the SDTMIG variable listed in the SDTMIG Target column. May be used to create RELREC to link this record with a record in another domain.", "name": "MBLNKID", "ordinal": "10", "prompt": "[Domain/Observation] Link Identifier", "questionText": "What [is/was] the [test/procedure/observation] link identifier?", "simpleDatatype": "Char"}, {"_links": {"parentProduct": {"href": "/mdr/cdashig/2-2", "title": "Clinical Data Acquisition Standards Harmonization Implementation Guide for Human Clinical Trials Version 2.2", "type": "Implementation Guide"}, "parentScenario": {"href": "/mdr/cdashig/2-2/scenarios/MB.LocalProcessing", "title": "Local Processing", "type": "CDASH Scenario"}, "priorVersion": {"href": "/mdr/cdashig/2-1/scenarios/MB.LocalProcessing/fields/MBDAT", "title": "MB Specimen Collection Date", "type": "Data Collection Field"}, "rootItem": {"href": "/mdr/root/cdashig/scenarios/MB.LocalProcessing/fields/MBDAT", "title": "Version-agnostic anchor element for scenario field Local Processing.MBDAT", "type": "Root Data Element"}, "sdtmigDatasetMappingTargets": [{"href": "/mdr/sdtmig/3-3/datasets/MB/variables/MBDTC", "title": "Date/Time of Collection", "type": "SDTM Dataset Variable"}], "self": {"href": "/mdr/cdashig/2-2/scenarios/MB.LocalProcessing/fields/MBDAT", "title": "MB Specimen Collection Date", "type": "Data Collection Field"}}, "completionInstructions": "Record the (start) date of specimen collection using this format (DD-MON-YYYY).", "core": "R/C", "definition": "The date of specimen collection, represented in an unambiguous date format (e.g., DD-MON-YYYY).", "implementationNotes": "A complete date is expected. The date of specimen collection may be determined from the date of visit (VISDAT) and, if so, a separate assessment date field is not required.", "label": "MB Specimen Collection Date", "mappingInstructions": "This does not map directly to an SDTMIG variable. For the SDTM submission dataset, concatenate all collected CDASH DATE and TIME components and populate the SDTMIG variable MBDTC in ISO 8601 format.", "name": "MBDAT", "ordinal": "11", "prompt": "Specimen Collection (Start) Date", "questionText": "What was the (start) date of the (microbiology) specimen collection?", "simpleDatatype": "Char"}, {"_links": {"parentProduct": {"href": "/mdr/cdashig/2-2", "title": "Clinical Data Acquisition Standards Harmonization Implementation Guide for Human Clinical Trials Version 2.2", "type": "Implementation Guide"}, "parentScenario": {"href": "/mdr/cdashig/2-2/scenarios/MB.LocalProcessing", "title": "Local Processing", "type": "CDASH Scenario"}, "priorVersion": {"href": "/mdr/cdashig/2-1/scenarios/MB.LocalProcessing/fields/MBTIM", "title": "MB Specimen Collection Time", "type": "Data Collection Field"}, "rootItem": {"href": "/mdr/root/cdashig/scenarios/MB.LocalProcessing/fields/MBTIM", "title": "Version-agnostic anchor element for scenario field Local Processing.MBTIM", "type": "Root Data Element"}, "sdtmigDatasetMappingTargets": [{"href": "/mdr/sdtmig/3-3/datasets/MB/variables/MBDTC", "title": "Date/Time of Collection", "type": "SDTM Dataset Variable"}], "self": {"href": "/mdr/cdashig/2-2/scenarios/MB.LocalProcessing/fields/MBTIM", "title": "MB Specimen Collection Time", "type": "Data Collection Field"}}, "completionInstructions": "Record the (start) time of collection (as complete as possible).", "core": "R/C", "definition": "The time of specimen collection, represented in an unambiguous time format (e.g., hh:mm:ss).", "implementationNotes": "May be required when multiple assessments are done on one day or when the timing in relationship to study treatment is required for analysis.", "label": "MB Specimen Collection Time", "mappingInstructions": "This does not map directly to an SDTMIG variable. For the SDTM submission dataset, concatenate all collected CDASH DATE and TIME components and populate the SDTMIG variable MBDTC in ISO 8601 format.", "name": "MBTIM", "ordinal": "12", "prompt": "Specimen Collection (Start) Time", "questionText": "What was the (start) time of the (microbiology) specimen collection?", "simpleDatatype": "Char"}, {"_links": {"parentProduct": {"href": "/mdr/cdashig/2-2", "title": "Clinical Data Acquisition Standards Harmonization Implementation Guide for Human Clinical Trials Version 2.2", "type": "Implementation Guide"}, "parentScenario": {"href": "/mdr/cdashig/2-2/scenarios/MB.LocalProcessing", "title": "Local Processing", "type": "CDASH Scenario"}, "priorVersion": {"href": "/mdr/cdashig/2-1/scenarios/MB.LocalProcessing/fields/MBCAT", "title": "MB Category for Microbiology Finding", "type": "Data Collection Field"}, "rootItem": {"href": "/mdr/root/cdashig/scenarios/MB.LocalProcessing/fields/MBCAT", "title": "Version-agnostic anchor element for scenario field Local Processing.MBCAT", "type": "Root Data Element"}, "sdtmigDatasetMappingTargets": [{"href": "/mdr/sdtmig/3-3/datasets/MB/variables/MBCAT", "title": "Category", "type": "SDTM Dataset Variable"}], "self": {"href": "/mdr/cdashig/2-2/scenarios/MB.LocalProcessing/fields/MBCAT", "title": "MB Category for Microbiology Finding", "type": "Data Collection Field"}}, "completionInstructions": "Record the microbiology finding category, if not pre-printed on the CRF.", "core": "O", "definition": "A grouping of topic-variable values based on user-defined characteristics.", "implementationNotes": "Sponsor-defined controlled terminology. This would most commonly be either a heading or a pre-printed category value on the CRF, not a question to which the site would provide an answer. If a question is asked, the response would typically be a sponsor-defined codelist. If the form is laid out as a grid, then words such as \"Category\" can be included as the column heading.", "label": "MB Category for Microbiology Finding", "mappingInstructions": "Maps directly to the SDTMIG variable listed in the SDTMIG Target column.", "name": "MBCAT", "ordinal": "13", "prompt": "[Microbiology Category]; NULL", "questionText": "What was the category of the microbiology finding?", "simpleDatatype": "Char"}, {"_links": {"parentProduct": {"href": "/mdr/cdashig/2-2", "title": "Clinical Data Acquisition Standards Harmonization Implementation Guide for Human Clinical Trials Version 2.2", "type": "Implementation Guide"}, "parentScenario": {"href": "/mdr/cdashig/2-2/scenarios/MB.LocalProcessing", "title": "Local Processing", "type": "CDASH Scenario"}, "priorVersion": {"href": "/mdr/cdashig/2-1/scenarios/MB.LocalProcessing/fields/MBSCAT", "title": "MB Subcategory for Microbiology Finding", "type": "Data Collection Field"}, "rootItem": {"href": "/mdr/root/cdashig/scenarios/MB.LocalProcessing/fields/MBSCAT", "title": "Version-agnostic anchor element for scenario field Local Processing.MBSCAT", "type": "Root Data Element"}, "sdtmigDatasetMappingTargets": [{"href": "/mdr/sdtmig/3-3/datasets/MB/variables/MBSCAT", "title": "Subcategory", "type": "SDTM Dataset Variable"}], "self": {"href": "/mdr/cdashig/2-2/scenarios/MB.LocalProcessing/fields/MBSCAT", "title": "MB Subcategory for Microbiology Finding", "type": "Data Collection Field"}}, "completionInstructions": "Record the microbiology finding subcategory, if not pre-printed on the CRF.", "core": "O", "definition": "A sub-division of the MBCAT values based on user-defined characteristics.", "implementationNotes": "Sponsor-defined controlled terminology. This would most commonly be either a heading or a pre-printed category value on the CRF, not a question to which the site would provide an answer. If a question is asked, the response would typically be a sponsor-defined codelist. If the form is laid out as a grid, then words such as \"Subcategory\" can be included as the column heading. MBSCAT can only be used if there is an MBCAT, and it must be a subcategorization of MBCAT.", "label": "MB Subcategory for Microbiology Finding", "mappingInstructions": "Maps directly to the SDTMIG variable listed in the SDTMIG Target column.", "name": "MBSCAT", "ordinal": "14", "prompt": "[Microbiology Subcategory]; NULL", "questionText": "What was the subcategory of the microbiology finding?", "simpleDatatype": "Char"}, {"_links": {"codelist": [{"href": "/mdr/root/ct/sdtmct/codelists/C120528", "title": "Version-agnostic anchor resource for codelist C120528", "type": "Root Value Domain"}], "parentProduct": {"href": "/mdr/cdashig/2-2", "title": "Clinical Data Acquisition Standards Harmonization Implementation Guide for Human Clinical Trials Version 2.2", "type": "Implementation Guide"}, "parentScenario": {"href": "/mdr/cdashig/2-2/scenarios/MB.LocalProcessing", "title": "Local Processing", "type": "CDASH Scenario"}, "priorVersion": {"href": "/mdr/cdashig/2-1/scenarios/MB.LocalProcessing/fields/MBTEST", "title": "Microbiology Test or Finding Name", "type": "Data Collection Field"}, "rootItem": {"href": "/mdr/root/cdashig/scenarios/MB.LocalProcessing/fields/MBTEST", "title": "Version-agnostic anchor element for scenario field Local Processing.MBTEST", "type": "Root Data Element"}, "sdtmigDatasetMappingTargets": [{"href": "/mdr/sdtmig/3-3/datasets/MB/variables/MBTEST", "title": "Microbiology Test or Finding Name", "type": "SDTM Dataset Variable"}, {"href": "/mdr/sdtmig/3-3/datasets/MB/variables/MBTESTCD", "title": "Microbiology Test or Finding Short Name", "type": "SDTM Dataset Variable"}], "self": {"href": "/mdr/cdashig/2-2/scenarios/MB.LocalProcessing/fields/MBTEST", "title": "Microbiology Test or Finding Name", "type": "Data Collection Field"}}, "completionInstructions": "Record the type or name of the microbiology examination, if not pre-printed on the CRF. If collected on the CRF, the sponsor may provide additional instructions to ensure the data is entered as intended.", "core": "HR", "definition": "Descriptive name of the microbiology test or examination used to obtain the measurement or finding.", "implementationNotes": "Required to identify which test the result is for. It is recommended that the test names be pre-printed on the CRF rather than collected in a free-text field. If the form is laid out as a grid, then words such as \"Test\" can be included as the column heading.", "label": "Microbiology Test or Finding Name", "mappingInstructions": "Maps directly to the SDTMIG variable listed in the SDTMIG Target column. The SDTMIG variable MBTESTCD may be determined from the value collected in MBTEST. Both MBTESTCD and MBTEST are required in the SDTM submission datasets. Use appropriate CDISC Controlled Terminology for the test and test code.", "name": "MBTEST", "ordinal": "15", "prompt": "[Microbiology Test Name]", "questionText": "What was the microbiology examination test name?", "simpleDatatype": "Char"}, {"_links": {"parentProduct": {"href": "/mdr/cdashig/2-2", "title": "Clinical Data Acquisition Standards Harmonization Implementation Guide for Human Clinical Trials Version 2.2", "type": "Implementation Guide"}, "parentScenario": {"href": "/mdr/cdashig/2-2/scenarios/MB.LocalProcessing", "title": "Local Processing", "type": "CDASH Scenario"}, "priorVersion": {"href": "/mdr/cdashig/2-1/scenarios/MB.LocalProcessing/fields/MBTSTDTL", "title": "Microbiology Examination Detail", "type": "Data Collection Field"}, "rootItem": {"href": "/mdr/root/cdashig/scenarios/MB.LocalProcessing/fields/MBTSTDTL", "title": "Version-agnostic anchor element for scenario field Local Processing.MBTSTDTL", "type": "Root Data Element"}, "sdtmigDatasetMappingTargets": [{"href": "/mdr/sdtmig/3-3/datasets/MB/variables/MBTSTDTL", "title": "Measurement, Test or Examination Detail", "type": "SDTM Dataset Variable"}], "self": {"href": "/mdr/cdashig/2-2/scenarios/MB.LocalProcessing/fields/MBTSTDTL", "title": "Microbiology Examination Detail", "type": "Data Collection Field"}}, "completionInstructions": "Record the detail of the microbiology examination, if not pre-printed on the CRF.", "core": "O", "definition": "Detail of the microbiology examination used to obtain the measurement or finding.", "implementationNotes": "Provides additional details for the microbiology examination. It is recommended that the test detail be pre-printed on the CRF. If the form is laid out as a grid, then words such as \"Test Detail\" can be included as the column heading.", "label": "Microbiology Examination Detail", "mappingInstructions": "Maps directly to the SDTMIG variable listed in the SDTMIG Target column.", "name": "MBTSTDTL", "ordinal": "16", "prompt": "[Examination Name Detail]", "questionText": "What was the microbiology examination detail?", "simpleDatatype": "Char"}, {"_links": {"parentProduct": {"href": "/mdr/cdashig/2-2", "title": "Clinical Data Acquisition Standards Harmonization Implementation Guide for Human Clinical Trials Version 2.2", "type": "Implementation Guide"}, "parentScenario": {"href": "/mdr/cdashig/2-2/scenarios/MB.LocalProcessing", "title": "Local Processing", "type": "CDASH Scenario"}, "priorVersion": {"href": "/mdr/cdashig/2-1/scenarios/MB.LocalProcessing/fields/MBORRES", "title": "MB Result or Finding in Original Units", "type": "Data Collection Field"}, "rootItem": {"href": "/mdr/root/cdashig/scenarios/MB.LocalProcessing/fields/MBORRES", "title": "Version-agnostic anchor element for scenario field Local Processing.MBORRES", "type": "Root Data Element"}, "sdtmigDatasetMappingTargets": [{"href": "/mdr/sdtmig/3-3/datasets/MB/variables/MBORRES", "title": "Result or Finding in Original Units", "type": "SDTM Dataset Variable"}], "self": {"href": "/mdr/cdashig/2-2/scenarios/MB.LocalProcessing/fields/MBORRES", "title": "MB Result or Finding in Original Units", "type": "Data Collection Field"}}, "completionInstructions": "Record test result, interpretation, or finding.", "core": "HR", "definition": "Result of the measurement or finding as originally received or collected.", "implementationNotes": "Both quantitative results and interpretive findings or summaries may be recorded here.", "label": "MB Result or Finding in Original Units", "mappingInstructions": "Maps directly to the SDTMIG variable listed in the SDTMIG Target column.", "name": "MBORRES", "ordinal": "17", "prompt": "(Result)", "questionText": "What was the result of the examination?", "simpleDatatype": "Char"}, {"_links": {"codelist": [{"href": "/mdr/root/ct/sdtmct/codelists/C71620", "title": "Version-agnostic anchor resource for codelist C71620", "type": "Root Value Domain"}], "parentProduct": {"href": "/mdr/cdashig/2-2", "title": "Clinical Data Acquisition Standards Harmonization Implementation Guide for Human Clinical Trials Version 2.2", "type": "Implementation Guide"}, "parentScenario": {"href": "/mdr/cdashig/2-2/scenarios/MB.LocalProcessing", "title": "Local Processing", "type": "CDASH Scenario"}, "priorVersion": {"href": "/mdr/cdashig/2-1/scenarios/MB.LocalProcessing/fields/MBORRESU", "title": "MB Original Units", "type": "Data Collection Field"}, "rootItem": {"href": "/mdr/root/cdashig/scenarios/MB.LocalProcessing/fields/MBORRESU", "title": "Version-agnostic anchor element for scenario field Local Processing.MBORRESU", "type": "Root Data Element"}, "sdtmigDatasetMappingTargets": [{"href": "/mdr/sdtmig/3-3/datasets/MB/variables/MBORRESU", "title": "Original Units", "type": "SDTM Dataset Variable"}], "self": {"href": "/mdr/cdashig/2-2/scenarios/MB.LocalProcessing/fields/MBORRESU", "title": "MB Original Units", "type": "Data Collection Field"}}, "completionInstructions": "Record or select the original unit in which these data were collected, if not pre-printed on CRF.", "core": "R/C", "definition": "The unit of the result as originally received or collected.", "implementationNotes": "Should be pre-printed on the CRF with the associated test when possible, rather than collected in a free-text field. Should be included if applicable and not available elsewhere. For some tests the units may not be applicable (e.g., where MBTEST=\"Microbial Organism Identification\").", "label": "MB Original Units", "mappingInstructions": "Maps directly to the SDTMIG variable listed in the SDTMIG Target column.", "name": "MBORRESU", "ordinal": "18", "prompt": "Unit", "questionText": "What was the unit of the result?", "simpleDatatype": "Char"}, {"_links": {"codelist": [{"href": "/mdr/root/ct/sdtmct/codelists/C66742", "title": "Version-agnostic anchor resource for codelist C66742", "type": "Root Value Domain"}], "parentProduct": {"href": "/mdr/cdashig/2-2", "title": "Clinical Data Acquisition Standards Harmonization Implementation Guide for Human Clinical Trials Version 2.2", "type": "Implementation Guide"}, "parentScenario": {"href": "/mdr/cdashig/2-2/scenarios/MB.LocalProcessing", "title": "Local Processing", "type": "CDASH Scenario"}, "priorVersion": {"href": "/mdr/cdashig/2-1/scenarios/MB.LocalProcessing/fields/MBCLSIG", "title": "MB Clinical Significance", "type": "Data Collection Field"}, "rootItem": {"href": "/mdr/root/cdashig/scenarios/MB.LocalProcessing/fields/MBCLSIG", "title": "Version-agnostic anchor element for scenario field Local Processing.MBCLSIG", "type": "Root Data Element"}, "sdtmigDatasetMappingTargets": [{"href": "/mdr/sdtmig/3-3/datasets/SUPPQUAL/variables/QVAL", "title": "Data Value", "type": "SDTM Dataset Variable"}], "self": {"href": "/mdr/cdashig/2-2/scenarios/MB.LocalProcessing/fields/MBCLSIG", "title": "MB Clinical Significance", "type": "Data Collection Field"}}, "completionInstructions": "Indicate whether the results were clinically significant.", "core": "O", "definition": "An indication of whether the test results were clinically significant.", "label": "MB Clinical Significance", "mappingInstructions": "This does not map directly to an SDTMIG variable. This information could be submitted in a SUPPMB dataset as the value of SUPPMB.QVAL where SUPPMB.QNAM = \"MBCLSIG\" and SUPPMB.QLABEL=\"Clinically Significant\". Refer to the current SDTM and SDTMIG for instructions on placement of non-standard variables in SDTM domains.", "name": "MBCLSIG", "ordinal": "19", "prompt": "Clinically Significant", "questionText": "Was the result clinically significant?", "simpleDatatype": "Char"}, {"_links": {"parentProduct": {"href": "/mdr/cdashig/2-2", "title": "Clinical Data Acquisition Standards Harmonization Implementation Guide for Human Clinical Trials Version 2.2", "type": "Implementation Guide"}, "parentScenario": {"href": "/mdr/cdashig/2-2/scenarios/MB.LocalProcessing", "title": "Local Processing", "type": "CDASH Scenario"}, "priorVersion": {"href": "/mdr/cdashig/2-1/scenarios/MB.LocalProcessing/fields/MBRESCAT", "title": "MB Result Category", "type": "Data Collection Field"}, "rootItem": {"href": "/mdr/root/cdashig/scenarios/MB.LocalProcessing/fields/MBRESCAT", "title": "Version-agnostic anchor element for scenario field Local Processing.MBRESCAT", "type": "Root Data Element"}, "sdtmigDatasetMappingTargets": [{"href": "/mdr/sdtmig/3-3/datasets/MB/variables/MBRESCAT", "title": "Result Category", "type": "SDTM Dataset Variable"}], "self": {"href": "/mdr/cdashig/2-2/scenarios/MB.LocalProcessing/fields/MBRESCAT", "title": "MB Result Category", "type": "Data Collection Field"}}, "completionInstructions": "Record the category of the test results.", "core": "O", "definition": "Used to categorize the result of a finding.", "implementationNotes": "Used to categorize the results of a finding (e.g., INFECTING, COLONIZER).", "label": "MB Result Category", "mappingInstructions": "Maps directly to the SDTMIG variable listed in the SDTMIG Target column.", "name": "MBRESCAT", "ordinal": "20", "prompt": "Result Category", "questionText": "What was the result category?", "simpleDatatype": "Char"}, {"_links": {"parentProduct": {"href": "/mdr/cdashig/2-2", "title": "Clinical Data Acquisition Standards Harmonization Implementation Guide for Human Clinical Trials Version 2.2", "type": "Implementation Guide"}, "parentScenario": {"href": "/mdr/cdashig/2-2/scenarios/MB.LocalProcessing", "title": "Local Processing", "type": "CDASH Scenario"}, "priorVersion": {"href": "/mdr/cdashig/2-1/scenarios/MB.LocalProcessing/fields/MBNAM", "title": "MB Vendor Name", "type": "Data Collection Field"}, "rootItem": {"href": "/mdr/root/cdashig/scenarios/MB.LocalProcessing/fields/MBNAM", "title": "Version-agnostic anchor element for scenario field Local Processing.MBNAM", "type": "Root Data Element"}, "sdtmigDatasetMappingTargets": [{"href": "/mdr/sdtmig/3-3/datasets/MB/variables/MBNAM", "title": "Laboratory/Vendor Name", "type": "SDTM Dataset Variable"}], "self": {"href": "/mdr/cdashig/2-2/scenarios/MB.LocalProcessing/fields/MBNAM", "title": "MB Vendor Name", "type": "Data Collection Field"}}, "completionInstructions": "Record the laboratory name.", "core": "O", "definition": "The name or identifier of the vendor (e.g., laboratory) that provided the test results.", "implementationNotes": "Recommended to collect on the CRF if the vendor name was not collected at the site/study level or if multiple vendors are used by a site.", "label": "MB Vendor Name", "mappingInstructions": "Maps directly to the SDTMIG variable listed in the SDTMIG Target column.", "name": "MBNAM", "ordinal": "21", "prompt": "Vendor Name", "questionText": "What was the name of the vendor used?", "simpleDatatype": "Char"}, {"_links": {"codelist": [{"href": "/mdr/root/ct/sdtmct/codelists/C78734", "title": "Version-agnostic anchor resource for codelist C78734", "type": "Root Value Domain"}], "parentProduct": {"href": "/mdr/cdashig/2-2", "title": "Clinical Data Acquisition Standards Harmonization Implementation Guide for Human Clinical Trials Version 2.2", "type": "Implementation Guide"}, "parentScenario": {"href": "/mdr/cdashig/2-2/scenarios/MB.LocalProcessing", "title": "Local Processing", "type": "CDASH Scenario"}, "priorVersion": {"href": "/mdr/cdashig/2-1/scenarios/MB.LocalProcessing/fields/MBSPEC", "title": "MB Specimen Type", "type": "Data Collection Field"}, "rootItem": {"href": "/mdr/root/cdashig/scenarios/MB.LocalProcessing/fields/MBSPEC", "title": "Version-agnostic anchor element for scenario field Local Processing.MBSPEC", "type": "Root Data Element"}, "sdtmigDatasetMappingTargets": [{"href": "/mdr/sdtmig/3-3/datasets/MB/variables/MBSPEC", "title": "Specimen Material Type", "type": "SDTM Dataset Variable"}], "self": {"href": "/mdr/cdashig/2-2/scenarios/MB.LocalProcessing/fields/MBSPEC", "title": "MB Specimen Type", "type": "Data Collection Field"}}, "completionInstructions": "Record the specimen material type.", "core": "O", "definition": "The type of specimen used for a measurement.", "implementationNotes": "The type of specimen used for a measure. Should be collected if not available elsewhere, or if required to differentiate multiple specimens.", "label": "MB Specimen Type", "mappingInstructions": "Maps directly to the SDTMIG variable listed in the SDTMIG Target column.", "name": "MBSPEC", "ordinal": "22", "prompt": "Specimen Type", "questionText": "What is the specimen material type?", "simpleDatatype": "Char"}, {"_links": {"codelist": [{"href": "/mdr/root/ct/sdtmct/codelists/C78733", "title": "Version-agnostic anchor resource for codelist C78733", "type": "Root Value Domain"}], "parentProduct": {"href": "/mdr/cdashig/2-2", "title": "Clinical Data Acquisition Standards Harmonization Implementation Guide for Human Clinical Trials Version 2.2", "type": "Implementation Guide"}, "parentScenario": {"href": "/mdr/cdashig/2-2/scenarios/MB.LocalProcessing", "title": "Local Processing", "type": "CDASH Scenario"}, "priorVersion": {"href": "/mdr/cdashig/2-1/scenarios/MB.LocalProcessing/fields/MBSPCCND", "title": "MB Specimen Condition", "type": "Data Collection Field"}, "rootItem": {"href": "/mdr/root/cdashig/scenarios/MB.LocalProcessing/fields/MBSPCCND", "title": "Version-agnostic anchor element for scenario field Local Processing.MBSPCCND", "type": "Root Data Element"}, "sdtmigDatasetMappingTargets": [{"href": "/mdr/sdtmig/3-3/datasets/MB/variables/MBSPCCND", "title": "Specimen Condition", "type": "SDTM Dataset Variable"}], "self": {"href": "/mdr/cdashig/2-2/scenarios/MB.LocalProcessing/fields/MBSPCCND", "title": "MB Specimen Condition", "type": "Data Collection Field"}}, "completionInstructions": "Record the condition of specimen.", "core": "O", "definition": "Describes the condition of the specimen.", "implementationNotes": "May be collected using free or standardized text. This can be used when results may be affected by whether conditions for specimen were properly met.", "label": "MB Specimen Condition", "mappingInstructions": "Maps directly to the SDTMIG variable listed in the SDTMIG Target column.", "name": "MBSPCCND", "ordinal": "23", "prompt": "Specimen Condition", "questionText": "What was the condition of the specimen?", "simpleDatatype": "Char"}, {"_links": {"codelist": [{"href": "/mdr/root/ct/sdtmct/codelists/C74456", "title": "Version-agnostic anchor resource for codelist C74456", "type": "Root Value Domain"}], "parentProduct": {"href": "/mdr/cdashig/2-2", "title": "Clinical Data Acquisition Standards Harmonization Implementation Guide for Human Clinical Trials Version 2.2", "type": "Implementation Guide"}, "parentScenario": {"href": "/mdr/cdashig/2-2/scenarios/MB.LocalProcessing", "title": "Local Processing", "type": "CDASH Scenario"}, "priorVersion": {"href": "/mdr/cdashig/2-1/scenarios/MB.LocalProcessing/fields/MBLOC", "title": "MB Specimen Collection Location", "type": "Data Collection Field"}, "rootItem": {"href": "/mdr/root/cdashig/scenarios/MB.LocalProcessing/fields/MBLOC", "title": "Version-agnostic anchor element for scenario field Local Processing.MBLOC", "type": "Root Data Element"}, "sdtmigDatasetMappingTargets": [{"href": "/mdr/sdtmig/3-3/datasets/MB/variables/MBLOC", "title": "Specimen Collection Location", "type": "SDTM Dataset Variable"}], "self": {"href": "/mdr/cdashig/2-2/scenarios/MB.LocalProcessing/fields/MBLOC", "title": "MB Specimen Collection Location", "type": "Data Collection Field"}}, "completionInstructions": "Record or select the anatomical location of specimen collection.", "core": "O", "definition": "A description of the anatomical location, relevant to the collection of specimen.", "implementationNotes": "Collected or pre-printed when the sponsor needs to identify the specific anatomical location. Sponsors may collect the data using a subset list of controlled terminology on the CRF. LAT, DIR, and PORTOT are used to further describe the anatomical location.", "label": "MB Specimen Collection Location", "mappingInstructions": "Maps directly to the SDTMIG variable listed in the SDTMIG Target column.", "name": "MBLOC", "ordinal": "24", "prompt": "Anatomical Location", "questionText": "What was the anatomical location where the specimen was collected?", "simpleDatatype": "Char"}, {"_links": {"codelist": [{"href": "/mdr/root/ct/sdtmct/codelists/C99073", "title": "Version-agnostic anchor resource for codelist C99073", "type": "Root Value Domain"}], "parentProduct": {"href": "/mdr/cdashig/2-2", "title": "Clinical Data Acquisition Standards Harmonization Implementation Guide for Human Clinical Trials Version 2.2", "type": "Implementation Guide"}, "parentScenario": {"href": "/mdr/cdashig/2-2/scenarios/MB.LocalProcessing", "title": "Local Processing", "type": "CDASH Scenario"}, "priorVersion": {"href": "/mdr/cdashig/2-1/scenarios/MB.LocalProcessing/fields/MBLAT", "title": "MB Specimen Collection Laterality", "type": "Data Collection Field"}, "rootItem": {"href": "/mdr/root/cdashig/scenarios/MB.LocalProcessing/fields/MBLAT", "title": "Version-agnostic anchor element for scenario field Local Processing.MBLAT", "type": "Root Data Element"}, "sdtmigDatasetMappingTargets": [{"href": "/mdr/sdtmig/3-3/datasets/MB/variables/MBLAT", "title": "Laterality", "type": "SDTM Dataset Variable"}], "self": {"href": "/mdr/cdashig/2-2/scenarios/MB.LocalProcessing/fields/MBLAT", "title": "MB Specimen Collection Laterality", "type": "Data Collection Field"}}, "completionInstructions": "Record the side of the anatomical location of the specimen collection.", "core": "O", "definition": "Qualifier for anatomical location, further detailing the side of the body.", "implementationNotes": "May be pre-printed or collected when the sponsor needs to identify the specific side of the anatomical location. Sponsors may collect the data using a subset list of controlled terminology on the CRF.", "label": "MB Specimen Collection Laterality", "mappingInstructions": "Maps directly to the SDTMIG variable listed in the SDTMIG Target column.", "name": "MBLAT", "ordinal": "25", "prompt": "Side", "questionText": "What was the side of the anatomical location of the specimen collection?", "simpleDatatype": "Char"}, {"_links": {"codelist": [{"href": "/mdr/root/ct/sdtmct/codelists/C99074", "title": "Version-agnostic anchor resource for codelist C99074", "type": "Root Value Domain"}], "parentProduct": {"href": "/mdr/cdashig/2-2", "title": "Clinical Data Acquisition Standards Harmonization Implementation Guide for Human Clinical Trials Version 2.2", "type": "Implementation Guide"}, "parentScenario": {"href": "/mdr/cdashig/2-2/scenarios/MB.LocalProcessing", "title": "Local Processing", "type": "CDASH Scenario"}, "priorVersion": {"href": "/mdr/cdashig/2-1/scenarios/MB.LocalProcessing/fields/MBDIR", "title": "MB Specimen Collection Directionality", "type": "Data Collection Field"}, "rootItem": {"href": "/mdr/root/cdashig/scenarios/MB.LocalProcessing/fields/MBDIR", "title": "Version-agnostic anchor element for scenario field Local Processing.MBDIR", "type": "Root Data Element"}, "sdtmigDatasetMappingTargets": [{"href": "/mdr/sdtmig/3-3/datasets/MB/variables/MBDIR", "title": "Directionality", "type": "SDTM Dataset Variable"}], "self": {"href": "/mdr/cdashig/2-2/scenarios/MB.LocalProcessing/fields/MBDIR", "title": "MB Specimen Collection Directionality", "type": "Data Collection Field"}}, "completionInstructions": "Record the directionality of the anatomical location of the specimen collection.", "core": "O", "definition": "Qualifier further detailing the position of the anatomical location, relative to the center of the body, organ, or specimen.", "implementationNotes": "May be pre-printed or collected when the sponsor needs to identify the directionality of the anatomical location. Sponsors may collect the data using a subset list of controlled terminology on the CRF.", "label": "MB Specimen Collection Directionality", "mappingInstructions": "Maps directly to the SDTMIG variable listed in the SDTMIG Target column.", "name": "MBDIR", "ordinal": "26", "prompt": "Directionality", "questionText": "What was the directionality of the anatomical location of the specimen collection?", "simpleDatatype": "Char"}, {"_links": {"codelist": [{"href": "/mdr/root/ct/sdtmct/codelists/C85492", "title": "Version-agnostic anchor resource for codelist C85492", "type": "Root Value Domain"}], "parentProduct": {"href": "/mdr/cdashig/2-2", "title": "Clinical Data Acquisition Standards Harmonization Implementation Guide for Human Clinical Trials Version 2.2", "type": "Implementation Guide"}, "parentScenario": {"href": "/mdr/cdashig/2-2/scenarios/MB.LocalProcessing", "title": "Local Processing", "type": "CDASH Scenario"}, "priorVersion": {"href": "/mdr/cdashig/2-1/scenarios/MB.LocalProcessing/fields/MBMETHOD", "title": "MB Method of Test or Examination", "type": "Data Collection Field"}, "rootItem": {"href": "/mdr/root/cdashig/scenarios/MB.LocalProcessing/fields/MBMETHOD", "title": "Version-agnostic anchor element for scenario field Local Processing.MBMETHOD", "type": "Root Data Element"}, "sdtmigDatasetMappingTargets": [{"href": "/mdr/sdtmig/3-3/datasets/MB/variables/MBMETHOD", "title": "Method of Test or Examination", "type": "SDTM Dataset Variable"}], "self": {"href": "/mdr/cdashig/2-2/scenarios/MB.LocalProcessing/fields/MBMETHOD", "title": "MB Method of Test or Examination", "type": "Data Collection Field"}}, "completionInstructions": "Record the method of test or examination.", "core": "O", "definition": "Method of the test or examination.", "implementationNotes": "This information may be collected when more than 1 method is possible, and collecting the method used is necessary. This could include technique or type of staining used for the slides.", "label": "MB Method of Test or Examination", "mappingInstructions": "Maps directly to the SDTMIG variable listed in the SDTMIG Target column.", "name": "MBMETHOD", "ordinal": "27", "prompt": "Method", "questionText": "What was the method used for the test or examination?", "simpleDatatype": "Char"}, {"_links": {"codelist": [{"href": "/mdr/root/ct/sdtmct/codelists/C78735", "title": "Version-agnostic anchor resource for codelist C78735", "type": "Root Value Domain"}], "parentProduct": {"href": "/mdr/cdashig/2-2", "title": "Clinical Data Acquisition Standards Harmonization Implementation Guide for Human Clinical Trials Version 2.2", "type": "Implementation Guide"}, "parentScenario": {"href": "/mdr/cdashig/2-2/scenarios/MB.LocalProcessing", "title": "Local Processing", "type": "CDASH Scenario"}, "priorVersion": {"href": "/mdr/cdashig/2-1/scenarios/MB.LocalProcessing/fields/MBEVAL", "title": "MB Evaluator", "type": "Data Collection Field"}, "rootItem": {"href": "/mdr/root/cdashig/scenarios/MB.LocalProcessing/fields/MBEVAL", "title": "Version-agnostic anchor element for scenario field Local Processing.MBEVAL", "type": "Root Data Element"}, "self": {"href": "/mdr/cdashig/2-2/scenarios/MB.LocalProcessing/fields/MBEVAL", "title": "MB Evaluator", "type": "Data Collection Field"}}, "completionInstructions": "Select the role of the person who provided the evaluation (e.g., INVESTIGATOR, ADJUDICATION COMMITTEE, VENDOR).", "core": "O", "definition": "The role of the person who provided the evaluation.", "implementationNotes": "Used only for results that are subjective (e.g., assigned by a person or a group). May be a pre-printed or collected. Sponsors may collect the data using a subset list of controlled terminology on the CRF.", "label": "MB Evaluator", "mappingInstructions": "Maps directly to the SDTMIG variable listed in the SDTMIG Target column.", "name": "MBEVAL", "ordinal": "28", "prompt": "[Evaluator/Reporter]", "questionText": "Who was the evaluator?", "simpleDatatype": "Char"}], "ordinal": "2", "scenario": "Local Processing"}
