{"_links": {"parentClass": {"href": "/mdr/cdashig/2-2/classes/Findings", "title": "Findings", "type": "Class"}, "parentDomain": {"href": "/mdr/cdashig/2-2/domains/MS", "title": "Microbiology Susceptibility", "type": "CDASH Domain"}, "parentProduct": {"href": "/mdr/cdashig/2-2", "title": "Clinical Data Acquisition Standards Harmonization Implementation Guide for Human Clinical Trials Version 2.2", "type": "Implementation Guide"}, "priorVersion": {"href": "/mdr/cdashig/2-1/scenarios/MS.CentralProcessing", "title": "Central Processing", "type": "CDASH Scenario"}, "self": {"href": "/mdr/cdashig/2-2/scenarios/MS.CentralProcessing", "title": "Central Processing", "type": "CDASH Scenario"}}, "domain": "Microbiology Susceptibility Test", "domainName": "MS", "fields": [{"_links": {"parentProduct": {"href": "/mdr/cdashig/2-2", "title": "Clinical Data Acquisition Standards Harmonization Implementation Guide for Human Clinical Trials Version 2.2", "type": "Implementation Guide"}, "parentScenario": {"href": "/mdr/cdashig/2-2/scenarios/MS.CentralProcessing", "title": "Central Processing", "type": "CDASH Scenario"}, "priorVersion": {"href": "/mdr/cdashig/2-1/scenarios/MS.CentralProcessing/fields/STUDYID", "title": "Study Identifier", "type": "Data Collection Field"}, "rootItem": {"href": "/mdr/root/cdashig/scenarios/MS.CentralProcessing/fields/STUDYID", "title": "Version-agnostic anchor element for scenario field Central Processing.STUDYID", "type": "Root Data Element"}, "sdtmigDatasetMappingTargets": [{"href": "/mdr/sdtmig/3-3/datasets/MS/variables/STUDYID", "title": "Study Identifier", "type": "SDTM Dataset Variable"}], "self": {"href": "/mdr/cdashig/2-2/scenarios/MS.CentralProcessing/fields/STUDYID", "title": "Study Identifier", "type": "Data Collection Field"}}, "core": "HR", "definition": "A unique identifier for a study.", "implementationNotes": "Although this field is not typically captured on a CRF, it should be displayed clearly on the CRF and/or in the EDC system. This field can be included in the database or populated during SDTM-based dataset creation before submission.", "label": "Study Identifier", "mappingInstructions": "Maps directly to the SDTMIG variable listed in the SDTMIG Target column.", "name": "STUDYID", "ordinal": "1", "prompt": "[Protocol/Study]", "questionText": "What is the study identifier?", "simpleDatatype": "Char"}, {"_links": {"parentProduct": {"href": "/mdr/cdashig/2-2", "title": "Clinical Data Acquisition Standards Harmonization Implementation Guide for Human Clinical Trials Version 2.2", "type": "Implementation Guide"}, "parentScenario": {"href": "/mdr/cdashig/2-2/scenarios/MS.CentralProcessing", "title": "Central Processing", "type": "CDASH Scenario"}, "priorVersion": {"href": "/mdr/cdashig/2-1/scenarios/MS.CentralProcessing/fields/SITEID", "title": "Study Site Identifier", "type": "Data Collection Field"}, "rootItem": {"href": "/mdr/root/cdashig/scenarios/MS.CentralProcessing/fields/SITEID", "title": "Version-agnostic anchor element for scenario field Central Processing.SITEID", "type": "Root Data Element"}, "sdtmigDatasetMappingTargets": [{"href": "/mdr/sdtmig/3-3/datasets/DM/variables/SITEID", "title": "Study Site Identifier", "type": "SDTM Dataset Variable"}], "self": {"href": "/mdr/cdashig/2-2/scenarios/MS.CentralProcessing/fields/SITEID", "title": "Study Site Identifier", "type": "Data Collection Field"}}, "core": "HR", "definition": "A unique identifier for a site within a study.", "implementationNotes": "Paper: This is typically pre-printed in the header of each CRF page for single-site studies. For studies with multiple sites, this field may be left blank so that the number can be recorded by the site, or it may be pre-printed on the CRFs that are shipped to each site. \\n EDC: This should be pre-populated.", "label": "Study Site Identifier", "mappingInstructions": "Maps directly to the SDTMIG variable listed in the SDTMIG Target column.", "name": "SITEID", "ordinal": "2", "prompt": "Site (Identifier)", "questionText": "What is the site identifier?", "simpleDatatype": "Char"}, {"_links": {"parentProduct": {"href": "/mdr/cdashig/2-2", "title": "Clinical Data Acquisition Standards Harmonization Implementation Guide for Human Clinical Trials Version 2.2", "type": "Implementation Guide"}, "parentScenario": {"href": "/mdr/cdashig/2-2/scenarios/MS.CentralProcessing", "title": "Central Processing", "type": "CDASH Scenario"}, "priorVersion": {"href": "/mdr/cdashig/2-1/scenarios/MS.CentralProcessing/fields/SUBJID", "title": "Subject Identifier for the Study", "type": "Data Collection Field"}, "rootItem": {"href": "/mdr/root/cdashig/scenarios/MS.CentralProcessing/fields/SUBJID", "title": "Version-agnostic anchor element for scenario field Central Processing.SUBJID", "type": "Root Data Element"}, "sdtmigDatasetMappingTargets": [{"href": "/mdr/sdtmig/3-3/datasets/DM/variables/SUBJID", "title": "Subject Identifier for the Study", "type": "SDTM Dataset Variable"}], "self": {"href": "/mdr/cdashig/2-2/scenarios/MS.CentralProcessing/fields/SUBJID", "title": "Subject Identifier for the Study", "type": "Data Collection Field"}}, "completionInstructions": "Record the identifier for the subject.", "core": "HR", "definition": "A unique subject identifier within a site and a study.", "implementationNotes": "Paper: This is typically recorded in the header of each CRF page. EDC: The subject identifiers may be system-generated. This CDASH variable is typically collected in all CDASH domains. However, this CDASH variable is populated only in the SDTMIG DM domain. For more information, refer to the SDTMIG.", "label": "Subject Identifier for the Study", "mappingInstructions": "Maps directly to the SDTMIG variable listed in the SDTMIG Target column.", "name": "SUBJID", "ordinal": "3", "prompt": "[Subject/Participant] (Identifier)", "questionText": "What [is/was] the (study) [subject/participant] identifier?", "simpleDatatype": "Char"}, {"_links": {"parentProduct": {"href": "/mdr/cdashig/2-2", "title": "Clinical Data Acquisition Standards Harmonization Implementation Guide for Human Clinical Trials Version 2.2", "type": "Implementation Guide"}, "parentScenario": {"href": "/mdr/cdashig/2-2/scenarios/MS.CentralProcessing", "title": "Central Processing", "type": "CDASH Scenario"}, "priorVersion": {"href": "/mdr/cdashig/2-1/scenarios/MS.CentralProcessing/fields/VISIT", "title": "Visit Name", "type": "Data Collection Field"}, "rootItem": {"href": "/mdr/root/cdashig/scenarios/MS.CentralProcessing/fields/VISIT", "title": "Version-agnostic anchor element for scenario field Central Processing.VISIT", "type": "Root Data Element"}, "sdtmigDatasetMappingTargets": [{"href": "/mdr/sdtmig/3-3/datasets/MS/variables/VISIT", "title": "Visit Name", "type": "SDTM Dataset Variable"}], "self": {"href": "/mdr/cdashig/2-2/scenarios/MS.CentralProcessing/fields/VISIT", "title": "Visit Name", "type": "Data Collection Field"}}, "core": "R/C", "definition": "The name of a clinical encounter that encompasses planned and unplanned trial interventions, procedures, and assessments that may be performed on a subject.", "implementationNotes": "The name of the clinical encounter is typically pre-printed on the CRF or displayed within the EDC for any visit-based data collection, most often in Findings domains. This Visit text description is then available in any EDC data extract for that Findings domain.", "label": "Visit Name", "mappingInstructions": "Maps directly to the SDTMIG variable listed in the SDTMIG Target column.", "name": "VISIT", "ordinal": "4", "prompt": "[Visit]", "questionText": "What is the visit name?", "simpleDatatype": "Char"}, {"_links": {"parentProduct": {"href": "/mdr/cdashig/2-2", "title": "Clinical Data Acquisition Standards Harmonization Implementation Guide for Human Clinical Trials Version 2.2", "type": "Implementation Guide"}, "parentScenario": {"href": "/mdr/cdashig/2-2/scenarios/MS.CentralProcessing", "title": "Central Processing", "type": "CDASH Scenario"}, "priorVersion": {"href": "/mdr/cdashig/2-1/scenarios/MS.CentralProcessing/fields/VISDAT", "title": "Visit Date", "type": "Data Collection Field"}, "rootItem": {"href": "/mdr/root/cdashig/scenarios/MS.CentralProcessing/fields/VISDAT", "title": "Version-agnostic anchor element for scenario field Central Processing.VISDAT", "type": "Root Data Element"}, "self": {"href": "/mdr/cdashig/2-2/scenarios/MS.CentralProcessing/fields/VISDAT", "title": "Visit Date", "type": "Data Collection Field"}}, "completionInstructions": "Record the [date/start date] of the visit using this format (DD-MON-YYYY).", "core": "R/C", "definition": "Date the clinical encounter occurred (or started).", "implementationNotes": "The date the microbiology specimens were collected can be determined from the visit date variable (VISDAT) and applying that date to all of the microbiology susceptibility findings at that visit, or the specimen collection date can be included on the MS CRF using the date (MSDAT) field.", "label": "Visit Date", "mappingInstructions": "This field is not an SDTM variable. The date of a measurement, test, observation or specimen collection can be determined from the date/time of visit (VISDAT/VISTIM) and then concatenating the CDASH VISDAT/VISTIM components and populating the SDTMIG variable MIDTC in ISO 8601 format.", "name": "VISDAT", "ordinal": "5", "prompt": "(Visit) Date", "questionText": "What [is/was] the date of the visit?", "simpleDatatype": "Char"}, {"_links": {"codelist": [{"href": "/mdr/root/ct/sdtmct/codelists/C66742", "title": "Version-agnostic anchor resource for codelist C66742", "type": "Root Value Domain"}], "parentProduct": {"href": "/mdr/cdashig/2-2", "title": "Clinical Data Acquisition Standards Harmonization Implementation Guide for Human Clinical Trials Version 2.2", "type": "Implementation Guide"}, "parentScenario": {"href": "/mdr/cdashig/2-2/scenarios/MS.CentralProcessing", "title": "Central Processing", "type": "CDASH Scenario"}, "priorVersion": {"href": "/mdr/cdashig/2-1/scenarios/MS.CentralProcessing/fields/MSPERF", "title": "MS Test Performed", "type": "Data Collection Field"}, "rootItem": {"href": "/mdr/root/cdashig/scenarios/MS.CentralProcessing/fields/MSPERF", "title": "Version-agnostic anchor element for scenario field Central Processing.MSPERF", "type": "Root Data Element"}, "sdtmigDatasetMappingTargets": [{"href": "/mdr/sdtmig/3-3/datasets/MS/variables/MSSTAT", "title": "Completion Status", "type": "SDTM Dataset Variable"}], "self": {"href": "/mdr/cdashig/2-2/scenarios/MS.CentralProcessing/fields/MSPERF", "title": "MS Test Performed", "type": "Data Collection Field"}}, "completionInstructions": "Indicate whether or not a microbiology susceptibility test was performed.", "core": "O", "definition": "An indication of whether a planned measurement, series of measurements, tests or observations was performed.", "implementationNotes": "This may be implemented for an entire panel. General prompt question to be used as a data management tool to verify that missing results are confirmed missing. For the SDTM submission dataset, the SDTMIG variable MSSTAT is populated using the CDASH field MSPERF. The question text used might be reflected in the reason not done (MSREASND).", "label": "MS Test Performed", "mappingInstructions": "This does not map directly to an SDTMIG variable. May be used to derive a value into the SDTM variable MSSTAT. If MSPERF=\"N\", the value of MSSTAT will be \"NOT DONE\". If MSPERF=\"Y\", MSSTAT should be null. A combination of SDTMIG variables (e.g., MSCAT and MSSCAT, MSTPT ) is used to indicate that multiple tests were not done. In this situation, the SDTMIG variable MSTESTCD would be populated as MSALL and an appropriate test name (MSTEST) provided. See SDTMIG for additional information.", "name": "MSPERF", "ordinal": "6", "prompt": "Microbiology Susceptibility Performed", "questionText": "Was the Microbiology Susceptibility test performed?", "simpleDatatype": "Char"}, {"_links": {"parentProduct": {"href": "/mdr/cdashig/2-2", "title": "Clinical Data Acquisition Standards Harmonization Implementation Guide for Human Clinical Trials Version 2.2", "type": "Implementation Guide"}, "parentScenario": {"href": "/mdr/cdashig/2-2/scenarios/MS.CentralProcessing", "title": "Central Processing", "type": "CDASH Scenario"}, "priorVersion": {"href": "/mdr/cdashig/2-1/scenarios/MS.CentralProcessing/fields/MSREFID", "title": "MS Reference ID", "type": "Data Collection Field"}, "rootItem": {"href": "/mdr/root/cdashig/scenarios/MS.CentralProcessing/fields/MSREFID", "title": "Version-agnostic anchor element for scenario field Central Processing.MSREFID", "type": "Root Data Element"}, "sdtmigDatasetMappingTargets": [{"href": "/mdr/sdtmig/3-3/datasets/MS/variables/MSREFID", "title": "Reference ID", "type": "SDTM Dataset Variable"}], "self": {"href": "/mdr/cdashig/2-2/scenarios/MS.CentralProcessing/fields/MSREFID", "title": "MS Reference ID", "type": "Data Collection Field"}}, "completionInstructions": "Record the specimen [accession/reference] number assigned.", "core": "O", "definition": "An internal or external identifier, such as specimen identifier.", "implementationNotes": "This can be used to confirm that the appropriate data record is present in the electronic transfer. May be included for linking back to specimens (e.g., Specimen ID).", "label": "MS Reference ID", "mappingInstructions": "Maps directly to the SDTMIG variable listed in the SDTMIG Target column. May be used to create RELREC to link this record with a record in another domain.", "name": "MSREFID", "ordinal": "7", "prompt": "(Microbiology Susceptibility Test) [Reference Identifier/Accession Number]", "questionText": "What was the (microbiology susceptibility test) [reference identifier/accession number]?", "simpleDatatype": "Char"}, {"_links": {"parentProduct": {"href": "/mdr/cdashig/2-2", "title": "Clinical Data Acquisition Standards Harmonization Implementation Guide for Human Clinical Trials Version 2.2", "type": "Implementation Guide"}, "parentScenario": {"href": "/mdr/cdashig/2-2/scenarios/MS.CentralProcessing", "title": "Central Processing", "type": "CDASH Scenario"}, "priorVersion": {"href": "/mdr/cdashig/2-1/scenarios/MS.CentralProcessing/fields/MSDAT", "title": "MS Specimen Collection Date", "type": "Data Collection Field"}, "rootItem": {"href": "/mdr/root/cdashig/scenarios/MS.CentralProcessing/fields/MSDAT", "title": "Version-agnostic anchor element for scenario field Central Processing.MSDAT", "type": "Root Data Element"}, "sdtmigDatasetMappingTargets": [{"href": "/mdr/sdtmig/3-3/datasets/MS/variables/MSDTC", "title": "Date/Time of Collection", "type": "SDTM Dataset Variable"}], "self": {"href": "/mdr/cdashig/2-2/scenarios/MS.CentralProcessing/fields/MSDAT", "title": "MS Specimen Collection Date", "type": "Data Collection Field"}}, "completionInstructions": "Record the (start) date when specimen collection occurred using this format (DD-MON-YYYY).", "core": "R/C", "definition": "The date of specimen collection, represented in an unambiguous date format (e.g., DD-MON-YYYY).", "implementationNotes": "A complete date is expected. The date of specimen collection may be determined from the date of visit (VISDAT) and if so, a separate assessment date field is not required, The SDTMIG MSDTC variable contains either a date/time when a specimen is collected at a point in time or the start date/time, when a specimen is collected over time.", "label": "MS Specimen Collection Date", "mappingInstructions": "This does not map directly to an SDTMIG variable. For the SDTM submission dataset, concatenate all collected CDASH DATE and TIME components and populate the SDTMIG variable MSDTC in ISO 8601 format.", "name": "MSDAT", "ordinal": "8", "prompt": "Specimen Collection (Start) Date", "questionText": "What was the (start) date of the (microbiology) specimen collection?", "simpleDatatype": "Char"}, {"_links": {"parentProduct": {"href": "/mdr/cdashig/2-2", "title": "Clinical Data Acquisition Standards Harmonization Implementation Guide for Human Clinical Trials Version 2.2", "type": "Implementation Guide"}, "parentScenario": {"href": "/mdr/cdashig/2-2/scenarios/MS.CentralProcessing", "title": "Central Processing", "type": "CDASH Scenario"}, "priorVersion": {"href": "/mdr/cdashig/2-1/scenarios/MS.CentralProcessing/fields/MSTIM", "title": "MS Specimen Collection Time", "type": "Data Collection Field"}, "rootItem": {"href": "/mdr/root/cdashig/scenarios/MS.CentralProcessing/fields/MSTIM", "title": "Version-agnostic anchor element for scenario field Central Processing.MSTIM", "type": "Root Data Element"}, "sdtmigDatasetMappingTargets": [{"href": "/mdr/sdtmig/3-3/datasets/MS/variables/MSDTC", "title": "Date/Time of Collection", "type": "SDTM Dataset Variable"}], "self": {"href": "/mdr/cdashig/2-2/scenarios/MS.CentralProcessing/fields/MSTIM", "title": "MS Specimen Collection Time", "type": "Data Collection Field"}}, "completionInstructions": "Record the (start) time of susceptibility test (as complete as possible).", "core": "R/C", "definition": "The time of specimen collection, represented in an unambiguous time format (e.g., hh:mm:ss).", "implementationNotes": "May be required when multiple assessments are done on 1 day or when the timing in relationship to study treatment is required for analysis.", "label": "MS Specimen Collection Time", "mappingInstructions": "This does not map directly to an SDTMIG variable. For the SDTM submission dataset, concatenate all collected CDASH DATE and TIME components and populate the SDTMIG variable MSDTC in ISO 8601 format.", "name": "MSTIM", "ordinal": "9", "prompt": "Specimen Collection (Start) Time", "questionText": "What was the (start) time of the (microbiology) specimen collection?", "simpleDatatype": "Char"}, {"_links": {"parentProduct": {"href": "/mdr/cdashig/2-2", "title": "Clinical Data Acquisition Standards Harmonization Implementation Guide for Human Clinical Trials Version 2.2", "type": "Implementation Guide"}, "parentScenario": {"href": "/mdr/cdashig/2-2/scenarios/MS.CentralProcessing", "title": "Central Processing", "type": "CDASH Scenario"}, "priorVersion": {"href": "/mdr/cdashig/2-1/scenarios/MS.CentralProcessing/fields/MSCAT", "title": "MS Category for Organism Findings", "type": "Data Collection Field"}, "rootItem": {"href": "/mdr/root/cdashig/scenarios/MS.CentralProcessing/fields/MSCAT", "title": "Version-agnostic anchor element for scenario field Central Processing.MSCAT", "type": "Root Data Element"}, "sdtmigDatasetMappingTargets": [{"href": "/mdr/sdtmig/3-3/datasets/MS/variables/MSCAT", "title": "Category", "type": "SDTM Dataset Variable"}], "self": {"href": "/mdr/cdashig/2-2/scenarios/MS.CentralProcessing/fields/MSCAT", "title": "MS Category for Organism Findings", "type": "Data Collection Field"}}, "completionInstructions": "Select the microbiology susceptibility category, or record if not pre-printed on the CRF.", "core": "O", "definition": "A grouping of topic-variable values based on user-defined characteristics.", "implementationNotes": "Sponsor-defined controlled terminology. This would most commonly be either a heading or a pre-printed category value on the CRF, and not a question to which the site would provide an answer. If a question is asked, the response would typically be a sponsor-defined codelist. If the form is laid out as a grid, then words such as \"Category\" can be included as the column header.", "label": "MS Category for Organism Findings", "mappingInstructions": "Maps directly to the SDTMIG variable listed in the SDTMIG Target column.", "name": "MSCAT", "ordinal": "10", "prompt": "[Microbiology Susceptibility Category]; NULL", "questionText": "What was the category of the microbiology susceptibility test?", "simpleDatatype": "Char"}, {"_links": {"parentProduct": {"href": "/mdr/cdashig/2-2", "title": "Clinical Data Acquisition Standards Harmonization Implementation Guide for Human Clinical Trials Version 2.2", "type": "Implementation Guide"}, "parentScenario": {"href": "/mdr/cdashig/2-2/scenarios/MS.CentralProcessing", "title": "Central Processing", "type": "CDASH Scenario"}, "priorVersion": {"href": "/mdr/cdashig/2-1/scenarios/MS.CentralProcessing/fields/MSSCAT", "title": "MS Subcategory for Organism Findings", "type": "Data Collection Field"}, "rootItem": {"href": "/mdr/root/cdashig/scenarios/MS.CentralProcessing/fields/MSSCAT", "title": "Version-agnostic anchor element for scenario field Central Processing.MSSCAT", "type": "Root Data Element"}, "sdtmigDatasetMappingTargets": [{"href": "/mdr/sdtmig/3-3/datasets/MS/variables/MSSCAT", "title": "Subcategory", "type": "SDTM Dataset Variable"}], "self": {"href": "/mdr/cdashig/2-2/scenarios/MS.CentralProcessing/fields/MSSCAT", "title": "MS Subcategory for Organism Findings", "type": "Data Collection Field"}}, "completionInstructions": "Select the microbiology susceptibility subcategory, or record if not pre-pre-printed on the CRF.", "core": "O", "definition": "A sub-division of the MSCAT values based on user-defined characteristics.", "implementationNotes": "Sponsor-defined controlled terminology. This would most commonly be either a heading or a pre-printed category value on the CRF, and not a question to which the site would provide an answer. If a question is asked, the response would typically be a sponsor-defined codelist. If the form is laid out as a grid, then words such as \"Subcategory\" can be included as the column header. MSSCAT can only be used if there is an MSCAT, and it must be a subcategorization of MSCAT.", "label": "MS Subcategory for Organism Findings", "mappingInstructions": "Maps directly to the SDTMIG variable listed in the SDTMIG Target column.", "name": "MSSCAT", "ordinal": "11", "prompt": "[Microbiology Susceptibility Subcategory]; NULL", "questionText": "What was the subcategory of the microbiology susceptibility finding?", "simpleDatatype": "Char"}, {"_links": {"codelist": [{"href": "/mdr/root/ct/sdtmct/codelists/C78734", "title": "Version-agnostic anchor resource for codelist C78734", "type": "Root Value Domain"}], "parentProduct": {"href": "/mdr/cdashig/2-2", "title": "Clinical Data Acquisition Standards Harmonization Implementation Guide for Human Clinical Trials Version 2.2", "type": "Implementation Guide"}, "parentScenario": {"href": "/mdr/cdashig/2-2/scenarios/MS.CentralProcessing", "title": "Central Processing", "type": "CDASH Scenario"}, "priorVersion": {"href": "/mdr/cdashig/2-1/scenarios/MS.CentralProcessing/fields/MSSPEC", "title": "MS Specimen Type", "type": "Data Collection Field"}, "rootItem": {"href": "/mdr/root/cdashig/scenarios/MS.CentralProcessing/fields/MSSPEC", "title": "Version-agnostic anchor element for scenario field Central Processing.MSSPEC", "type": "Root Data Element"}, "sdtmigDatasetMappingTargets": [{"href": "/mdr/sdtmig/3-3/datasets/MS/variables/MSSPEC", "title": "Specimen Material Type", "type": "SDTM Dataset Variable"}], "self": {"href": "/mdr/cdashig/2-2/scenarios/MS.CentralProcessing/fields/MSSPEC", "title": "MS Specimen Type", "type": "Data Collection Field"}}, "completionInstructions": "Record the specimen material type.", "core": "R/C", "definition": "Defines the type of specimen used for a measurement.", "implementationNotes": "The type of specimen used for a measure. Should be collected if not available elsewhere, or if required to differentiate multiple specimens.", "label": "MS Specimen Type", "mappingInstructions": "Maps directly to the SDTMIG variable listed in the SDTMIG Target column.", "name": "MSSPEC", "ordinal": "12", "prompt": "Specimen Type", "questionText": "What is the specimen material type?", "simpleDatatype": "Char"}, {"_links": {"codelist": [{"href": "/mdr/root/ct/sdtmct/codelists/C78733", "title": "Version-agnostic anchor resource for codelist C78733", "type": "Root Value Domain"}], "parentProduct": {"href": "/mdr/cdashig/2-2", "title": "Clinical Data Acquisition Standards Harmonization Implementation Guide for Human Clinical Trials Version 2.2", "type": "Implementation Guide"}, "parentScenario": {"href": "/mdr/cdashig/2-2/scenarios/MS.CentralProcessing", "title": "Central Processing", "type": "CDASH Scenario"}, "priorVersion": {"href": "/mdr/cdashig/2-1/scenarios/MS.CentralProcessing/fields/MSSPCCND", "title": "MS Specimen Condition", "type": "Data Collection Field"}, "rootItem": {"href": "/mdr/root/cdashig/scenarios/MS.CentralProcessing/fields/MSSPCCND", "title": "Version-agnostic anchor element for scenario field Central Processing.MSSPCCND", "type": "Root Data Element"}, "sdtmigDatasetMappingTargets": [{"href": "/mdr/sdtmig/3-3/datasets/MS/variables/MSSPCCND", "title": "Specimen Condition", "type": "SDTM Dataset Variable"}], "self": {"href": "/mdr/cdashig/2-2/scenarios/MS.CentralProcessing/fields/MSSPCCND", "title": "MS Specimen Condition", "type": "Data Collection Field"}}, "completionInstructions": "Record the condition of the specimen.", "core": "R/C", "definition": "Description of the condition of the specimen.", "implementationNotes": "May be collected using free or standardized text. This can be used when results may be affected by whether conditions for specimen were properly met.", "label": "MS Specimen Condition", "mappingInstructions": "Maps directly to the SDTMIG variable listed in the SDTMIG Target column.", "name": "MSSPCCND", "ordinal": "13", "prompt": "Specimen Condition", "questionText": "What was the condition of the specimen?", "simpleDatatype": "Char"}, {"_links": {"codelist": [{"href": "/mdr/root/ct/sdtmct/codelists/C74456", "title": "Version-agnostic anchor resource for codelist C74456", "type": "Root Value Domain"}], "parentProduct": {"href": "/mdr/cdashig/2-2", "title": "Clinical Data Acquisition Standards Harmonization Implementation Guide for Human Clinical Trials Version 2.2", "type": "Implementation Guide"}, "parentScenario": {"href": "/mdr/cdashig/2-2/scenarios/MS.CentralProcessing", "title": "Central Processing", "type": "CDASH Scenario"}, "priorVersion": {"href": "/mdr/cdashig/2-1/scenarios/MS.CentralProcessing/fields/MSLOC", "title": "MS Specimen Collection Location", "type": "Data Collection Field"}, "rootItem": {"href": "/mdr/root/cdashig/scenarios/MS.CentralProcessing/fields/MSLOC", "title": "Version-agnostic anchor element for scenario field Central Processing.MSLOC", "type": "Root Data Element"}, "sdtmigDatasetMappingTargets": [{"href": "/mdr/sdtmig/3-3/datasets/MS/variables/MSLOC", "title": "Location Used for the Measurement", "type": "SDTM Dataset Variable"}], "self": {"href": "/mdr/cdashig/2-2/scenarios/MS.CentralProcessing/fields/MSLOC", "title": "MS Specimen Collection Location", "type": "Data Collection Field"}}, "completionInstructions": "Record or select the anatomical location of specimen collection.", "core": "O", "definition": "A description of the anatomical location of the subject relevant to the collection of specimen.", "implementationNotes": "Collected or pre-printed when the sponsor needs to identify the specific anatomical location. Sponsors may collect the data using a subset list of controlled terminology on the CRF. LAT, DIR, and PORTOT are used to further describe the anatomical location.", "label": "MS Specimen Collection Location", "mappingInstructions": "Maps directly to the SDTMIG variable listed in the SDTMIG Target column.", "name": "MSLOC", "ordinal": "14", "prompt": "Anatomical Location", "questionText": "What was the anatomical location where the specimen was collected?", "simpleDatatype": "Char"}, {"_links": {"codelist": [{"href": "/mdr/root/ct/sdtmct/codelists/C99073", "title": "Version-agnostic anchor resource for codelist C99073", "type": "Root Value Domain"}], "parentProduct": {"href": "/mdr/cdashig/2-2", "title": "Clinical Data Acquisition Standards Harmonization Implementation Guide for Human Clinical Trials Version 2.2", "type": "Implementation Guide"}, "parentScenario": {"href": "/mdr/cdashig/2-2/scenarios/MS.CentralProcessing", "title": "Central Processing", "type": "CDASH Scenario"}, "priorVersion": {"href": "/mdr/cdashig/2-1/scenarios/MS.CentralProcessing/fields/MSLAT", "title": "MS Specimen Collection Laterality", "type": "Data Collection Field"}, "rootItem": {"href": "/mdr/root/cdashig/scenarios/MS.CentralProcessing/fields/MSLAT", "title": "Version-agnostic anchor element for scenario field Central Processing.MSLAT", "type": "Root Data Element"}, "sdtmigDatasetMappingTargets": [{"href": "/mdr/sdtmig/3-3/datasets/MS/variables/MSLAT", "title": "Laterality", "type": "SDTM Dataset Variable"}], "self": {"href": "/mdr/cdashig/2-2/scenarios/MS.CentralProcessing/fields/MSLAT", "title": "MS Specimen Collection Laterality", "type": "Data Collection Field"}}, "completionInstructions": "Record the side of the anatomical location of the specimen collection.", "core": "O", "definition": "Qualifier for anatomical location, further detailing the side of the body.", "implementationNotes": "May be pre-printed or collected when the sponsor needs to identify the specific side of the anatomical location. Sponsors may collect the data using a subset list of controlled terminology on the CRF.", "label": "MS Specimen Collection Laterality", "mappingInstructions": "Maps directly to the SDTMIG variable listed in the SDTMIG Target column.", "name": "MSLAT", "ordinal": "15", "prompt": "Side", "questionText": "What was the side of the anatomical location of the specimen collection?", "simpleDatatype": "Char"}, {"_links": {"codelist": [{"href": "/mdr/root/ct/sdtmct/codelists/C99074", "title": "Version-agnostic anchor resource for codelist C99074", "type": "Root Value Domain"}], "parentProduct": {"href": "/mdr/cdashig/2-2", "title": "Clinical Data Acquisition Standards Harmonization Implementation Guide for Human Clinical Trials Version 2.2", "type": "Implementation Guide"}, "parentScenario": {"href": "/mdr/cdashig/2-2/scenarios/MS.CentralProcessing", "title": "Central Processing", "type": "CDASH Scenario"}, "priorVersion": {"href": "/mdr/cdashig/2-1/scenarios/MS.CentralProcessing/fields/MSDIR", "title": "MS Specimen Collection Directionality", "type": "Data Collection Field"}, "rootItem": {"href": "/mdr/root/cdashig/scenarios/MS.CentralProcessing/fields/MSDIR", "title": "Version-agnostic anchor element for scenario field Central Processing.MSDIR", "type": "Root Data Element"}, "sdtmigDatasetMappingTargets": [{"href": "/mdr/sdtmig/3-3/datasets/MS/variables/MSDIR", "title": "Directionality", "type": "SDTM Dataset Variable"}], "self": {"href": "/mdr/cdashig/2-2/scenarios/MS.CentralProcessing/fields/MSDIR", "title": "MS Specimen Collection Directionality", "type": "Data Collection Field"}}, "completionInstructions": "Record the directionality of the anatomical location of the specimen collection.", "core": "O", "definition": "Qualifier further detailing the position of the anatomical location, relative to the center of the body, organ, or specimen.", "implementationNotes": "May be pre-printed or collected when the sponsor needs to identify the directionality of the anatomical location. Sponsors may collect the data using a subset list of controlled terminology on the CRF.", "label": "MS Specimen Collection Directionality", "mappingInstructions": "Maps directly to the SDTMIG variable listed in the SDTMIG Target column.", "name": "MSDIR", "ordinal": "16", "prompt": "Directionality", "questionText": "What was the directionality of the anatomical location of the specimen collection?", "simpleDatatype": "Char"}], "ordinal": "1", "scenario": "Central Processing"}
