{"_links": {"parentClass": {"href": "/mdr/cdashig/2-2/classes/Findings", "title": "Findings", "type": "Class"}, "parentDomain": {"href": "/mdr/cdashig/2-2/domains/MS", "title": "Microbiology Susceptibility", "type": "CDASH Domain"}, "parentProduct": {"href": "/mdr/cdashig/2-2", "title": "Clinical Data Acquisition Standards Harmonization Implementation Guide for Human Clinical Trials Version 2.2", "type": "Implementation Guide"}, "priorVersion": {"href": "/mdr/cdashig/2-1/scenarios/MS.LocalProcessing", "title": "Local Processing", "type": "CDASH Scenario"}, "self": {"href": "/mdr/cdashig/2-2/scenarios/MS.LocalProcessing", "title": "Local Processing", "type": "CDASH Scenario"}}, "domain": "Microbiology Susceptibility Test", "domainName": "MS", "fields": [{"_links": {"parentProduct": {"href": "/mdr/cdashig/2-2", "title": "Clinical Data Acquisition Standards Harmonization Implementation Guide for Human Clinical Trials Version 2.2", "type": "Implementation Guide"}, "parentScenario": {"href": "/mdr/cdashig/2-2/scenarios/MS.LocalProcessing", "title": "Local Processing", "type": "CDASH Scenario"}, "priorVersion": {"href": "/mdr/cdashig/2-1/scenarios/MS.LocalProcessing/fields/STUDYID", "title": "Study Identifier", "type": "Data Collection Field"}, "rootItem": {"href": "/mdr/root/cdashig/scenarios/MS.LocalProcessing/fields/STUDYID", "title": "Version-agnostic anchor element for scenario field Local Processing.STUDYID", "type": "Root Data Element"}, "sdtmigDatasetMappingTargets": [{"href": "/mdr/sdtmig/3-3/datasets/MS/variables/STUDYID", "title": "Study Identifier", "type": "SDTM Dataset Variable"}], "self": {"href": "/mdr/cdashig/2-2/scenarios/MS.LocalProcessing/fields/STUDYID", "title": "Study Identifier", "type": "Data Collection Field"}}, "core": "HR", "definition": "A unique identifier for a study.", "implementationNotes": "Although this field is not typically captured on a CRF, it should be displayed clearly on the CRF and/or in the EDC system. This field can be included in the database or populated during SDTM-based dataset creation before submission.", "label": "Study Identifier", "mappingInstructions": "Maps directly to the SDTMIG variable listed in the SDTMIG Target column.", "name": "STUDYID", "ordinal": "1", "prompt": "[Protocol/Study]", "questionText": "What is the study identifier?", "simpleDatatype": "Char"}, {"_links": {"parentProduct": {"href": "/mdr/cdashig/2-2", "title": "Clinical Data Acquisition Standards Harmonization Implementation Guide for Human Clinical Trials Version 2.2", "type": "Implementation Guide"}, "parentScenario": {"href": "/mdr/cdashig/2-2/scenarios/MS.LocalProcessing", "title": "Local Processing", "type": "CDASH Scenario"}, "priorVersion": {"href": "/mdr/cdashig/2-1/scenarios/MS.LocalProcessing/fields/SITEID", "title": "Study Site Identifier", "type": "Data Collection Field"}, "rootItem": {"href": "/mdr/root/cdashig/scenarios/MS.LocalProcessing/fields/SITEID", "title": "Version-agnostic anchor element for scenario field Local Processing.SITEID", "type": "Root Data Element"}, "sdtmigDatasetMappingTargets": [{"href": "/mdr/sdtmig/3-3/datasets/DM/variables/SITEID", "title": "Study Site Identifier", "type": "SDTM Dataset Variable"}], "self": {"href": "/mdr/cdashig/2-2/scenarios/MS.LocalProcessing/fields/SITEID", "title": "Study Site Identifier", "type": "Data Collection Field"}}, "core": "HR", "definition": "A unique identifier for a site within a study.", "implementationNotes": "Paper: This is typically pre-printed in the header of each CRF page for single-site studies. For studies with multiple sites, this field may be left blank so that the number can be recorded by the site, or it may be pre-printed on the CRFs that are shipped to each site. \\n EDC: This should be pre-populated.", "label": "Study Site Identifier", "mappingInstructions": "Maps directly to the SDTMIG variable listed in the SDTMIG Target column.", "name": "SITEID", "ordinal": "2", "prompt": "Site (Identifier)", "questionText": "What is the site identifier?", "simpleDatatype": "Char"}, {"_links": {"parentProduct": {"href": "/mdr/cdashig/2-2", "title": "Clinical Data Acquisition Standards Harmonization Implementation Guide for Human Clinical Trials Version 2.2", "type": "Implementation Guide"}, "parentScenario": {"href": "/mdr/cdashig/2-2/scenarios/MS.LocalProcessing", "title": "Local Processing", "type": "CDASH Scenario"}, "priorVersion": {"href": "/mdr/cdashig/2-1/scenarios/MS.LocalProcessing/fields/SUBJID", "title": "Subject Identifier for the Study", "type": "Data Collection Field"}, "rootItem": {"href": "/mdr/root/cdashig/scenarios/MS.LocalProcessing/fields/SUBJID", "title": "Version-agnostic anchor element for scenario field Local Processing.SUBJID", "type": "Root Data Element"}, "sdtmigDatasetMappingTargets": [{"href": "/mdr/sdtmig/3-3/datasets/DM/variables/SUBJID", "title": "Subject Identifier for the Study", "type": "SDTM Dataset Variable"}], "self": {"href": "/mdr/cdashig/2-2/scenarios/MS.LocalProcessing/fields/SUBJID", "title": "Subject Identifier for the Study", "type": "Data Collection Field"}}, "completionInstructions": "Record the identifier for the subject.", "core": "HR", "definition": "A unique subject identifier within a site and a study.", "implementationNotes": "Paper: This is typically recorded in the header of each CRF page. EDC: The subject identifiers may be system generated. This CDASH variable is typically collected in all CDASH domains. However, this CDASH variable is populated only in the SDTMIG DM domain. For more information, refer to the SDTMIG.", "label": "Subject Identifier for the Study", "mappingInstructions": "Maps directly to the SDTMIG variable listed in the SDTMIG Target column.", "name": "SUBJID", "ordinal": "3", "prompt": "[Subject/Participant] (Identifier)", "questionText": "What [is/was] the (study) [subject/participant] identifier?", "simpleDatatype": "Char"}, {"_links": {"parentProduct": {"href": "/mdr/cdashig/2-2", "title": "Clinical Data Acquisition Standards Harmonization Implementation Guide for Human Clinical Trials Version 2.2", "type": "Implementation Guide"}, "parentScenario": {"href": "/mdr/cdashig/2-2/scenarios/MS.LocalProcessing", "title": "Local Processing", "type": "CDASH Scenario"}, "priorVersion": {"href": "/mdr/cdashig/2-1/scenarios/MS.LocalProcessing/fields/NHOID", "title": "Non-host Organism ID", "type": "Data Collection Field"}, "rootItem": {"href": "/mdr/root/cdashig/scenarios/MS.LocalProcessing/fields/NHOID", "title": "Version-agnostic anchor element for scenario field Local Processing.NHOID", "type": "Root Data Element"}, "sdtmigDatasetMappingTargets": [{"href": "/mdr/sdtmig/3-3/datasets/MS/variables/NHOID", "title": "Non-host Organism ID", "type": "SDTM Dataset Variable"}], "self": {"href": "/mdr/cdashig/2-2/scenarios/MS.LocalProcessing/fields/NHOID", "title": "Non-host Organism ID", "type": "Data Collection Field"}}, "completionInstructions": "Record the identifier for the non-host organism that is the subject of the test.", "core": "O", "definition": "The identifier for a non-host organism, which should only be used when the organism is the subject of the test.", "implementationNotes": "Sponsor-defined identifier for a non-host organism, which should only be used when the organism is the subject of the test", "label": "Non-host Organism ID", "mappingInstructions": "Maps directly to the SDTMIG variable listed in the SDTMIG Target column.", "name": "NHOID", "ordinal": "4", "prompt": "Non-host Organism ID", "questionText": "What was the non-host organism ID?", "simpleDatatype": "Char"}, {"_links": {"parentProduct": {"href": "/mdr/cdashig/2-2", "title": "Clinical Data Acquisition Standards Harmonization Implementation Guide for Human Clinical Trials Version 2.2", "type": "Implementation Guide"}, "parentScenario": {"href": "/mdr/cdashig/2-2/scenarios/MS.LocalProcessing", "title": "Local Processing", "type": "CDASH Scenario"}, "priorVersion": {"href": "/mdr/cdashig/2-1/scenarios/MS.LocalProcessing/fields/VISIT", "title": "Visit Name", "type": "Data Collection Field"}, "rootItem": {"href": "/mdr/root/cdashig/scenarios/MS.LocalProcessing/fields/VISIT", "title": "Version-agnostic anchor element for scenario field Local Processing.VISIT", "type": "Root Data Element"}, "sdtmigDatasetMappingTargets": [{"href": "/mdr/sdtmig/3-3/datasets/MS/variables/VISIT", "title": "Visit Name", "type": "SDTM Dataset Variable"}], "self": {"href": "/mdr/cdashig/2-2/scenarios/MS.LocalProcessing/fields/VISIT", "title": "Visit Name", "type": "Data Collection Field"}}, "core": "R/C", "definition": "The name of a clinical encounter that encompasses planned and unplanned trial interventions, procedures, and assessments that may be performed on a subject.", "implementationNotes": "The name of the clinical encounter is typically pre-printed on the CRF or displayed within the EDC for any visit-based data collection, most often in Findings domains. This Visit text description is then available in any EDC data extract for that Findings domain.", "label": "Visit Name", "mappingInstructions": "Maps directly to the SDTMIG variable listed in the SDTMIG Target column.", "name": "VISIT", "ordinal": "5", "prompt": "[Visit]", "questionText": "What is the visit name?", "simpleDatatype": "Char"}, {"_links": {"parentProduct": {"href": "/mdr/cdashig/2-2", "title": "Clinical Data Acquisition Standards Harmonization Implementation Guide for Human Clinical Trials Version 2.2", "type": "Implementation Guide"}, "parentScenario": {"href": "/mdr/cdashig/2-2/scenarios/MS.LocalProcessing", "title": "Local Processing", "type": "CDASH Scenario"}, "priorVersion": {"href": "/mdr/cdashig/2-1/scenarios/MS.LocalProcessing/fields/VISDAT", "title": "Visit Date", "type": "Data Collection Field"}, "rootItem": {"href": "/mdr/root/cdashig/scenarios/MS.LocalProcessing/fields/VISDAT", "title": "Version-agnostic anchor element for scenario field Local Processing.VISDAT", "type": "Root Data Element"}, "self": {"href": "/mdr/cdashig/2-2/scenarios/MS.LocalProcessing/fields/VISDAT", "title": "Visit Date", "type": "Data Collection Field"}}, "completionInstructions": "Record the [date/start date] of the visit using this format (DD-MON-YYYY).", "core": "R/C", "definition": "Date the clinical encounter occurred (or started).", "implementationNotes": "The date the microbiology specimens were collected can be determined from the visit date variable (VISDAT) and applying that date to all of the microbiology susceptibility findings at that visit, or the specimen collection date can be included on the MS CRF using the date (MSDAT) field.", "label": "Visit Date", "mappingInstructions": "This field is not an SDTM variable. The date of a measurement, test, observation or specimen collection can be determined from the date/time of visit (VISDAT/VISTIM) and then concatenating the CDASH VISDAT/VISTIM components and populating the SDTMIG variable MIDTC in ISO 8601 format.", "name": "VISDAT", "ordinal": "6", "prompt": "(Visit) Date", "questionText": "What [is/was] the date of the visit?", "simpleDatatype": "Char"}, {"_links": {"codelist": [{"href": "/mdr/root/ct/sdtmct/codelists/C66742", "title": "Version-agnostic anchor resource for codelist C66742", "type": "Root Value Domain"}], "parentProduct": {"href": "/mdr/cdashig/2-2", "title": "Clinical Data Acquisition Standards Harmonization Implementation Guide for Human Clinical Trials Version 2.2", "type": "Implementation Guide"}, "parentScenario": {"href": "/mdr/cdashig/2-2/scenarios/MS.LocalProcessing", "title": "Local Processing", "type": "CDASH Scenario"}, "priorVersion": {"href": "/mdr/cdashig/2-1/scenarios/MS.LocalProcessing/fields/MSPERF", "title": "MS Susceptibility Test Performed", "type": "Data Collection Field"}, "rootItem": {"href": "/mdr/root/cdashig/scenarios/MS.LocalProcessing/fields/MSPERF", "title": "Version-agnostic anchor element for scenario field Local Processing.MSPERF", "type": "Root Data Element"}, "sdtmigDatasetMappingTargets": [{"href": "/mdr/sdtmig/3-3/datasets/MS/variables/MSSTAT", "title": "Completion Status", "type": "SDTM Dataset Variable"}], "self": {"href": "/mdr/cdashig/2-2/scenarios/MS.LocalProcessing/fields/MSPERF", "title": "MS Susceptibility Test Performed", "type": "Data Collection Field"}}, "completionInstructions": "Indicate whether or not microbiology susceptibility test was performed.", "core": "O", "definition": "An indication of whether a planned measurement, series of measurements, tests or observations was performed.", "implementationNotes": "This may be implemented for an entire panel. General prompt question to be used as a data management tool to verify that missing results are confirmed missing.", "label": "MS Susceptibility Test Performed", "mappingInstructions": "This does not map directly to an SDTMIG variable. May be used to derive a value into the SDTM variable MSSTAT. If MSPERF = \"N\", the value of MSSTAT will be \"NOT DONE\". If MSPERF = \"Y\", MSSTAT should be null. A combination of SDTMIG variables (e.g., MSCAT and MSSCAT, MSTPT ) is used to indicate that multiple tests were not done. In this situation, the SDTMIG variable MSTESTCD would be populated as MSALL and an appropriate test name (MSTEST) provided. See SDTMIG for additional information.", "name": "MSPERF", "ordinal": "7", "prompt": "Microbiology Susceptibility Performed", "questionText": "Was the microbiology susceptibility test performed?", "simpleDatatype": "Char"}, {"_links": {"parentProduct": {"href": "/mdr/cdashig/2-2", "title": "Clinical Data Acquisition Standards Harmonization Implementation Guide for Human Clinical Trials Version 2.2", "type": "Implementation Guide"}, "parentScenario": {"href": "/mdr/cdashig/2-2/scenarios/MS.LocalProcessing", "title": "Local Processing", "type": "CDASH Scenario"}, "priorVersion": {"href": "/mdr/cdashig/2-1/scenarios/MS.LocalProcessing/fields/MSREFID", "title": "MS Reference ID", "type": "Data Collection Field"}, "rootItem": {"href": "/mdr/root/cdashig/scenarios/MS.LocalProcessing/fields/MSREFID", "title": "Version-agnostic anchor element for scenario field Local Processing.MSREFID", "type": "Root Data Element"}, "sdtmigDatasetMappingTargets": [{"href": "/mdr/sdtmig/3-3/datasets/MS/variables/MSREFID", "title": "Reference ID", "type": "SDTM Dataset Variable"}], "self": {"href": "/mdr/cdashig/2-2/scenarios/MS.LocalProcessing/fields/MSREFID", "title": "MS Reference ID", "type": "Data Collection Field"}}, "completionInstructions": "Record the specimen [accession/reference] number assigned.", "core": "O", "definition": "An internal or external identifier, such as specimen identifier.", "implementationNotes": "This can be used to reconcile CRF data. May be included for linking back to specimens (e.g., Specimen ID).", "label": "MS Reference ID", "mappingInstructions": "Maps directly to the SDTMIG variable listed in the SDTMIG Target column. May be used to create RELREC to link this record with a record in another domain.", "name": "MSREFID", "ordinal": "8", "prompt": "(Microbiology Susceptibility test) [Reference identifier/Accession Number]", "questionText": "What was the (microbiology susceptibility test) [reference identifier/accession number]?", "simpleDatatype": "Char"}, {"_links": {"parentProduct": {"href": "/mdr/cdashig/2-2", "title": "Clinical Data Acquisition Standards Harmonization Implementation Guide for Human Clinical Trials Version 2.2", "type": "Implementation Guide"}, "parentScenario": {"href": "/mdr/cdashig/2-2/scenarios/MS.LocalProcessing", "title": "Local Processing", "type": "CDASH Scenario"}, "priorVersion": {"href": "/mdr/cdashig/2-1/scenarios/MS.LocalProcessing/fields/MSSPID", "title": "MS Sponsor-Defined Identifier", "type": "Data Collection Field"}, "rootItem": {"href": "/mdr/root/cdashig/scenarios/MS.LocalProcessing/fields/MSSPID", "title": "Version-agnostic anchor element for scenario field Local Processing.MSSPID", "type": "Root Data Element"}, "sdtmigDatasetMappingTargets": [{"href": "/mdr/sdtmig/3-3/datasets/MS/variables/MSSPID", "title": "Sponsor-Defined Identifier", "type": "SDTM Dataset Variable"}], "self": {"href": "/mdr/cdashig/2-2/scenarios/MS.LocalProcessing/fields/MSSPID", "title": "MS Sponsor-Defined Identifier", "type": "Data Collection Field"}}, "completionInstructions": "If collected on the CRF, the sponsor may insert instructions to ensure each record has a unique identifier.", "core": "O", "definition": "A sponsor-defined identifier. In CDASH, this is typically used for pre-printed or auto-generated numbers on the CRF, or any other type of identifier that does not already have a defined CDASH identifier field.", "implementationNotes": "Because SPID is a sponsor-defined identifier, conformance to Question Text or Item Prompt is not applicable. Typically used as an identifier in a data query to communicate clearly to the site the specific record in question or to reconcile data. May be used to record pre-printed number (e.g. line number, record number) on the CRF. This field may be populated by the sponsor's data collection system.", "label": "MS Sponsor-Defined Identifier", "mappingInstructions": "Maps directly to the SDTMIG variable listed in the SDTMIG Target column. May be used to create RELREC to link this record with a record in another domain.", "name": "MSSPID", "ordinal": "9", "prompt": "[Sponsor defined]", "questionText": "[Sponsor-defined question]", "simpleDatatype": "Char"}, {"_links": {"parentProduct": {"href": "/mdr/cdashig/2-2", "title": "Clinical Data Acquisition Standards Harmonization Implementation Guide for Human Clinical Trials Version 2.2", "type": "Implementation Guide"}, "parentScenario": {"href": "/mdr/cdashig/2-2/scenarios/MS.LocalProcessing", "title": "Local Processing", "type": "CDASH Scenario"}, "rootItem": {"href": "/mdr/root/cdashig/scenarios/MS.LocalProcessing/fields/MSGRPID", "title": "Version-agnostic anchor element for scenario field Local Processing.MSGRPID", "type": "Root Data Element"}, "sdtmigDatasetMappingTargets": [{"href": "/mdr/sdtmig/3-3/datasets/MS/variables/MSGRPID", "title": "Group ID", "type": "SDTM Dataset Variable"}], "self": {"href": "/mdr/cdashig/2-2/scenarios/MS.LocalProcessing/fields/MSGRPID", "title": "MS Group ID", "type": "Data Collection Field"}}, "completionInstructions": "If collected on the CRF, the sponsor may insert instructions to ensure each microbiology susceptibility test or result record has a unique identifier that will group records within a subject within the domain.", "core": "O", "definition": "A group identifier used to link together a block of related records within a subject in a domain.", "implementationNotes": "Used to link together a block of related records within a subject. Should not be used to link detection records in MB to the associated susceptibility results in the MS domain. NHOID should be used to identify the non-host organism.", "label": "MS Group ID", "mappingInstructions": "Maps directly to the SDTMIG variable listed in the SDTMIG Target column.", "name": "MSGRPID", "ordinal": "8", "prompt": "[Test/Procedure/Observation] Group Identifier", "questionText": "What [is/was] the [test/procedure/observation] group identifier?", "simpleDatatype": "Char"}, {"_links": {"parentProduct": {"href": "/mdr/cdashig/2-2", "title": "Clinical Data Acquisition Standards Harmonization Implementation Guide for Human Clinical Trials Version 2.2", "type": "Implementation Guide"}, "parentScenario": {"href": "/mdr/cdashig/2-2/scenarios/MS.LocalProcessing", "title": "Local Processing", "type": "CDASH Scenario"}, "priorVersion": {"href": "/mdr/cdashig/2-1/scenarios/MS.LocalProcessing/fields/MSLNKID", "title": "MS Link ID", "type": "Data Collection Field"}, "rootItem": {"href": "/mdr/root/cdashig/scenarios/MS.LocalProcessing/fields/MSLNKID", "title": "Version-agnostic anchor element for scenario field Local Processing.MSLNKID", "type": "Root Data Element"}, "sdtmigDatasetMappingTargets": [{"href": "/mdr/sdtmig/3-3/datasets/MS/variables/MSLNKID", "title": "Link ID", "type": "SDTM Dataset Variable"}], "self": {"href": "/mdr/cdashig/2-2/scenarios/MS.LocalProcessing/fields/MSLNKID", "title": "MS Link ID", "type": "Data Collection Field"}}, "completionInstructions": "If collected on the CRF, the sponsor may insert instructions to ensure each microbiology susceptibility result has an identifier that will link records across domains.", "core": "O", "definition": "An identifier used to link related records across domains.", "implementationNotes": "This may be a one-to- one or a one-to-many relationship. For example, a single microbiology specimen or result may have multiple measurements/assessments performed (e.g., susceptibility testing).", "label": "MS Link ID", "mappingInstructions": "Maps directly to the SDTMIG variable listed in the SDTMIG Target column. May be used to create RELREC to link this record with a record in another domain.", "name": "MSLNKID", "ordinal": "10", "prompt": "[Domain/Observation] Link Identifier", "questionText": "What [is/was] the [test/procedure/observation] link identifier?", "simpleDatatype": "Char"}, {"_links": {"parentProduct": {"href": "/mdr/cdashig/2-2", "title": "Clinical Data Acquisition Standards Harmonization Implementation Guide for Human Clinical Trials Version 2.2", "type": "Implementation Guide"}, "parentScenario": {"href": "/mdr/cdashig/2-2/scenarios/MS.LocalProcessing", "title": "Local Processing", "type": "CDASH Scenario"}, "priorVersion": {"href": "/mdr/cdashig/2-1/scenarios/MS.LocalProcessing/fields/MSDAT", "title": "MS Specimen Collection Date", "type": "Data Collection Field"}, "rootItem": {"href": "/mdr/root/cdashig/scenarios/MS.LocalProcessing/fields/MSDAT", "title": "Version-agnostic anchor element for scenario field Local Processing.MSDAT", "type": "Root Data Element"}, "sdtmigDatasetMappingTargets": [{"href": "/mdr/sdtmig/3-3/datasets/MS/variables/MSDTC", "title": "Date/Time of Collection", "type": "SDTM Dataset Variable"}], "self": {"href": "/mdr/cdashig/2-2/scenarios/MS.LocalProcessing/fields/MSDAT", "title": "MS Specimen Collection Date", "type": "Data Collection Field"}}, "completionInstructions": "Record the (start) date of specimen collection using this format (DD-MON-YYYY).", "core": "R/C", "definition": "The date of specimen collection ,represented in an unambiguous date format (e.g., DD-MON-YYYY).", "implementationNotes": "A complete date is expected. The date of specimen collection may be determined from the date of visit (VISDAT) and, if so, a separate assessment date field is not required. \\n \\n \\n", "label": "MS Specimen Collection Date", "mappingInstructions": "This does not map directly to an SDTMIG variable. For the SDTM submission dataset, concatenate all collected CDASH DATE and TIME components and populate the SDTMIG variable MSDTC in ISO 8601 format.", "name": "MSDAT", "ordinal": "11", "prompt": "Specimen Collection (Start) Date", "questionText": "What was the (start) date of the (microbiology) specimen collection?", "simpleDatatype": "Char"}, {"_links": {"parentProduct": {"href": "/mdr/cdashig/2-2", "title": "Clinical Data Acquisition Standards Harmonization Implementation Guide for Human Clinical Trials Version 2.2", "type": "Implementation Guide"}, "parentScenario": {"href": "/mdr/cdashig/2-2/scenarios/MS.LocalProcessing", "title": "Local Processing", "type": "CDASH Scenario"}, "priorVersion": {"href": "/mdr/cdashig/2-1/scenarios/MS.LocalProcessing/fields/MSTIM", "title": "MS Specimen Collection Time", "type": "Data Collection Field"}, "rootItem": {"href": "/mdr/root/cdashig/scenarios/MS.LocalProcessing/fields/MSTIM", "title": "Version-agnostic anchor element for scenario field Local Processing.MSTIM", "type": "Root Data Element"}, "sdtmigDatasetMappingTargets": [{"href": "/mdr/sdtmig/3-3/datasets/MS/variables/MSDTC", "title": "Date/Time of Collection", "type": "SDTM Dataset Variable"}], "self": {"href": "/mdr/cdashig/2-2/scenarios/MS.LocalProcessing/fields/MSTIM", "title": "MS Specimen Collection Time", "type": "Data Collection Field"}}, "completionInstructions": "Record the (start) time of collection (as complete as possible).", "core": "R/C", "definition": "The time of specimen collection, represented in an unambiguous time format (e.g., hh:mm:ss).", "implementationNotes": "May be required when multiple assessments are done on 1 day or when the timing in relationship to study treatment is required for analysis.", "label": "MS Specimen Collection Time", "mappingInstructions": "This does not map directly to an SDTMIG variable. For the SDTM submission dataset, concatenate all collected CDASH DATE and TIME components and populate the SDTMIG variable MSDTC in ISO 8601 format.", "name": "MSTIM", "ordinal": "12", "prompt": "Specimen Collection (Start) Time", "questionText": "What was the (start) time of the the (microbiology) collection?", "simpleDatatype": "Char"}, {"_links": {"parentProduct": {"href": "/mdr/cdashig/2-2", "title": "Clinical Data Acquisition Standards Harmonization Implementation Guide for Human Clinical Trials Version 2.2", "type": "Implementation Guide"}, "parentScenario": {"href": "/mdr/cdashig/2-2/scenarios/MS.LocalProcessing", "title": "Local Processing", "type": "CDASH Scenario"}, "priorVersion": {"href": "/mdr/cdashig/2-1/scenarios/MS.LocalProcessing/fields/MSCAT", "title": "MS Category for Organism Findings", "type": "Data Collection Field"}, "rootItem": {"href": "/mdr/root/cdashig/scenarios/MS.LocalProcessing/fields/MSCAT", "title": "Version-agnostic anchor element for scenario field Local Processing.MSCAT", "type": "Root Data Element"}, "self": {"href": "/mdr/cdashig/2-2/scenarios/MS.LocalProcessing/fields/MSCAT", "title": "MS Category for Organism Findings", "type": "Data Collection Field"}}, "completionInstructions": "Select the microscopic finding category, or record if not pre-printed on the CRF.", "core": "O", "definition": "A grouping of topic-variable values based on user-defined characteristics.", "implementationNotes": "Sponsor-defined controlled terminology. This would most commonly be either a heading, or a pre-printed category value on the CRF and not a question to which the site would provide an answer. If a question is asked, the response would typically be a sponsor-defined codelist. If the form is laid out as a grid, then words such as \"Category\" can be included as the column header.", "label": "MS Category for Organism Findings", "mappingInstructions": "Maps directly to the SDTMIG variable listed in the SDTMIG Target column.", "name": "MSCAT", "ordinal": "13", "prompt": "[Microbiology Susceptibility Category]; NULL", "questionText": "What was the category of the microbiology susceptibility finding?", "simpleDatatype": "Char"}, {"_links": {"parentProduct": {"href": "/mdr/cdashig/2-2", "title": "Clinical Data Acquisition Standards Harmonization Implementation Guide for Human Clinical Trials Version 2.2", "type": "Implementation Guide"}, "parentScenario": {"href": "/mdr/cdashig/2-2/scenarios/MS.LocalProcessing", "title": "Local Processing", "type": "CDASH Scenario"}, "priorVersion": {"href": "/mdr/cdashig/2-1/scenarios/MS.LocalProcessing/fields/MSSCAT", "title": "MS Subcategory for Organism Findings", "type": "Data Collection Field"}, "rootItem": {"href": "/mdr/root/cdashig/scenarios/MS.LocalProcessing/fields/MSSCAT", "title": "Version-agnostic anchor element for scenario field Local Processing.MSSCAT", "type": "Root Data Element"}, "sdtmigDatasetMappingTargets": [{"href": "/mdr/sdtmig/3-3/datasets/MS/variables/MSSCAT", "title": "Subcategory", "type": "SDTM Dataset Variable"}], "self": {"href": "/mdr/cdashig/2-2/scenarios/MS.LocalProcessing/fields/MSSCAT", "title": "MS Subcategory for Organism Findings", "type": "Data Collection Field"}}, "completionInstructions": "Select the microscopic finding subcategory, or record if not pre-printed on the CRF.", "core": "O", "definition": "A sub-division of the MSCAT values based on user-defined characteristics.", "implementationNotes": "Sponsor-defined controlled terminology. This would most commonly be either a heading or a pre-printed category value on the CRF, and not a question to which the site would provide an answer. If a question is asked, the response would typically be a sponsor-defined codelist. If the form is laid out as a grid, then words such as \"Subcategory\" can be included as the column header. MSSCAT can only be used if there is an MSCAT, and it must be a subcategorization of MSCAT.", "label": "MS Subcategory for Organism Findings", "mappingInstructions": "Maps directly to the SDTMIG variable listed in the SDTMIG Target column.", "name": "MSSCAT", "ordinal": "14", "prompt": "[Microbiology Susceptibility Subcategory]; NULL", "questionText": "What was the subcategory of the microbiology susceptibility finding?", "simpleDatatype": "Char"}, {"_links": {"codelist": [{"href": "/mdr/root/ct/sdtmct/codelists/C128687", "title": "Version-agnostic anchor resource for codelist C128687", "type": "Root Value Domain"}], "parentProduct": {"href": "/mdr/cdashig/2-2", "title": "Clinical Data Acquisition Standards Harmonization Implementation Guide for Human Clinical Trials Version 2.2", "type": "Implementation Guide"}, "parentScenario": {"href": "/mdr/cdashig/2-2/scenarios/MS.LocalProcessing", "title": "Local Processing", "type": "CDASH Scenario"}, "priorVersion": {"href": "/mdr/cdashig/2-1/scenarios/MS.LocalProcessing/fields/MSTEST", "title": "MS Organism Test or Finding Name", "type": "Data Collection Field"}, "rootItem": {"href": "/mdr/root/cdashig/scenarios/MS.LocalProcessing/fields/MSTEST", "title": "Version-agnostic anchor element for scenario field Local Processing.MSTEST", "type": "Root Data Element"}, "sdtmigDatasetMappingTargets": [{"href": "/mdr/sdtmig/3-3/datasets/MS/variables/MSTEST", "title": "Name of Assessment", "type": "SDTM Dataset Variable"}, {"href": "/mdr/sdtmig/3-3/datasets/MS/variables/MSTESTCD", "title": "Short Name of Assessment", "type": "SDTM Dataset Variable"}], "self": {"href": "/mdr/cdashig/2-2/scenarios/MS.LocalProcessing/fields/MSTEST", "title": "MS Organism Test or Finding Name", "type": "Data Collection Field"}}, "completionInstructions": "Record the type or name of the microbiology susceptibility test or examination, if not pre-printed on the CRF. If collected on the CRF, the sponsor may provide additional instructions to ensure the data is entered as intended.", "core": "HR", "definition": "Descriptive name of the microbiology susceptibility test or examination used to obtain the measurement or finding.", "implementationNotes": "Required to identify which test the result is for. It is recommended that the test names be pre-printed on the CRF rather than collected in a free-text field. If the form is laid out as a grid, then words such as \"Test\" can be included as the column header.", "label": "MS Organism Test or Finding Name", "mappingInstructions": "Maps directly to the SDTMIG variable listed in the SDTMIG Target column. The SDTMIG variable MSTESTCD may be determined from the value collected in MSTEST. Both MSTESTCD and MSTEST are required in the SDTM submission datasets. Use appropriate CDISC Controlled Terminology for the test and test code.", "name": "MSTEST", "ordinal": "15", "prompt": "[Microbiology Susceptibility Test Name]", "questionText": "What was the microbiology susceptibility test name?", "simpleDatatype": "Char"}, {"_links": {"parentProduct": {"href": "/mdr/cdashig/2-2", "title": "Clinical Data Acquisition Standards Harmonization Implementation Guide for Human Clinical Trials Version 2.2", "type": "Implementation Guide"}, "parentScenario": {"href": "/mdr/cdashig/2-2/scenarios/MS.LocalProcessing", "title": "Local Processing", "type": "CDASH Scenario"}, "priorVersion": {"href": "/mdr/cdashig/2-1/scenarios/MS.LocalProcessing/fields/MSTSTDTL", "title": "Microbiology Susceptibility Test Detail", "type": "Data Collection Field"}, "rootItem": {"href": "/mdr/root/cdashig/scenarios/MS.LocalProcessing/fields/MSTSTDTL", "title": "Version-agnostic anchor element for scenario field Local Processing.MSTSTDTL", "type": "Root Data Element"}, "sdtmigDatasetMappingTargets": [{"href": "/mdr/sdtmig/3-3/datasets/MS/variables/MSTSTDTL", "title": "Measurement, Test or Examination Detail", "type": "SDTM Dataset Variable"}], "self": {"href": "/mdr/cdashig/2-2/scenarios/MS.LocalProcessing/fields/MSTSTDTL", "title": "Microbiology Susceptibility Test Detail", "type": "Data Collection Field"}}, "completionInstructions": "Record the detail of the microbiology susceptibility test, if not pre-printed on the CRF.", "core": "O", "definition": "Detail of the microbiology susceptibility test used to obtain the measurement or finding. Helps to establish a unque record.", "implementationNotes": "Provides additional details for the microbiology susceptibility test if necessary to define a unique record. It is recommended that the test detail be pre-printed on the CRF. If the form is laid out as a grid, then words such as \"Test Detail\" can be included as the column header.", "label": "Microbiology Susceptibility Test Detail", "mappingInstructions": "Maps directly to the SDTMIG variable listed in the SDTMIG Target column.", "name": "MSTSTDTL", "ordinal": "16", "prompt": "Test Detail", "questionText": "What was the microbiology susceptibility test detail?", "simpleDatatype": "Char"}, {"_links": {"parentProduct": {"href": "/mdr/cdashig/2-2", "title": "Clinical Data Acquisition Standards Harmonization Implementation Guide for Human Clinical Trials Version 2.2", "type": "Implementation Guide"}, "parentScenario": {"href": "/mdr/cdashig/2-2/scenarios/MS.LocalProcessing", "title": "Local Processing", "type": "CDASH Scenario"}, "priorVersion": {"href": "/mdr/cdashig/2-1/scenarios/MS.LocalProcessing/fields/MSAGENT", "title": "Microbiology Susceptibility Agent", "type": "Data Collection Field"}, "rootItem": {"href": "/mdr/root/cdashig/scenarios/MS.LocalProcessing/fields/MSAGENT", "title": "Version-agnostic anchor element for scenario field Local Processing.MSAGENT", "type": "Root Data Element"}, "sdtmigDatasetMappingTargets": [{"href": "/mdr/sdtmig/3-3/datasets/MS/variables/MSAGENT", "title": "Agent Name", "type": "SDTM Dataset Variable"}], "self": {"href": "/mdr/cdashig/2-2/scenarios/MS.LocalProcessing/fields/MSAGENT", "title": "Microbiology Susceptibility Agent", "type": "Data Collection Field"}}, "completionInstructions": "Record the name of the agent for which resistance is being tested.", "core": "O", "definition": "The name of the agent for which resistance is tested.", "implementationNotes": "The name of the agent for which resistance is tested. The agent specified may be based on genetic markers or direct phenotypic drug sensitivity testing.", "label": "Microbiology Susceptibility Agent", "mappingInstructions": "Maps directly to the SDTMIG variable listed in the SDTMIG Target column.", "name": "MSAGENT", "ordinal": "17", "prompt": "Microbiology Susceptibility Agent", "questionText": "What was the name of the agent for which resistance is being tested?", "simpleDatatype": "Char"}, {"_links": {"parentProduct": {"href": "/mdr/cdashig/2-2", "title": "Clinical Data Acquisition Standards Harmonization Implementation Guide for Human Clinical Trials Version 2.2", "type": "Implementation Guide"}, "parentScenario": {"href": "/mdr/cdashig/2-2/scenarios/MS.LocalProcessing", "title": "Local Processing", "type": "CDASH Scenario"}, "priorVersion": {"href": "/mdr/cdashig/2-1/scenarios/MS.LocalProcessing/fields/MSCONC", "title": "MS Agent Concentration", "type": "Data Collection Field"}, "rootItem": {"href": "/mdr/root/cdashig/scenarios/MS.LocalProcessing/fields/MSCONC", "title": "Version-agnostic anchor element for scenario field Local Processing.MSCONC", "type": "Root Data Element"}, "sdtmigDatasetMappingTargets": [{"href": "/mdr/sdtmig/3-3/datasets/MS/variables/MSCONC", "title": "Agent Concentration", "type": "SDTM Dataset Variable"}], "self": {"href": "/mdr/cdashig/2-2/scenarios/MS.LocalProcessing/fields/MSCONC", "title": "MS Agent Concentration", "type": "Data Collection Field"}}, "completionInstructions": "Record the concentration of the agent.", "core": "O", "definition": "The concentration of the agent for which resistance is tested.", "implementationNotes": "Numeric concentration of agent listed in MSAGENT", "label": "MS Agent Concentration", "mappingInstructions": "Maps directly to the SDTMIG variable listed in the SDTMIG Target column.", "name": "MSCONC", "ordinal": "18", "prompt": "Agent Concentration", "questionText": "What was the concentration of the agent?", "simpleDatatype": "Char"}, {"_links": {"parentProduct": {"href": "/mdr/cdashig/2-2", "title": "Clinical Data Acquisition Standards Harmonization Implementation Guide for Human Clinical Trials Version 2.2", "type": "Implementation Guide"}, "parentScenario": {"href": "/mdr/cdashig/2-2/scenarios/MS.LocalProcessing", "title": "Local Processing", "type": "CDASH Scenario"}, "priorVersion": {"href": "/mdr/cdashig/2-1/scenarios/MS.LocalProcessing/fields/MSCONCU", "title": "MS Agent Concentration Unit", "type": "Data Collection Field"}, "rootItem": {"href": "/mdr/root/cdashig/scenarios/MS.LocalProcessing/fields/MSCONCU", "title": "Version-agnostic anchor element for scenario field Local Processing.MSCONCU", "type": "Root Data Element"}, "sdtmigDatasetMappingTargets": [{"href": "/mdr/sdtmig/3-3/datasets/MS/variables/MSCONCU", "title": "Agent Concentration Units", "type": "SDTM Dataset Variable"}], "self": {"href": "/mdr/cdashig/2-2/scenarios/MS.LocalProcessing/fields/MSCONCU", "title": "MS Agent Concentration Unit", "type": "Data Collection Field"}}, "completionInstructions": "Record the concentration unit of the agent.", "core": "O", "definition": "The concentration unit of the agent for which resistance is tested.", "implementationNotes": "Units for value of the agent concentration listed in MSCONC", "label": "MS Agent Concentration Unit", "mappingInstructions": "Maps directly to the SDTMIG variable listed in the SDTMIG Target column.", "name": "MSCONCU", "ordinal": "19", "prompt": "Agent Concentration Unit", "questionText": "What was the agent concentration unit?", "simpleDatatype": "Char"}, {"_links": {"parentProduct": {"href": "/mdr/cdashig/2-2", "title": "Clinical Data Acquisition Standards Harmonization Implementation Guide for Human Clinical Trials Version 2.2", "type": "Implementation Guide"}, "parentScenario": {"href": "/mdr/cdashig/2-2/scenarios/MS.LocalProcessing", "title": "Local Processing", "type": "CDASH Scenario"}, "priorVersion": {"href": "/mdr/cdashig/2-1/scenarios/MS.LocalProcessing/fields/MSORRES", "title": "MS Result or Finding in Original Units", "type": "Data Collection Field"}, "rootItem": {"href": "/mdr/root/cdashig/scenarios/MS.LocalProcessing/fields/MSORRES", "title": "Version-agnostic anchor element for scenario field Local Processing.MSORRES", "type": "Root Data Element"}, "sdtmigDatasetMappingTargets": [{"href": "/mdr/sdtmig/3-3/datasets/MS/variables/MSORRES", "title": "Result or Finding in Original Units", "type": "SDTM Dataset Variable"}], "self": {"href": "/mdr/cdashig/2-2/scenarios/MS.LocalProcessing/fields/MSORRES", "title": "MS Result or Finding in Original Units", "type": "Data Collection Field"}}, "completionInstructions": "Record test result, interpretation, or finding.", "core": "HR", "definition": "Result of the measurement or finding as originally received or collected.", "implementationNotes": "Both quantitative results and interpretive findings or summaries may be recorded here.", "label": "MS Result or Finding in Original Units", "mappingInstructions": "Maps directly to the SDTMIG variable listed in the SDTMIG Target column.", "name": "MSORRES", "ordinal": "20", "prompt": "(Result)", "questionText": "What was the result of the examination?", "simpleDatatype": "Char"}, {"_links": {"codelist": [{"href": "/mdr/root/ct/sdtmct/codelists/C71620", "title": "Version-agnostic anchor resource for codelist C71620", "type": "Root Value Domain"}], "parentProduct": {"href": "/mdr/cdashig/2-2", "title": "Clinical Data Acquisition Standards Harmonization Implementation Guide for Human Clinical Trials Version 2.2", "type": "Implementation Guide"}, "parentScenario": {"href": "/mdr/cdashig/2-2/scenarios/MS.LocalProcessing", "title": "Local Processing", "type": "CDASH Scenario"}, "priorVersion": {"href": "/mdr/cdashig/2-1/scenarios/MS.LocalProcessing/fields/MSORRESU", "title": "MS Original Units", "type": "Data Collection Field"}, "rootItem": {"href": "/mdr/root/cdashig/scenarios/MS.LocalProcessing/fields/MSORRESU", "title": "Version-agnostic anchor element for scenario field Local Processing.MSORRESU", "type": "Root Data Element"}, "sdtmigDatasetMappingTargets": [{"href": "/mdr/sdtmig/3-3/datasets/MS/variables/MSORRESU", "title": "Original Units", "type": "SDTM Dataset Variable"}], "self": {"href": "/mdr/cdashig/2-2/scenarios/MS.LocalProcessing/fields/MSORRESU", "title": "MS Original Units", "type": "Data Collection Field"}}, "completionInstructions": "Select the original unit in which these data were collected, or record if not pre-printed on the CRF.", "core": "R/C", "definition": "The unit of the result as originally received or collected.", "implementationNotes": "Should be pre-printed on the CRF with the associated test when possible, rather than collected in a free-text field. Should be included if applicable and not available elsewhere. For some tests, the units may not be applicable (e.g., where MSTEST requires simply a qualitative result).", "label": "MS Original Units", "mappingInstructions": "Maps directly to the SDTMIG variable listed in the SDTMIG Target column.", "name": "MSORRESU", "ordinal": "21", "prompt": "Unit", "questionText": "What was the unit of the result?", "simpleDatatype": "Char"}, {"_links": {"codelist": [{"href": "/mdr/root/ct/sdtmct/codelists/C66742", "title": "Version-agnostic anchor resource for codelist C66742", "type": "Root Value Domain"}], "parentProduct": {"href": "/mdr/cdashig/2-2", "title": "Clinical Data Acquisition Standards Harmonization Implementation Guide for Human Clinical Trials Version 2.2", "type": "Implementation Guide"}, "parentScenario": {"href": "/mdr/cdashig/2-2/scenarios/MS.LocalProcessing", "title": "Local Processing", "type": "CDASH Scenario"}, "priorVersion": {"href": "/mdr/cdashig/2-1/scenarios/MS.LocalProcessing/fields/MSCLSIG", "title": "MS Clinical Significance", "type": "Data Collection Field"}, "rootItem": {"href": "/mdr/root/cdashig/scenarios/MS.LocalProcessing/fields/MSCLSIG", "title": "Version-agnostic anchor element for scenario field Local Processing.MSCLSIG", "type": "Root Data Element"}, "sdtmigDatasetMappingTargets": [{"href": "/mdr/sdtmig/3-3/datasets/SUPPQUAL/variables/QVAL", "title": "Data Value", "type": "SDTM Dataset Variable"}], "self": {"href": "/mdr/cdashig/2-2/scenarios/MS.LocalProcessing/fields/MSCLSIG", "title": "MS Clinical Significance", "type": "Data Collection Field"}}, "completionInstructions": "Indicate whether the results were clinically significant.", "core": "O", "definition": "An indication whether the test results were clinically significant.", "label": "MS Clinical Significance", "mappingInstructions": "This does not map directly to an SDTMIG variable. This information could be submitted in a SUPPMS dataset as the value of SUPPMS.QVAL where SUPPMS.QNAM=\"MSCLSIG\" and SUPPMS.QLABEL=\"Clinically Significant\". Refer to the current SDTM and SDTMIG for instructions on placement of non-standard variables in SDTM domains.", "name": "MSCLSIG", "ordinal": "22", "prompt": "Clinically Significant", "questionText": "Was the result clinically significant?", "simpleDatatype": "Char"}, {"_links": {"parentProduct": {"href": "/mdr/cdashig/2-2", "title": "Clinical Data Acquisition Standards Harmonization Implementation Guide for Human Clinical Trials Version 2.2", "type": "Implementation Guide"}, "parentScenario": {"href": "/mdr/cdashig/2-2/scenarios/MS.LocalProcessing", "title": "Local Processing", "type": "CDASH Scenario"}, "priorVersion": {"href": "/mdr/cdashig/2-1/scenarios/MS.LocalProcessing/fields/MSRESCAT", "title": "MS Result Category", "type": "Data Collection Field"}, "rootItem": {"href": "/mdr/root/cdashig/scenarios/MS.LocalProcessing/fields/MSRESCAT", "title": "Version-agnostic anchor element for scenario field Local Processing.MSRESCAT", "type": "Root Data Element"}, "sdtmigDatasetMappingTargets": [{"href": "/mdr/sdtmig/3-3/datasets/MS/variables/MSRESCAT", "title": "Result Category", "type": "SDTM Dataset Variable"}], "self": {"href": "/mdr/cdashig/2-2/scenarios/MS.LocalProcessing/fields/MSRESCAT", "title": "MS Result Category", "type": "Data Collection Field"}}, "completionInstructions": "Record the category of the test results.", "core": "O", "definition": "Used to categorize the result of a finding.", "implementationNotes": "Used to categorize the results of a finding (e.g., \"SUSCEPTIBLE\", \"RESISTANT\")", "label": "MS Result Category", "mappingInstructions": "Maps directly to the SDTMIG variable listed in the SDTMIG Target column.", "name": "MSRESCAT", "ordinal": "23", "prompt": "Result Category", "questionText": "What was the result category?", "simpleDatatype": "Char"}, {"_links": {"parentProduct": {"href": "/mdr/cdashig/2-2", "title": "Clinical Data Acquisition Standards Harmonization Implementation Guide for Human Clinical Trials Version 2.2", "type": "Implementation Guide"}, "parentScenario": {"href": "/mdr/cdashig/2-2/scenarios/MS.LocalProcessing", "title": "Local Processing", "type": "CDASH Scenario"}, "priorVersion": {"href": "/mdr/cdashig/2-1/scenarios/MS.LocalProcessing/fields/MSNAM", "title": "MS Vendor Name", "type": "Data Collection Field"}, "rootItem": {"href": "/mdr/root/cdashig/scenarios/MS.LocalProcessing/fields/MSNAM", "title": "Version-agnostic anchor element for scenario field Local Processing.MSNAM", "type": "Root Data Element"}, "sdtmigDatasetMappingTargets": [{"href": "/mdr/sdtmig/3-3/datasets/MS/variables/MSNAM", "title": "Laboratory/Vendor Name", "type": "SDTM Dataset Variable"}], "self": {"href": "/mdr/cdashig/2-2/scenarios/MS.LocalProcessing/fields/MSNAM", "title": "MS Vendor Name", "type": "Data Collection Field"}}, "completionInstructions": "Record the laboratory name.", "core": "O", "definition": "The name or identifier of the vendor (e.g., laboratory) that provided the test results.", "implementationNotes": "Recommended to collect on the CRF if lab name was not collected at the site/study level, or if multiple labs are used by a site", "label": "MS Vendor Name", "mappingInstructions": "Maps directly to the SDTMIG variable listed in the SDTMIG Target column.", "name": "MSNAM", "ordinal": "24", "prompt": "Vendor Name", "questionText": "What was the name of the vendor used?", "simpleDatatype": "Char"}, {"_links": {"codelist": [{"href": "/mdr/root/ct/sdtmct/codelists/C78734", "title": "Version-agnostic anchor resource for codelist C78734", "type": "Root Value Domain"}], "parentProduct": {"href": "/mdr/cdashig/2-2", "title": "Clinical Data Acquisition Standards Harmonization Implementation Guide for Human Clinical Trials Version 2.2", "type": "Implementation Guide"}, "parentScenario": {"href": "/mdr/cdashig/2-2/scenarios/MS.LocalProcessing", "title": "Local Processing", "type": "CDASH Scenario"}, "priorVersion": {"href": "/mdr/cdashig/2-1/scenarios/MS.LocalProcessing/fields/MSSPEC", "title": "MS Specimen Type", "type": "Data Collection Field"}, "rootItem": {"href": "/mdr/root/cdashig/scenarios/MS.LocalProcessing/fields/MSSPEC", "title": "Version-agnostic anchor element for scenario field Local Processing.MSSPEC", "type": "Root Data Element"}, "sdtmigDatasetMappingTargets": [{"href": "/mdr/sdtmig/3-3/datasets/MS/variables/MSSPEC", "title": "Specimen Material Type", "type": "SDTM Dataset Variable"}], "self": {"href": "/mdr/cdashig/2-2/scenarios/MS.LocalProcessing/fields/MSSPEC", "title": "MS Specimen Type", "type": "Data Collection Field"}}, "completionInstructions": "Record the specimen material type.", "core": "R/C", "definition": "Defines the type of specimen used for a measurement.", "implementationNotes": "The type of specimen used for a measure. Should be collected if not available elsewhere, or if required to differentiate multiple specimens.", "label": "MS Specimen Type", "mappingInstructions": "Maps directly to the SDTMIG variable listed in the SDTMIG Target column.", "name": "MSSPEC", "ordinal": "25", "prompt": "Specimen Type", "questionText": "What is the specimen material type?", "simpleDatatype": "Char"}, {"_links": {"codelist": [{"href": "/mdr/root/ct/sdtmct/codelists/C78733", "title": "Version-agnostic anchor resource for codelist C78733", "type": "Root Value Domain"}], "parentProduct": {"href": "/mdr/cdashig/2-2", "title": "Clinical Data Acquisition Standards Harmonization Implementation Guide for Human Clinical Trials Version 2.2", "type": "Implementation Guide"}, "parentScenario": {"href": "/mdr/cdashig/2-2/scenarios/MS.LocalProcessing", "title": "Local Processing", "type": "CDASH Scenario"}, "priorVersion": {"href": "/mdr/cdashig/2-1/scenarios/MS.LocalProcessing/fields/MSSPCCND", "title": "MS Specimen Condition", "type": "Data Collection Field"}, "rootItem": {"href": "/mdr/root/cdashig/scenarios/MS.LocalProcessing/fields/MSSPCCND", "title": "Version-agnostic anchor element for scenario field Local Processing.MSSPCCND", "type": "Root Data Element"}, "sdtmigDatasetMappingTargets": [{"href": "/mdr/sdtmig/3-3/datasets/MS/variables/MSSPCCND", "title": "Specimen Condition", "type": "SDTM Dataset Variable"}], "self": {"href": "/mdr/cdashig/2-2/scenarios/MS.LocalProcessing/fields/MSSPCCND", "title": "MS Specimen Condition", "type": "Data Collection Field"}}, "completionInstructions": "Record the condition of the specimen.", "core": "O", "definition": "Describes the condition of the specimen.", "implementationNotes": "May be collected using free or standardized text. This can be used when results may be affected by whether conditions for specimen were properly met.", "label": "MS Specimen Condition", "mappingInstructions": "Maps directly to the SDTMIG variable listed in the SDTMIG Target column.", "name": "MSSPCCND", "ordinal": "26", "prompt": "Specimen Condition", "questionText": "What was the condition of the specimen?", "simpleDatatype": "Char"}, {"_links": {"codelist": [{"href": "/mdr/root/ct/sdtmct/codelists/C74456", "title": "Version-agnostic anchor resource for codelist C74456", "type": "Root Value Domain"}], "parentProduct": {"href": "/mdr/cdashig/2-2", "title": "Clinical Data Acquisition Standards Harmonization Implementation Guide for Human Clinical Trials Version 2.2", "type": "Implementation Guide"}, "parentScenario": {"href": "/mdr/cdashig/2-2/scenarios/MS.LocalProcessing", "title": "Local Processing", "type": "CDASH Scenario"}, "priorVersion": {"href": "/mdr/cdashig/2-1/scenarios/MS.LocalProcessing/fields/MSLOC", "title": "MS Specimen Collection Location", "type": "Data Collection Field"}, "rootItem": {"href": "/mdr/root/cdashig/scenarios/MS.LocalProcessing/fields/MSLOC", "title": "Version-agnostic anchor element for scenario field Local Processing.MSLOC", "type": "Root Data Element"}, "sdtmigDatasetMappingTargets": [{"href": "/mdr/sdtmig/3-3/datasets/MS/variables/MSLOC", "title": "Location Used for the Measurement", "type": "SDTM Dataset Variable"}], "self": {"href": "/mdr/cdashig/2-2/scenarios/MS.LocalProcessing/fields/MSLOC", "title": "MS Specimen Collection Location", "type": "Data Collection Field"}}, "completionInstructions": "Record or select the anatomical location of specimen collection.", "core": "O", "definition": "A description of the anatomical location of the subject, relevant to the collection of specimen.", "implementationNotes": "Collected or pre-printed when the sponsor needs to identify the specific anatomical location. Sponsors may collect the data using a subset list of controlled terminology on the CRF. LAT, DIR, and PORTOT are used to further describe the anatomical location.", "label": "MS Specimen Collection Location", "mappingInstructions": "Maps directly to the SDTMIG variable listed in the SDTMIG Target column.", "name": "MSLOC", "ordinal": "27", "prompt": "Anatomical Location", "questionText": "What was the anatomical location where the specimen was collected?", "simpleDatatype": "Char"}, {"_links": {"codelist": [{"href": "/mdr/root/ct/sdtmct/codelists/C99073", "title": "Version-agnostic anchor resource for codelist C99073", "type": "Root Value Domain"}], "parentProduct": {"href": "/mdr/cdashig/2-2", "title": "Clinical Data Acquisition Standards Harmonization Implementation Guide for Human Clinical Trials Version 2.2", "type": "Implementation Guide"}, "parentScenario": {"href": "/mdr/cdashig/2-2/scenarios/MS.LocalProcessing", "title": "Local Processing", "type": "CDASH Scenario"}, "priorVersion": {"href": "/mdr/cdashig/2-1/scenarios/MS.LocalProcessing/fields/MSLAT", "title": "MS Specimen Collection Laterality", "type": "Data Collection Field"}, "rootItem": {"href": "/mdr/root/cdashig/scenarios/MS.LocalProcessing/fields/MSLAT", "title": "Version-agnostic anchor element for scenario field Local Processing.MSLAT", "type": "Root Data Element"}, "sdtmigDatasetMappingTargets": [{"href": "/mdr/sdtmig/3-3/datasets/MS/variables/MSLAT", "title": "Laterality", "type": "SDTM Dataset Variable"}], "self": {"href": "/mdr/cdashig/2-2/scenarios/MS.LocalProcessing/fields/MSLAT", "title": "MS Specimen Collection Laterality", "type": "Data Collection Field"}}, "completionInstructions": "Record the side of the anatomical location of the specimen collection.", "core": "O", "definition": "Qualifier for anatomical location, further detailing the side of the body.", "implementationNotes": "May be pre-printed or collected when the sponsor needs to identify the specific side of the anatomical location. Sponsors may collect the data using a subset list of controlled terminology on the CRF.", "label": "MS Specimen Collection Laterality", "mappingInstructions": "Maps directly to the SDTMIG variable listed in the SDTMIG Target column.", "name": "MSLAT", "ordinal": "28", "prompt": "Side", "questionText": "What was the side of the anatomical location of the specimen collection?", "simpleDatatype": "Char"}, {"_links": {"codelist": [{"href": "/mdr/root/ct/sdtmct/codelists/C99074", "title": "Version-agnostic anchor resource for codelist C99074", "type": "Root Value Domain"}], "parentProduct": {"href": "/mdr/cdashig/2-2", "title": "Clinical Data Acquisition Standards Harmonization Implementation Guide for Human Clinical Trials Version 2.2", "type": "Implementation Guide"}, "parentScenario": {"href": "/mdr/cdashig/2-2/scenarios/MS.LocalProcessing", "title": "Local Processing", "type": "CDASH Scenario"}, "priorVersion": {"href": "/mdr/cdashig/2-1/scenarios/MS.LocalProcessing/fields/MSDIR", "title": "MS Specimen Collection Directionality", "type": "Data Collection Field"}, "rootItem": {"href": "/mdr/root/cdashig/scenarios/MS.LocalProcessing/fields/MSDIR", "title": "Version-agnostic anchor element for scenario field Local Processing.MSDIR", "type": "Root Data Element"}, "sdtmigDatasetMappingTargets": [{"href": "/mdr/sdtmig/3-3/datasets/MS/variables/MSDIR", "title": "Directionality", "type": "SDTM Dataset Variable"}], "self": {"href": "/mdr/cdashig/2-2/scenarios/MS.LocalProcessing/fields/MSDIR", "title": "MS Specimen Collection Directionality", "type": "Data Collection Field"}}, "completionInstructions": "Record the directionality of the anatomical location of the specimen collection.", "core": "O", "definition": "Qualifier further detailing the position of the anatomical location, relative to the center of the body, organ, or specimen.", "implementationNotes": "May be pre-printed or collected when the sponsor needs to identify the directionality of the anatomical location. Sponsors may collect the data using a subset list of controlled terminology on the CRF.", "label": "MS Specimen Collection Directionality", "mappingInstructions": "Maps directly to the SDTMIG variable listed in the SDTMIG Target column.", "name": "MSDIR", "ordinal": "29", "prompt": "Directionality", "questionText": "What was the directionality of the anatomical location of the specimen collection?", "simpleDatatype": "Char"}, {"_links": {"codelist": [{"href": "/mdr/root/ct/sdtmct/codelists/C85492", "title": "Version-agnostic anchor resource for codelist C85492", "type": "Root Value Domain"}], "parentProduct": {"href": "/mdr/cdashig/2-2", "title": "Clinical Data Acquisition Standards Harmonization Implementation Guide for Human Clinical Trials Version 2.2", "type": "Implementation Guide"}, "parentScenario": {"href": "/mdr/cdashig/2-2/scenarios/MS.LocalProcessing", "title": "Local Processing", "type": "CDASH Scenario"}, "priorVersion": {"href": "/mdr/cdashig/2-1/scenarios/MS.LocalProcessing/fields/MSMETHOD", "title": "MS Method of Test or Examination", "type": "Data Collection Field"}, "rootItem": {"href": "/mdr/root/cdashig/scenarios/MS.LocalProcessing/fields/MSMETHOD", "title": "Version-agnostic anchor element for scenario field Local Processing.MSMETHOD", "type": "Root Data Element"}, "sdtmigDatasetMappingTargets": [{"href": "/mdr/sdtmig/3-3/datasets/MS/variables/MSMETHOD", "title": "Method of Test or Examination", "type": "SDTM Dataset Variable"}], "self": {"href": "/mdr/cdashig/2-2/scenarios/MS.LocalProcessing/fields/MSMETHOD", "title": "MS Method of Test or Examination", "type": "Data Collection Field"}}, "completionInstructions": "Record the method of test or examination.", "core": "O", "definition": "Method of the test or examination.", "implementationNotes": "This information may be collected when more than one method is possible, and collecting the method used is necessary. This could include technique or type of staining used for the slides.", "label": "MS Method of Test or Examination", "mappingInstructions": "Maps directly to the SDTMIG variable listed in the SDTMIG Target column.", "name": "MSMETHOD", "ordinal": "30", "prompt": "Method", "questionText": "What was the method used for the test or examination?", "simpleDatatype": "Char"}, {"_links": {"codelist": [{"href": "/mdr/root/ct/sdtmct/codelists/C78735", "title": "Version-agnostic anchor resource for codelist C78735", "type": "Root Value Domain"}], "parentProduct": {"href": "/mdr/cdashig/2-2", "title": "Clinical Data Acquisition Standards Harmonization Implementation Guide for Human Clinical Trials Version 2.2", "type": "Implementation Guide"}, "parentScenario": {"href": "/mdr/cdashig/2-2/scenarios/MS.LocalProcessing", "title": "Local Processing", "type": "CDASH Scenario"}, "priorVersion": {"href": "/mdr/cdashig/2-1/scenarios/MS.LocalProcessing/fields/MSEVAL", "title": "MS Evaluator", "type": "Data Collection Field"}, "rootItem": {"href": "/mdr/root/cdashig/scenarios/MS.LocalProcessing/fields/MSEVAL", "title": "Version-agnostic anchor element for scenario field Local Processing.MSEVAL", "type": "Root Data Element"}, "sdtmigDatasetMappingTargets": [{"href": "/mdr/sdtmig/3-3/datasets/MS/variables/MSEVAL", "title": "Evaluator", "type": "SDTM Dataset Variable"}], "self": {"href": "/mdr/cdashig/2-2/scenarios/MS.LocalProcessing/fields/MSEVAL", "title": "MS Evaluator", "type": "Data Collection Field"}}, "completionInstructions": "Select the role of the person who provided the evaluation (e.g., INVESTIGATOR, ADJUDICATION COMMITTEE, VENDOR).", "core": "O", "definition": "The role of the person providing the evaluation.", "implementationNotes": "Used only for results that are subjective (e.g., assigned by a person or a group). May be pre-printed or collected. Sponsors may collect the data using a subset list of controlled terminology on the CRF.", "label": "MS Evaluator", "mappingInstructions": "Maps directly to the SDTMIG variable listed in the SDTMIG Target column.", "name": "MSEVAL", "ordinal": "31", "prompt": "[Evaluator/Reporter]", "questionText": "Who was the evaluator?", "simpleDatatype": "Char"}], "ordinal": "2", "scenario": "Local Processing"}
