{"_links": {"parentClass": {"href": "/mdr/cdashig/2-2/classes/Findings", "title": "Findings", "type": "Class"}, "parentDomain": {"href": "/mdr/cdashig/2-2/domains/PC", "title": "Pharmacokinetics Concentrations", "type": "CDASH Domain"}, "parentProduct": {"href": "/mdr/cdashig/2-2", "title": "Clinical Data Acquisition Standards Harmonization Implementation Guide for Human Clinical Trials Version 2.2", "type": "Implementation Guide"}, "priorVersion": {"href": "/mdr/cdashig/2-1/scenarios/PC.FixedTimePoints", "title": "PK Sample Collection at Fixed Time Points", "type": "CDASH Scenario"}, "self": {"href": "/mdr/cdashig/2-2/scenarios/PC.FixedTimePoints", "title": "PK Sample Collection at Fixed Time Points", "type": "CDASH Scenario"}}, "domain": "Pharmacokinetic Concentrations", "domainName": "PC", "fields": [{"_links": {"parentProduct": {"href": "/mdr/cdashig/2-2", "title": "Clinical Data Acquisition Standards Harmonization Implementation Guide for Human Clinical Trials Version 2.2", "type": "Implementation Guide"}, "parentScenario": {"href": "/mdr/cdashig/2-2/scenarios/PC.FixedTimePoints", "title": "PK Sample Collection at Fixed Time Points", "type": "CDASH Scenario"}, "priorVersion": {"href": "/mdr/cdashig/2-1/scenarios/PC.FixedTimePoints/fields/STUDYID", "title": "Study Identifier", "type": "Data Collection Field"}, "rootItem": {"href": "/mdr/root/cdashig/scenarios/PC.FixedTimePoints/fields/STUDYID", "title": "Version-agnostic anchor element for scenario field Fixed Time Points.STUDYID", "type": "Root Data Element"}, "sdtmigDatasetMappingTargets": [{"href": "/mdr/sdtmig/3-3/datasets/PC/variables/STUDYID", "title": "Study Identifier", "type": "SDTM Dataset Variable"}], "self": {"href": "/mdr/cdashig/2-2/scenarios/PC.FixedTimePoints/fields/STUDYID", "title": "Study Identifier", "type": "Data Collection Field"}}, "core": "HR", "definition": "A unique identifier for a study.", "implementationNotes": "Although this field is not typically captured on a CRF, it should be displayed clearly on the CRF and/or in the EDC system. This field can be included in the database or populated during SDTM-based dataset creation before submission.", "label": "Study Identifier", "mappingInstructions": "Maps directly to the SDTMIG variable listed in the SDTMIG Target column.", "name": "STUDYID", "ordinal": "1", "prompt": "[Protocol/Study]", "questionText": "What is the study identifier?", "simpleDatatype": "Char"}, {"_links": {"parentProduct": {"href": "/mdr/cdashig/2-2", "title": "Clinical Data Acquisition Standards Harmonization Implementation Guide for Human Clinical Trials Version 2.2", "type": "Implementation Guide"}, "parentScenario": {"href": "/mdr/cdashig/2-2/scenarios/PC.FixedTimePoints", "title": "PK Sample Collection at Fixed Time Points", "type": "CDASH Scenario"}, "priorVersion": {"href": "/mdr/cdashig/2-1/scenarios/PC.FixedTimePoints/fields/SITEID", "title": "Study Site Identifier", "type": "Data Collection Field"}, "rootItem": {"href": "/mdr/root/cdashig/scenarios/PC.FixedTimePoints/fields/SITEID", "title": "Version-agnostic anchor element for scenario field Fixed Time Points.SITEID", "type": "Root Data Element"}, "sdtmigDatasetMappingTargets": [{"href": "/mdr/sdtmig/3-3/datasets/DM/variables/SITEID", "title": "Study Site Identifier", "type": "SDTM Dataset Variable"}], "self": {"href": "/mdr/cdashig/2-2/scenarios/PC.FixedTimePoints/fields/SITEID", "title": "Study Site Identifier", "type": "Data Collection Field"}}, "core": "HR", "definition": "A unique identifier for a site within a study.", "implementationNotes": "Paper: This is typically pre-printed in the header of each CRF page for single-site studies. For studies with multiple sites, this field may be left blank so that the number can be recorded by the site, or it may be pre-printed on the CRFs that are shipped to each site. \\n EDC: This should be pre-populated.", "label": "Study Site Identifier", "mappingInstructions": "Maps directly to the SDTMIG variable listed in the SDTMIG Target column.", "name": "SITEID", "ordinal": "2", "prompt": "Site (Identifier)", "questionText": "What is the site identifier?", "simpleDatatype": "Char"}, {"_links": {"parentProduct": {"href": "/mdr/cdashig/2-2", "title": "Clinical Data Acquisition Standards Harmonization Implementation Guide for Human Clinical Trials Version 2.2", "type": "Implementation Guide"}, "parentScenario": {"href": "/mdr/cdashig/2-2/scenarios/PC.FixedTimePoints", "title": "PK Sample Collection at Fixed Time Points", "type": "CDASH Scenario"}, "priorVersion": {"href": "/mdr/cdashig/2-1/scenarios/PC.FixedTimePoints/fields/SUBJID", "title": "Subject Identifier for the Study", "type": "Data Collection Field"}, "rootItem": {"href": "/mdr/root/cdashig/scenarios/PC.FixedTimePoints/fields/SUBJID", "title": "Version-agnostic anchor element for scenario field Fixed Time Points.SUBJID", "type": "Root Data Element"}, "sdtmigDatasetMappingTargets": [{"href": "/mdr/sdtmig/3-3/datasets/DM/variables/SUBJID", "title": "Subject Identifier for the Study", "type": "SDTM Dataset Variable"}], "self": {"href": "/mdr/cdashig/2-2/scenarios/PC.FixedTimePoints/fields/SUBJID", "title": "Subject Identifier for the Study", "type": "Data Collection Field"}}, "completionInstructions": "Record the identifier for the subject.", "core": "HR", "definition": "A unique subject identifier within a site and a study.", "implementationNotes": "Paper: This is typically recorded in the header of each CRF page. EDC: The subject identifiers may be system-generated. This CDASH variable is typically collected in all CDASH domains. However, this CDASH variable is populated only in the SDTMIG DM domain. For more information, refer to the SDTMIG.", "label": "Subject Identifier for the Study", "mappingInstructions": "Maps directly to the SDTMIG variable listed in the SDTMIG Target column.", "name": "SUBJID", "ordinal": "3", "prompt": "[Subject/Participant] (Identifier)", "questionText": "What [is/was] the (study) [subject/participant] identifier?", "simpleDatatype": "Char"}, {"_links": {"parentProduct": {"href": "/mdr/cdashig/2-2", "title": "Clinical Data Acquisition Standards Harmonization Implementation Guide for Human Clinical Trials Version 2.2", "type": "Implementation Guide"}, "parentScenario": {"href": "/mdr/cdashig/2-2/scenarios/PC.FixedTimePoints", "title": "PK Sample Collection at Fixed Time Points", "type": "CDASH Scenario"}, "priorVersion": {"href": "/mdr/cdashig/2-1/scenarios/PC.FixedTimePoints/fields/VISIT", "title": "Visit Name", "type": "Data Collection Field"}, "rootItem": {"href": "/mdr/root/cdashig/scenarios/PC.FixedTimePoints/fields/VISIT", "title": "Version-agnostic anchor element for scenario field Fixed Time Points.VISIT", "type": "Root Data Element"}, "sdtmigDatasetMappingTargets": [{"href": "/mdr/sdtmig/3-3/datasets/PC/variables/VISIT", "title": "Visit Name", "type": "SDTM Dataset Variable"}], "self": {"href": "/mdr/cdashig/2-2/scenarios/PC.FixedTimePoints/fields/VISIT", "title": "Visit Name", "type": "Data Collection Field"}}, "core": "R/C", "definition": "The name of a clinical encounter that encompasses planned and unplanned trial interventions, procedures, and assessments that may be performed on a subject.", "implementationNotes": "The name of the clinical encounter is typically pre-printed on the CRF or displayed within the EDC for any visit-based data collection, most often in Findings domains. This Visit text description is then available in any EDC data extract for that Findings domain.", "label": "Visit Name", "mappingInstructions": "Maps directly to the SDTMIG variable listed in the SDTMIG Target column.", "name": "VISIT", "ordinal": "4", "prompt": "[Visit]", "questionText": "What is the visit name?", "simpleDatatype": "Char"}, {"_links": {"parentProduct": {"href": "/mdr/cdashig/2-2", "title": "Clinical Data Acquisition Standards Harmonization Implementation Guide for Human Clinical Trials Version 2.2", "type": "Implementation Guide"}, "parentScenario": {"href": "/mdr/cdashig/2-2/scenarios/PC.FixedTimePoints", "title": "PK Sample Collection at Fixed Time Points", "type": "CDASH Scenario"}, "priorVersion": {"href": "/mdr/cdashig/2-1/scenarios/PC.FixedTimePoints/fields/VISDAT", "title": "Visit Date", "type": "Data Collection Field"}, "rootItem": {"href": "/mdr/root/cdashig/scenarios/PC.FixedTimePoints/fields/VISDAT", "title": "Version-agnostic anchor element for scenario field Fixed Time Points.VISDAT", "type": "Root Data Element"}, "self": {"href": "/mdr/cdashig/2-2/scenarios/PC.FixedTimePoints/fields/VISDAT", "title": "Visit Date", "type": "Data Collection Field"}}, "completionInstructions": "Record the [date/start date] of the visit using this format (DD-MON-YYYY).", "core": "R/C", "definition": "Date the clinical encounter occurred (or started).", "implementationNotes": "The date the PK samples were collected can be determined from the visit date variable (VISDAT) and applying that date to all of the PK samples at that visit, or the collection date can be collected on the PK CRF using the date (PCDAT) field.", "label": "Visit Date", "mappingInstructions": "This field is not an SDTM variable. The date of a measurement, test, observation can be determined from the date/time of visit (VISDAT/VISTIM) and then concatenating the CDASH VISDAT/VISTIM components and populating the SDTMIG variable PCDTC in ISO 8601 format.", "name": "VISDAT", "ordinal": "5", "prompt": "(Visit) Date", "questionText": "What [is/was] the date of the visit?", "simpleDatatype": "Char"}, {"_links": {"codelist": [{"href": "/mdr/root/ct/sdtmct/codelists/C66742", "title": "Version-agnostic anchor resource for codelist C66742", "type": "Root Value Domain"}], "parentProduct": {"href": "/mdr/cdashig/2-2", "title": "Clinical Data Acquisition Standards Harmonization Implementation Guide for Human Clinical Trials Version 2.2", "type": "Implementation Guide"}, "parentScenario": {"href": "/mdr/cdashig/2-2/scenarios/PC.FixedTimePoints", "title": "PK Sample Collection at Fixed Time Points", "type": "CDASH Scenario"}, "priorVersion": {"href": "/mdr/cdashig/2-1/scenarios/PC.FixedTimePoints/fields/PCPERF", "title": "PK Sampling Performed", "type": "Data Collection Field"}, "rootItem": {"href": "/mdr/root/cdashig/scenarios/PC.FixedTimePoints/fields/PCPERF", "title": "Version-agnostic anchor element for scenario field Fixed Time Points.PCPERF", "type": "Root Data Element"}, "sdtmigDatasetMappingTargets": [{"href": "/mdr/sdtmig/3-3/datasets/PC/variables/PCSTAT", "title": "Completion Status", "type": "SDTM Dataset Variable"}], "self": {"href": "/mdr/cdashig/2-2/scenarios/PC.FixedTimePoints/fields/PCPERF", "title": "PK Sampling Performed", "type": "Data Collection Field"}}, "completionInstructions": "Check \"No\" if none of the samples were collected.", "core": "O", "definition": "An indication of whether PK samples were collected.", "implementationNotes": "General prompt question to be used as a data management tool to verify that missing results are confirmed missing. This may be implemented at form level or sample level. These may be all samples of a particular type or all samples taken for some purpose and may need to be identified by the organization of the data on the form. Each sample collected could result in 1 or more tests performed, so there can be a one-to-one or one-to-many relationship between samples and tests/results.", "label": "PK Sampling Performed", "mappingInstructions": "This does not map directly to an SDTMIG variable. May be used to derive a value into the SDTMIG variable PCSTAT. If PCPERF=\"N\", the value of PCSTAT will be \"NOT DONE\". If PCPERF=\"Y\", PCSTAT should be null. PCTEST and PCTESTCD must reflect what tests were not done. A combination of SDTMIG variables ( e.g., PCCAT and PCSCAT, PCTPT) is used to indicate that multiple tests were not done. In this situation, the SDTMIG variable PCTESTCD would be populated as PCALL and an appropriate test name (PCTEST) provided. See SDTMIG for additional information.", "name": "PCPERF", "ordinal": "6", "prompt": "Collected", "questionText": "Were PK samples collected?", "simpleDatatype": "Char"}, {"_links": {"codelist": [{"href": "/mdr/root/ct/sdtmct/codelists/C66789", "title": "Version-agnostic anchor resource for codelist C66789", "type": "Root Value Domain"}], "parentProduct": {"href": "/mdr/cdashig/2-2", "title": "Clinical Data Acquisition Standards Harmonization Implementation Guide for Human Clinical Trials Version 2.2", "type": "Implementation Guide"}, "parentScenario": {"href": "/mdr/cdashig/2-2/scenarios/PC.FixedTimePoints", "title": "PK Sample Collection at Fixed Time Points", "type": "CDASH Scenario"}, "priorVersion": {"href": "/mdr/cdashig/2-1/scenarios/PC.FixedTimePoints/fields/PCSTAT", "title": "PK Sampling Completion Status", "type": "Data Collection Field"}, "rootItem": {"href": "/mdr/root/cdashig/scenarios/PC.FixedTimePoints/fields/PCSTAT", "title": "Version-agnostic anchor element for scenario field Fixed Time Points.PCSTAT", "type": "Root Data Element"}, "sdtmigDatasetMappingTargets": [{"href": "/mdr/sdtmig/3-3/datasets/PC/variables/PCSTAT", "title": "Completion Status", "type": "SDTM Dataset Variable"}], "self": {"href": "/mdr/cdashig/2-2/scenarios/PC.FixedTimePoints/fields/PCSTAT", "title": "PK Sampling Completion Status", "type": "Data Collection Field"}}, "completionInstructions": "Indicate if the specimen was not done.", "core": "HR", "definition": "This variable used to indicate that data are not available, by having the site record the value as \"Not Done\".", "implementationNotes": "A Not Done checkbox, which indicates the test was \"NOT DONE\". Typically, there would be 1 checkbox for each measurement. This field can be useful on individual sample collections to confirm that a blank result field is meant to be blank.", "label": "PK Sampling Completion Status", "mappingInstructions": "Maps directly to the SDTMIG variable listed in the SDTMIG Target column.", "name": "PCSTAT", "ordinal": "7", "prompt": "Not Done", "questionText": "Record \"Not Done\" if the PK sample was not collected.", "simpleDatatype": "Char"}, {"_links": {"parentProduct": {"href": "/mdr/cdashig/2-2", "title": "Clinical Data Acquisition Standards Harmonization Implementation Guide for Human Clinical Trials Version 2.2", "type": "Implementation Guide"}, "parentScenario": {"href": "/mdr/cdashig/2-2/scenarios/PC.FixedTimePoints", "title": "PK Sample Collection at Fixed Time Points", "type": "CDASH Scenario"}, "priorVersion": {"href": "/mdr/cdashig/2-1/scenarios/PC.FixedTimePoints/fields/PCREASND", "title": "PK Sampling Reason Not Done", "type": "Data Collection Field"}, "rootItem": {"href": "/mdr/root/cdashig/scenarios/PC.FixedTimePoints/fields/PCREASND", "title": "Version-agnostic anchor element for scenario field Fixed Time Points.PCREASND", "type": "Root Data Element"}, "sdtmigDatasetMappingTargets": [{"href": "/mdr/sdtmig/3-3/datasets/PC/variables/PCREASND", "title": "Reason Test Not Done", "type": "SDTM Dataset Variable"}], "self": {"href": "/mdr/cdashig/2-2/scenarios/PC.FixedTimePoints/fields/PCREASND", "title": "PK Sampling Reason Not Done", "type": "Data Collection Field"}}, "completionInstructions": "Provide the reason why a PK sample was not collected.", "core": "O", "definition": "An explanation for why the data are not available.", "implementationNotes": "The reason the data are not available may be chosen from a sponsor-defined list (e.g., broken equipment, subject refused) or entered as free text. When PCREASND is used, the SDTMIG variable PCSTAT should also be populated in the SDTM-based dataset.", "label": "PK Sampling Reason Not Done", "mappingInstructions": "Maps directly to the SDTMIG variable listed in the SDTMIG Target column.", "name": "PCREASND", "ordinal": "8", "prompt": "Reason Not Collected", "questionText": "What was the reason the PK sample was not collected?", "simpleDatatype": "Char"}, {"_links": {"parentProduct": {"href": "/mdr/cdashig/2-2", "title": "Clinical Data Acquisition Standards Harmonization Implementation Guide for Human Clinical Trials Version 2.2", "type": "Implementation Guide"}, "parentScenario": {"href": "/mdr/cdashig/2-2/scenarios/PC.FixedTimePoints", "title": "PK Sample Collection at Fixed Time Points", "type": "CDASH Scenario"}, "priorVersion": {"href": "/mdr/cdashig/2-1/scenarios/PC.FixedTimePoints/fields/PCDAT", "title": "PK Sample Collection Date", "type": "Data Collection Field"}, "rootItem": {"href": "/mdr/root/cdashig/scenarios/PC.FixedTimePoints/fields/PCDAT", "title": "Version-agnostic anchor element for scenario field Fixed Time Points.PCDAT", "type": "Root Data Element"}, "sdtmigDatasetMappingTargets": [{"href": "/mdr/sdtmig/3-3/datasets/PC/variables/PCDTC", "title": "Date/Time of Specimen Collection", "type": "SDTM Dataset Variable"}], "self": {"href": "/mdr/cdashig/2-2/scenarios/PC.FixedTimePoints/fields/PCDAT", "title": "PK Sample Collection Date", "type": "Data Collection Field"}}, "completionInstructions": "Record the date when PK sample collection occurred using this format (DD-MON-YYYY). If left blank, \"PCDATFL\" for this specimen must be populated (or \"PCPERF\" must be flagged to indicate this sample was not collected).", "core": "HR", "definition": "The date of PK sample collection or the start date of PK sample collection over a period of time (protocol-defined time-point range), represented in an unambiguous date format (e.g., DD-MON-YYYY).", "implementationNotes": "A complete date is expected. The date of collection may be determined from the date of visit (VISDAT); if so, a separate assessment date field is not required. The SDTMIG PCDTC variable contains either a date/time when a specimen is collected at a point in time or the start date/time, when a specimen is collected over time.", "label": "PK Sample Collection Date", "mappingInstructions": "This does not map directly to an SDTMIG variable. For the SDTM submission dataset, concatenate all collected CDASH DATE and TIME components and populate the SDTMIG variable PCDTC in ISO 8601 format.", "name": "PCDAT", "ordinal": "9", "prompt": "Collection Date", "questionText": "What was the date of the PK sample collection?", "simpleDatatype": "Char"}, {"_links": {"parentProduct": {"href": "/mdr/cdashig/2-2", "title": "Clinical Data Acquisition Standards Harmonization Implementation Guide for Human Clinical Trials Version 2.2", "type": "Implementation Guide"}, "parentScenario": {"href": "/mdr/cdashig/2-2/scenarios/PC.FixedTimePoints", "title": "PK Sample Collection at Fixed Time Points", "type": "CDASH Scenario"}, "priorVersion": {"href": "/mdr/cdashig/2-1/scenarios/PC.FixedTimePoints/fields/PCDATFL", "title": "PK Sampling Date Flag", "type": "Data Collection Field"}, "rootItem": {"href": "/mdr/root/cdashig/scenarios/PC.FixedTimePoints/fields/PCDATFL", "title": "Version-agnostic anchor element for scenario field Fixed Time Points.PCDATFL", "type": "Root Data Element"}, "self": {"href": "/mdr/cdashig/2-2/scenarios/PC.FixedTimePoints/fields/PCDATFL", "title": "PK Sampling Date Flag", "type": "Data Collection Field"}}, "completionInstructions": "Select when the date of this specimen collection is the same as the date of the previous specimen collected. If left blank, \"PCDAT\" for this specimen must be populated. (or \"PCPERF\" must be flagged to indicate this sample was not collected)", "core": "O", "definition": "Flag indicating that the PK date (or start date) is the same as the previous specimen collection date (or start date).", "implementationNotes": "When a series of specimens are collected on a single form, this field is tied to the collection date to allow for the flag to be used as a surrogate for the date field. Its selection means that the date of this specimen is the same as the date of the last specimen collected (in the series). This variable may be used when collecting PK data and re-entering dates is more cumbersome than selecting the checkbox.", "label": "PK Sampling Date Flag", "mappingInstructions": "Does not map to an SDTMIG variable. The SDTM annotated CRF indicates that this field is NOT SUBMITTED.", "name": "PCDATFL", "ordinal": "10", "prompt": "Same as Previous (Specimen/Sample Collection End) Date", "questionText": "Was the specimen/sample collected on the same date as the [last/previous specimen/sample] [collected/collection ended]?", "simpleDatatype": "Char"}, {"_links": {"parentProduct": {"href": "/mdr/cdashig/2-2", "title": "Clinical Data Acquisition Standards Harmonization Implementation Guide for Human Clinical Trials Version 2.2", "type": "Implementation Guide"}, "parentScenario": {"href": "/mdr/cdashig/2-2/scenarios/PC.FixedTimePoints", "title": "PK Sample Collection at Fixed Time Points", "type": "CDASH Scenario"}, "priorVersion": {"href": "/mdr/cdashig/2-1/scenarios/PC.FixedTimePoints/fields/PCTIM", "title": "PK Sample Collection Time", "type": "Data Collection Field"}, "rootItem": {"href": "/mdr/root/cdashig/scenarios/PC.FixedTimePoints/fields/PCTIM", "title": "Version-agnostic anchor element for scenario field Fixed Time Points.PCTIM", "type": "Root Data Element"}, "sdtmigDatasetMappingTargets": [{"href": "/mdr/sdtmig/3-3/datasets/PC/variables/PCDTC", "title": "Date/Time of Specimen Collection", "type": "SDTM Dataset Variable"}], "self": {"href": "/mdr/cdashig/2-2/scenarios/PC.FixedTimePoints/fields/PCTIM", "title": "PK Sample Collection Time", "type": "Data Collection Field"}}, "completionInstructions": "Record time of collection (as complete as possible).", "core": "HR", "definition": "The time of PK sample collection or start time for a specimen collected over a period of time (protocol-defined time-point range), represented in an unambiguous time format (e.g., hh:mm:ss).", "implementationNotes": "A complete time is expected. The SDTMIG PCDTC variable contains either a date/time, when a specimen is collected at a point in time, or the start date/time, when a specimen is collected over time.", "label": "PK Sample Collection Time", "mappingInstructions": "This does not map directly to an SDTMIG variable. For the SDTM submission dataset, concatenate all collected CDASH DATE and TIME components and populate the SDTMIG variable PCDTC in ISO 8601 format.", "name": "PCTIM", "ordinal": "11", "prompt": "Collection Time", "questionText": "What was the time of the PK sample collection?", "simpleDatatype": "Char"}, {"_links": {"parentProduct": {"href": "/mdr/cdashig/2-2", "title": "Clinical Data Acquisition Standards Harmonization Implementation Guide for Human Clinical Trials Version 2.2", "type": "Implementation Guide"}, "parentScenario": {"href": "/mdr/cdashig/2-2/scenarios/PC.FixedTimePoints", "title": "PK Sample Collection at Fixed Time Points", "type": "CDASH Scenario"}, "priorVersion": {"href": "/mdr/cdashig/2-1/scenarios/PC.FixedTimePoints/fields/PCTPT", "title": "PK Sampling Planned Time Point Name", "type": "Data Collection Field"}, "rootItem": {"href": "/mdr/root/cdashig/scenarios/PC.FixedTimePoints/fields/PCTPT", "title": "Version-agnostic anchor element for scenario field Fixed Time Points.PCTPT", "type": "Root Data Element"}, "sdtmigDatasetMappingTargets": [{"href": "/mdr/sdtmig/3-3/datasets/PC/variables/PCTPT", "title": "Planned Time Point Name", "type": "SDTM Dataset Variable"}], "self": {"href": "/mdr/cdashig/2-2/scenarios/PC.FixedTimePoints/fields/PCTPT", "title": "PK Sampling Planned Time Point Name", "type": "Data Collection Field"}}, "completionInstructions": "Record the planned time-point labels for the PK sample collection, if not pre-printed on the CRF. Note: Planned time points are often described as relative to the dosing of the study drug.", "core": "R/C", "definition": "A text description of planned time points when measurements should be taken, as defined in the protocol.", "implementationNotes": "Planned time points are needed to differentiate multiple sequential assessments. It is recommended that time points should be pre-printed on the CRF rather than collected in a free-text field. If the form is laid out as a grid, then terms such as \"Planned Time Point\" can be included in the column heading.", "label": "PK Sampling Planned Time Point Name", "mappingInstructions": "Maps directly to the SDTMIG variable listed in the SDTMIG Target column. See the SDTMIG for additional information on representing time points. The SDTMIG time-point anchors PCTPTREF (text description) and PCRFTDTC (date/time) may be needed, as well as SDTMIG variables PCTPTNUM, PCELTM.", "name": "PCTPT", "ordinal": "12", "prompt": "[Planned Time Point Name]", "questionText": "What was the planned time point of the PK sample collection?", "simpleDatatype": "Char"}, {"_links": {"codelist": [{"href": "/mdr/root/ct/sdtmct/codelists/C66742", "title": "Version-agnostic anchor resource for codelist C66742", "type": "Root Value Domain"}], "parentProduct": {"href": "/mdr/cdashig/2-2", "title": "Clinical Data Acquisition Standards Harmonization Implementation Guide for Human Clinical Trials Version 2.2", "type": "Implementation Guide"}, "parentScenario": {"href": "/mdr/cdashig/2-2/scenarios/PC.FixedTimePoints", "title": "PK Sample Collection at Fixed Time Points", "type": "CDASH Scenario"}, "priorVersion": {"href": "/mdr/cdashig/2-1/scenarios/PC.FixedTimePoints/fields/PCFAST", "title": "PK Sampling Fasting Status", "type": "Data Collection Field"}, "rootItem": {"href": "/mdr/root/cdashig/scenarios/PC.FixedTimePoints/fields/PCFAST", "title": "Version-agnostic anchor element for scenario field Fixed Time Points.PCFAST", "type": "Root Data Element"}, "sdtmigDatasetMappingTargets": [{"href": "/mdr/sdtmig/3-3/datasets/PC/variables/PCFAST", "title": "Fasting Status", "type": "SDTM Dataset Variable"}], "self": {"href": "/mdr/cdashig/2-2/scenarios/PC.FixedTimePoints/fields/PCFAST", "title": "PK Sampling Fasting Status", "type": "Data Collection Field"}}, "completionInstructions": "Record whether the subject was fasting prior to the test being performed.", "core": "R/C", "definition": "An indication that the subject has abstained from food/water for the specified amount of time.", "implementationNotes": "Results may be affected by whether the subject was fasting. Some study treatments may have a food effect, and it is important to know whether the dose was taken after the subject had fasted.", "label": "PK Sampling Fasting Status", "mappingInstructions": "Maps directly to the SDTMIG variable listed in the SDTMIG Target column.", "name": "PCFAST", "ordinal": "13", "prompt": "Fasting", "questionText": "Was the subject fasting?", "simpleDatatype": "Char"}, {"_links": {"codelist": [{"href": "/mdr/root/ct/sdtmct/codelists/C66742", "title": "Version-agnostic anchor resource for codelist C66742", "type": "Root Value Domain"}], "parentProduct": {"href": "/mdr/cdashig/2-2", "title": "Clinical Data Acquisition Standards Harmonization Implementation Guide for Human Clinical Trials Version 2.2", "type": "Implementation Guide"}, "parentScenario": {"href": "/mdr/cdashig/2-2/scenarios/PC.FixedTimePoints", "title": "PK Sample Collection at Fixed Time Points", "type": "CDASH Scenario"}, "priorVersion": {"href": "/mdr/cdashig/2-1/scenarios/PC.FixedTimePoints/fields/PCCOND", "title": "PK Sampling Test Condition Met", "type": "Data Collection Field"}, "rootItem": {"href": "/mdr/root/cdashig/scenarios/PC.FixedTimePoints/fields/PCCOND", "title": "Version-agnostic anchor element for scenario field Fixed Time Points.PCCOND", "type": "Root Data Element"}, "sdtmigDatasetMappingTargets": [{"href": "/mdr/sdtmig/3-3/datasets/SUPPQUAL/variables/QVAL", "title": "Data Value", "type": "SDTM Dataset Variable"}], "self": {"href": "/mdr/cdashig/2-2/scenarios/PC.FixedTimePoints/fields/PCCOND", "title": "PK Sampling Test Condition Met", "type": "Data Collection Field"}}, "completionInstructions": "Record whether protocol-defined testing conditions were met.", "core": "R/C", "definition": "Indication of whether the testing conditions defined in the protocol were met (e.g., low-fat diet).", "implementationNotes": "This information is collected when the test results may be affected by whether conditions for testing were properly met. The specific testing conditions required should be pre-printed on the CRF (e.g., \"Did subject meet diet requirements?\"). This may not be relevant for all tests. Examples of conditions imposed may include calorie fast, fluid fast, high-fat meal, low-fat meal, and exercise.", "label": "PK Sampling Test Condition Met", "mappingInstructions": "This does not map directly to an SDTMIG variable. This information could be submitted in a SUPPPC dataset as the value of SUPPPC.QVAL where SUPPPC.QNAM =\"PCCOND\" and SUPP.PCLABEL= \"Test Condition Met\". Refer to the current SDTM and SDTMIG for instructions on placement of non-standard variables in SDTM domains.", "name": "PCCOND", "ordinal": "14", "prompt": "Test Condition Met", "questionText": "Were the protocol-defined testing conditions met?", "simpleDatatype": "Char"}, {"_links": {"parentProduct": {"href": "/mdr/cdashig/2-2", "title": "Clinical Data Acquisition Standards Harmonization Implementation Guide for Human Clinical Trials Version 2.2", "type": "Implementation Guide"}, "parentScenario": {"href": "/mdr/cdashig/2-2/scenarios/PC.FixedTimePoints", "title": "PK Sample Collection at Fixed Time Points", "type": "CDASH Scenario"}, "priorVersion": {"href": "/mdr/cdashig/2-1/scenarios/PC.FixedTimePoints/fields/PCREFID", "title": "PK Sampling Reference ID", "type": "Data Collection Field"}, "rootItem": {"href": "/mdr/root/cdashig/scenarios/PC.FixedTimePoints/fields/PCREFID", "title": "Version-agnostic anchor element for scenario field Fixed Time Points.PCREFID", "type": "Root Data Element"}, "sdtmigDatasetMappingTargets": [{"href": "/mdr/sdtmig/3-3/datasets/PC/variables/PCREFID", "title": "Reference ID", "type": "SDTM Dataset Variable"}], "self": {"href": "/mdr/cdashig/2-2/scenarios/PC.FixedTimePoints/fields/PCREFID", "title": "PK Sampling Reference ID", "type": "Data Collection Field"}}, "completionInstructions": "Record the specimen or accession number assigned.", "core": "O", "definition": "An internal or external identifier (e.g., specimen identifier).", "implementationNotes": "This can be used to reconcile CRF data. May be included for linking back to specimens (e.g., Specimen ID).", "label": "PK Sampling Reference ID", "mappingInstructions": "Maps directly to the SDTMIG variable listed in the SDTMIG Target column. May be used to create RELREC to link this record with a record in another domain.", "name": "PCREFID", "ordinal": "15", "prompt": "(PK) [Reference Identifier/Accession Number]", "questionText": "What was the (PK) [reference identifier/accession number]?", "simpleDatatype": "Char"}, {"_links": {"codelist": [{"href": "/mdr/root/ct/sdtmct/codelists/C78734", "title": "Version-agnostic anchor resource for codelist C78734", "type": "Root Value Domain"}], "parentProduct": {"href": "/mdr/cdashig/2-2", "title": "Clinical Data Acquisition Standards Harmonization Implementation Guide for Human Clinical Trials Version 2.2", "type": "Implementation Guide"}, "parentScenario": {"href": "/mdr/cdashig/2-2/scenarios/PC.FixedTimePoints", "title": "PK Sample Collection at Fixed Time Points", "type": "CDASH Scenario"}, "priorVersion": {"href": "/mdr/cdashig/2-1/scenarios/PC.FixedTimePoints/fields/PCSPEC", "title": "PK Sampling Specimen Type", "type": "Data Collection Field"}, "rootItem": {"href": "/mdr/root/cdashig/scenarios/PC.FixedTimePoints/fields/PCSPEC", "title": "Version-agnostic anchor element for scenario field Fixed Time Points.PCSPEC", "type": "Root Data Element"}, "sdtmigDatasetMappingTargets": [{"href": "/mdr/sdtmig/3-3/datasets/PC/variables/PCSPEC", "title": "Specimen Material Type", "type": "SDTM Dataset Variable"}], "self": {"href": "/mdr/cdashig/2-2/scenarios/PC.FixedTimePoints/fields/PCSPEC", "title": "PK Sampling Specimen Type", "type": "Data Collection Field"}}, "completionInstructions": "Record the specimen material type, if not pre-printed on the CRF.", "core": "HR", "definition": "The type of specimen used for a PK sample.", "implementationNotes": "The type of specimen used for a measure. Should be collected if not available elsewhere, or if required to differentiate multiple specimens.", "label": "PK Sampling Specimen Type", "mappingInstructions": "Maps directly to the SDTMIG variable listed in the SDTMIG Target column.", "name": "PCSPEC", "ordinal": "16", "prompt": "[Specimen Type]", "questionText": "What was the specimen (material) type?", "simpleDatatype": "Char"}, {"_links": {"parentProduct": {"href": "/mdr/cdashig/2-2", "title": "Clinical Data Acquisition Standards Harmonization Implementation Guide for Human Clinical Trials Version 2.2", "type": "Implementation Guide"}, "parentScenario": {"href": "/mdr/cdashig/2-2/scenarios/PC.FixedTimePoints", "title": "PK Sample Collection at Fixed Time Points", "type": "CDASH Scenario"}, "priorVersion": {"href": "/mdr/cdashig/2-1/scenarios/PC.FixedTimePoints/fields/PCTEST", "title": "PK Sampling Test Name", "type": "Data Collection Field"}, "rootItem": {"href": "/mdr/root/cdashig/scenarios/PC.FixedTimePoints/fields/PCTEST", "title": "Version-agnostic anchor element for scenario field Fixed Time Points.PCTEST", "type": "Root Data Element"}, "sdtmigDatasetMappingTargets": [{"href": "/mdr/sdtmig/3-3/datasets/PC/variables/PCTEST", "title": "Pharmacokinetic Test Name", "type": "SDTM Dataset Variable"}, {"href": "/mdr/sdtmig/3-3/datasets/PC/variables/PCTESTCD", "title": "Pharmacokinetic Test Short Name", "type": "SDTM Dataset Variable"}], "self": {"href": "/mdr/cdashig/2-2/scenarios/PC.FixedTimePoints/fields/PCTEST", "title": "PK Sampling Test Name", "type": "Data Collection Field"}}, "completionInstructions": "Record the name of the measurement or finding, if not pre-printed on the CRF. If collected on the CRF, the sponsor may provide additional instructions to ensure the data is entered as intended.", "core": "O", "definition": "Descriptive name of the analyte or specimen characteristics used to obtain the PK measurement or finding.", "implementationNotes": "Sponsors typically collect tests related to the specimen characteristics on the CRF (e.g., Volume, Ph). Results for tests on an analyte (e.g., Concentration) would typically be populated when creating SDTM-based datasets. If the analyte test results are collected on the CRF, the test would be the analyte name. It is recommended that the test names be pre-printed on the CRF rather than collected in a free-text field. If the form is laid out as a grid, then words such as \"Test\" can be included in the column heading.", "label": "PK Sampling Test Name", "mappingInstructions": "Maps directly to the SDTMIG variable listed in the SDTMIG Target column. The SDTMIG variable PCTESTCD may be determined from the value collected in PCTEST. The SDTMIG variables PCTESTCD and PCTEST are required in the SDTM submission datasets. Use appropriate CDISC Controlled Terminology for the test and test code.", "name": "PCTEST", "ordinal": "17", "prompt": "[Test Name]", "questionText": "What was the test name?", "simpleDatatype": "Char"}, {"_links": {"parentProduct": {"href": "/mdr/cdashig/2-2", "title": "Clinical Data Acquisition Standards Harmonization Implementation Guide for Human Clinical Trials Version 2.2", "type": "Implementation Guide"}, "parentScenario": {"href": "/mdr/cdashig/2-2/scenarios/PC.FixedTimePoints", "title": "PK Sample Collection at Fixed Time Points", "type": "CDASH Scenario"}, "priorVersion": {"href": "/mdr/cdashig/2-1/scenarios/PC.FixedTimePoints/fields/PCORRES", "title": "PK Sampling Result in Original Units", "type": "Data Collection Field"}, "rootItem": {"href": "/mdr/root/cdashig/scenarios/PC.FixedTimePoints/fields/PCORRES", "title": "Version-agnostic anchor element for scenario field Fixed Time Points.PCORRES", "type": "Root Data Element"}, "sdtmigDatasetMappingTargets": [{"href": "/mdr/sdtmig/3-3/datasets/PC/variables/PCORRES", "title": "Result or Finding in Original Units", "type": "SDTM Dataset Variable"}], "self": {"href": "/mdr/cdashig/2-2/scenarios/PC.FixedTimePoints/fields/PCORRES", "title": "PK Sampling Result in Original Units", "type": "Data Collection Field"}}, "completionInstructions": "Record the test result, interpretation, or finding.", "core": "O", "definition": "Result of the measurement or finding as originally received or collected.", "implementationNotes": "Should be pre-printed on the CRF with the associated test when possible, rather than collected in a free-text field.", "label": "PK Sampling Result in Original Units", "mappingInstructions": "Maps directly to the SDTMIG variable listed in the SDTMIG Target column.", "name": "PCORRES", "ordinal": "18", "prompt": "(Result)", "questionText": "What was the result of the test?", "simpleDatatype": "Char"}, {"_links": {"codelist": [{"href": "/mdr/root/ct/sdtmct/codelists/C71620", "title": "Version-agnostic anchor resource for codelist C71620", "type": "Root Value Domain"}], "parentProduct": {"href": "/mdr/cdashig/2-2", "title": "Clinical Data Acquisition Standards Harmonization Implementation Guide for Human Clinical Trials Version 2.2", "type": "Implementation Guide"}, "parentScenario": {"href": "/mdr/cdashig/2-2/scenarios/PC.FixedTimePoints", "title": "PK Sample Collection at Fixed Time Points", "type": "CDASH Scenario"}, "priorVersion": {"href": "/mdr/cdashig/2-1/scenarios/PC.FixedTimePoints/fields/PCORRESU", "title": "PK Sampling Original Units", "type": "Data Collection Field"}, "rootItem": {"href": "/mdr/root/cdashig/scenarios/PC.FixedTimePoints/fields/PCORRESU", "title": "Version-agnostic anchor element for scenario field Fixed Time Points.PCORRESU", "type": "Root Data Element"}, "sdtmigDatasetMappingTargets": [{"href": "/mdr/sdtmig/3-3/datasets/PC/variables/PCORRESU", "title": "Original Units", "type": "SDTM Dataset Variable"}], "self": {"href": "/mdr/cdashig/2-2/scenarios/PC.FixedTimePoints/fields/PCORRESU", "title": "PK Sampling Original Units", "type": "Data Collection Field"}}, "completionInstructions": "Select the original unit in which these data were collected, or record if not pre-printed on CRF.", "core": "O", "definition": "The unit of the result as originally received or collected.", "implementationNotes": "Should be pre-printed on the CRF with the associated test when possible, rather than collected in a free-text field.", "label": "PK Sampling Original Units", "mappingInstructions": "Maps directly to the SDTMIG variable listed in the SDTMIG Target column.", "name": "PCORRESU", "ordinal": "19", "prompt": "Unit", "questionText": "What was the unit of the result?", "simpleDatatype": "Char"}], "ordinal": "1", "scenario": "PK Sample Collection at Fixed Time Points"}
