{"_links": {"parentClass": {"href": "/mdr/cdashig/2-2/classes/Findings", "title": "Findings", "type": "Class"}, "parentDomain": {"href": "/mdr/cdashig/2-2/domains/PE", "title": "Physical Examination", "type": "CDASH Domain"}, "parentProduct": {"href": "/mdr/cdashig/2-2", "title": "Clinical Data Acquisition Standards Harmonization Implementation Guide for Human Clinical Trials Version 2.2", "type": "Implementation Guide"}, "priorVersion": {"href": "/mdr/cdashig/2-1/scenarios/PE.Traditional", "title": "PE-Traditional", "type": "CDASH Scenario"}, "self": {"href": "/mdr/cdashig/2-2/scenarios/PE.Traditional", "title": "PE-Traditional", "type": "CDASH Scenario"}}, "domain": "Physical Examination", "domainName": "PE", "fields": [{"_links": {"parentProduct": {"href": "/mdr/cdashig/2-2", "title": "Clinical Data Acquisition Standards Harmonization Implementation Guide for Human Clinical Trials Version 2.2", "type": "Implementation Guide"}, "parentScenario": {"href": "/mdr/cdashig/2-2/scenarios/PE.Traditional", "title": "PE-Traditional", "type": "CDASH Scenario"}, "priorVersion": {"href": "/mdr/cdashig/2-1/scenarios/PE.Traditional/fields/STUDYID", "title": "Study Identifier", "type": "Data Collection Field"}, "rootItem": {"href": "/mdr/root/cdashig/scenarios/PE.Traditional/fields/STUDYID", "title": "Version-agnostic anchor element for scenario field Traditional.STUDYID", "type": "Root Data Element"}, "sdtmigDatasetMappingTargets": [{"href": "/mdr/sdtmig/3-3/datasets/PE/variables/STUDYID", "title": "Study Identifier", "type": "SDTM Dataset Variable"}], "self": {"href": "/mdr/cdashig/2-2/scenarios/PE.Traditional/fields/STUDYID", "title": "Study Identifier", "type": "Data Collection Field"}}, "core": "HR", "definition": "A unique identifier for a study.", "implementationNotes": "Although this field is not typically captured on a CRF, it should be displayed clearly on the CRF and/or in the EDC system. This field can be included in the database or populated during SDTM-based dataset creation before submission.", "label": "Study Identifier", "mappingInstructions": "Maps directly to the SDTMIG variable listed in the SDTMIG Target column.", "name": "STUDYID", "ordinal": "1", "prompt": "[Protocol/Study]", "questionText": "What is the study identifier?", "simpleDatatype": "Char"}, {"_links": {"parentProduct": {"href": "/mdr/cdashig/2-2", "title": "Clinical Data Acquisition Standards Harmonization Implementation Guide for Human Clinical Trials Version 2.2", "type": "Implementation Guide"}, "parentScenario": {"href": "/mdr/cdashig/2-2/scenarios/PE.Traditional", "title": "PE-Traditional", "type": "CDASH Scenario"}, "priorVersion": {"href": "/mdr/cdashig/2-1/scenarios/PE.Traditional/fields/SITEID", "title": "Study Site Identifier", "type": "Data Collection Field"}, "rootItem": {"href": "/mdr/root/cdashig/scenarios/PE.Traditional/fields/SITEID", "title": "Version-agnostic anchor element for scenario field Traditional.SITEID", "type": "Root Data Element"}, "sdtmigDatasetMappingTargets": [{"href": "/mdr/sdtmig/3-3/datasets/DM/variables/SITEID", "title": "Study Site Identifier", "type": "SDTM Dataset Variable"}], "self": {"href": "/mdr/cdashig/2-2/scenarios/PE.Traditional/fields/SITEID", "title": "Study Site Identifier", "type": "Data Collection Field"}}, "core": "HR", "definition": "A unique identifier for a site within a study.", "implementationNotes": "Paper: This is typically pre-printed in the header of each CRF page for single-site studies. For studies with multiple sites, this field may be left blank so that the number can be recorded by the site, or it may be pre-printed on the CRFs that are shipped to each site. \\n EDC: This should be pre-populated.", "label": "Study Site Identifier", "mappingInstructions": "Maps directly to the SDTMIG variable listed in the SDTMIG Target column.", "name": "SITEID", "ordinal": "2", "prompt": "Site (Identifier)", "questionText": "What is the site identifier?", "simpleDatatype": "Char"}, {"_links": {"parentProduct": {"href": "/mdr/cdashig/2-2", "title": "Clinical Data Acquisition Standards Harmonization Implementation Guide for Human Clinical Trials Version 2.2", "type": "Implementation Guide"}, "parentScenario": {"href": "/mdr/cdashig/2-2/scenarios/PE.Traditional", "title": "PE-Traditional", "type": "CDASH Scenario"}, "priorVersion": {"href": "/mdr/cdashig/2-1/scenarios/PE.Traditional/fields/SUBJID", "title": "Subject Identifier for the Study", "type": "Data Collection Field"}, "rootItem": {"href": "/mdr/root/cdashig/scenarios/PE.Traditional/fields/SUBJID", "title": "Version-agnostic anchor element for scenario field Traditional.SUBJID", "type": "Root Data Element"}, "sdtmigDatasetMappingTargets": [{"href": "/mdr/sdtmig/3-3/datasets/DM/variables/SUBJID", "title": "Subject Identifier for the Study", "type": "SDTM Dataset Variable"}], "self": {"href": "/mdr/cdashig/2-2/scenarios/PE.Traditional/fields/SUBJID", "title": "Subject Identifier for the Study", "type": "Data Collection Field"}}, "completionInstructions": "Record the identifier for the subject.", "core": "HR", "definition": "A unique subject identifier within a site and a study.", "implementationNotes": "Paper: This is typically recorded in the header of each CRF page. EDC: The subject identifiers may be system-generated. This CDASH variable is typically collected in all CDASH domains. However, this CDASH variable is populated only in the SDTMIG DM domain. For more information, refer to the SDTMIG.", "label": "Subject Identifier for the Study", "mappingInstructions": "Maps directly to the SDTMIG variable listed in the SDTMIG Target column.", "name": "SUBJID", "ordinal": "3", "prompt": "[Subject/Participant] (Identifier)", "questionText": "What [is/was] the (study) [subject/participant] identifier?", "simpleDatatype": "Char"}, {"_links": {"parentProduct": {"href": "/mdr/cdashig/2-2", "title": "Clinical Data Acquisition Standards Harmonization Implementation Guide for Human Clinical Trials Version 2.2", "type": "Implementation Guide"}, "parentScenario": {"href": "/mdr/cdashig/2-2/scenarios/PE.Traditional", "title": "PE-Traditional", "type": "CDASH Scenario"}, "priorVersion": {"href": "/mdr/cdashig/2-1/scenarios/PE.Traditional/fields/VISIT", "title": "Visit Name", "type": "Data Collection Field"}, "rootItem": {"href": "/mdr/root/cdashig/scenarios/PE.Traditional/fields/VISIT", "title": "Version-agnostic anchor element for scenario field Traditional.VISIT", "type": "Root Data Element"}, "sdtmigDatasetMappingTargets": [{"href": "/mdr/sdtmig/3-3/datasets/PE/variables/VISIT", "title": "Visit Name", "type": "SDTM Dataset Variable"}], "self": {"href": "/mdr/cdashig/2-2/scenarios/PE.Traditional/fields/VISIT", "title": "Visit Name", "type": "Data Collection Field"}}, "core": "R/C", "definition": "The name of a clinical encounter that encompasses planned and unplanned trial interventions, procedures, and assessments that may be performed on a subject.", "implementationNotes": "The name of the clinical encounter is typically pre-printed or displayed within the EDC for any visit-based data collection, most often in Findings domains. This Visit text description is then available in any EDC data extract for that Findings domain.", "label": "Visit Name", "mappingInstructions": "Maps directly to the SDTMIG variable listed in the SDTMIG Target column.", "name": "VISIT", "ordinal": "4", "prompt": "[Visit]", "questionText": "What is the visit name?", "simpleDatatype": "Char"}, {"_links": {"parentProduct": {"href": "/mdr/cdashig/2-2", "title": "Clinical Data Acquisition Standards Harmonization Implementation Guide for Human Clinical Trials Version 2.2", "type": "Implementation Guide"}, "parentScenario": {"href": "/mdr/cdashig/2-2/scenarios/PE.Traditional", "title": "PE-Traditional", "type": "CDASH Scenario"}, "priorVersion": {"href": "/mdr/cdashig/2-1/scenarios/PE.Traditional/fields/VISDAT", "title": "Visit Date", "type": "Data Collection Field"}, "rootItem": {"href": "/mdr/root/cdashig/scenarios/PE.Traditional/fields/VISDAT", "title": "Version-agnostic anchor element for scenario field Traditional.VISDAT", "type": "Root Data Element"}, "self": {"href": "/mdr/cdashig/2-2/scenarios/PE.Traditional/fields/VISDAT", "title": "Visit Date", "type": "Data Collection Field"}}, "completionInstructions": "Record the [date/start date] of the visit using this format (DD-MON-YYYY).", "core": "R/C", "definition": "Date the clinical encounter occurred (or started).", "implementationNotes": "The date of the physical examination can be determined from the visit date variable (VISDAT) and applying that date to all of the physical examination findings at that visit, or the collection date can be included collected on the PE CRF using the date (PEDAT) field.", "label": "Visit Date", "mappingInstructions": "This field is not an SDTM variable. The date of a measurement, test, observation can be determined from the date/time of visit (VISDAT/VISTIM) and then concatenating the CDASH VISDAT/VISTIM components and populating the SDTMIG variable PEDTC in ISO 8601 format.", "name": "VISDAT", "ordinal": "5", "prompt": "(Visit) Date", "questionText": "What [is/was] the date of the visit?", "simpleDatatype": "Char"}, {"_links": {"codelist": [{"href": "/mdr/root/ct/sdtmct/codelists/C66742", "title": "Version-agnostic anchor resource for codelist C66742", "type": "Root Value Domain"}], "parentProduct": {"href": "/mdr/cdashig/2-2", "title": "Clinical Data Acquisition Standards Harmonization Implementation Guide for Human Clinical Trials Version 2.2", "type": "Implementation Guide"}, "parentScenario": {"href": "/mdr/cdashig/2-2/scenarios/PE.Traditional", "title": "PE-Traditional", "type": "CDASH Scenario"}, "priorVersion": {"href": "/mdr/cdashig/2-1/scenarios/PE.Traditional/fields/PEPERF", "title": "Physical Examination Performed", "type": "Data Collection Field"}, "rootItem": {"href": "/mdr/root/cdashig/scenarios/PE.Traditional/fields/PEPERF", "title": "Version-agnostic anchor element for scenario field Traditional.PEPERF", "type": "Root Data Element"}, "sdtmigDatasetMappingTargets": [{"href": "/mdr/sdtmig/3-3/datasets/PE/variables/PESTAT", "title": "Completion Status", "type": "SDTM Dataset Variable"}], "self": {"href": "/mdr/cdashig/2-2/scenarios/PE.Traditional/fields/PEPERF", "title": "Physical Examination Performed", "type": "Data Collection Field"}}, "completionInstructions": "If the physical examination was performed as planned, select Yes; otherwise, select No.", "core": "O", "definition": "An indication of whether a planned physical examination was performed.", "implementationNotes": "This general prompt question is used as a data management tool to verify that missing results are confirmed missing. Used to ask if the physical exam was performed at the overall subject level at the specified time point. If this field is used, the result should only be mapped to PESTAT if the overall examination (at the subject level) was not performed. If the overall examination was performed, then the value of PESTAT would be null for each examined body systems and \"NOT DONE\" for any body systems not examined (see PERES).", "label": "Physical Examination Performed", "mappingInstructions": "This does not map directly to an SDTMIG variable. May be used to derive a value into the SDTMIG variable PESTAT. If PEPERF=\"N\" the value of PESTAT=\"NOT DONE\". If PEPERF=\"Y\", then the actual physical exam results would be reported by body system (see PERES). PECAT, PESCAT, PETEST and PETESTCD must reflect what tests were not done. If used for an entire CRF or other set of multiple tests with PECAT and PESCAT, PETESTCD=PEALL.", "name": "PEPERF", "ordinal": "6", "prompt": "Physical Exam Performed", "questionText": "Was the physical examination performed?", "simpleDatatype": "Char"}, {"_links": {"parentProduct": {"href": "/mdr/cdashig/2-2", "title": "Clinical Data Acquisition Standards Harmonization Implementation Guide for Human Clinical Trials Version 2.2", "type": "Implementation Guide"}, "parentScenario": {"href": "/mdr/cdashig/2-2/scenarios/PE.Traditional", "title": "PE-Traditional", "type": "CDASH Scenario"}, "priorVersion": {"href": "/mdr/cdashig/2-1/scenarios/PE.Traditional/fields/PECAT", "title": "Category for Examination", "type": "Data Collection Field"}, "rootItem": {"href": "/mdr/root/cdashig/scenarios/PE.Traditional/fields/PECAT", "title": "Version-agnostic anchor element for scenario field Traditional.PECAT", "type": "Root Data Element"}, "sdtmigDatasetMappingTargets": [{"href": "/mdr/sdtmig/3-3/datasets/PE/variables/PECAT", "title": "Category for Examination", "type": "SDTM Dataset Variable"}], "self": {"href": "/mdr/cdashig/2-2/scenarios/PE.Traditional/fields/PECAT", "title": "Category for Examination", "type": "Data Collection Field"}}, "completionInstructions": "Select the physical examination category, or record if not pre-printed on the CRF.", "core": "O", "definition": "A grouping of topic-variable values based on user-defined characteristics.", "implementationNotes": "Sponsor-defined controlled terminology. The CRF can capture different types of physical exams using PECAT (e.g., GENERAL, OPHTHAMOLOGIC, NEUROLOGICAL). This may be pre-printed on the CRF. If PECAT is not collected (e.g., it is evident from the protocol design), it could be populated when creating SDTM-based datasets.", "label": "Category for Examination", "mappingInstructions": "Maps directly to the SDTMIG variable listed in the SDTMIG Target column.", "name": "PECAT", "ordinal": "7", "prompt": "[PE Category]; NULL", "questionText": "What was the category of the physical examination?", "simpleDatatype": "Char"}, {"_links": {"parentProduct": {"href": "/mdr/cdashig/2-2", "title": "Clinical Data Acquisition Standards Harmonization Implementation Guide for Human Clinical Trials Version 2.2", "type": "Implementation Guide"}, "parentScenario": {"href": "/mdr/cdashig/2-2/scenarios/PE.Traditional", "title": "PE-Traditional", "type": "CDASH Scenario"}, "priorVersion": {"href": "/mdr/cdashig/2-1/scenarios/PE.Traditional/fields/PESCAT", "title": "Subcategory for Examination", "type": "Data Collection Field"}, "rootItem": {"href": "/mdr/root/cdashig/scenarios/PE.Traditional/fields/PESCAT", "title": "Version-agnostic anchor element for scenario field Traditional.PESCAT", "type": "Root Data Element"}, "sdtmigDatasetMappingTargets": [{"href": "/mdr/sdtmig/3-3/datasets/PE/variables/PESCAT", "title": "Subcategory for Examination", "type": "SDTM Dataset Variable"}], "self": {"href": "/mdr/cdashig/2-2/scenarios/PE.Traditional/fields/PESCAT", "title": "Subcategory for Examination", "type": "Data Collection Field"}}, "completionInstructions": "Select the physical examination subcategory, or record if not pre-printed on the CRF.", "core": "O", "definition": "A sub-division of the PECAT values based on user-defined characteristics.", "implementationNotes": "Sponsor-defined controlled terminology. The CRF can capture the different subtypes of PE categories using PESCAT. This may be pre-printed on the CRF. If PESCAT is not collected (e.g. it is evident from the protocol design), it could be populated when creating SDTM-based datasets. PESCAT can only be used if there is a PECAT, and it must be a subcategorization of PECAT.", "label": "Subcategory for Examination", "mappingInstructions": "Maps directly to the SDTMIG variable listed in the SDTMIG Target column.", "name": "PESCAT", "ordinal": "8", "prompt": "[PE Subcategory]; NULL", "questionText": "What was subcategory of the physical examination?", "simpleDatatype": "Char"}, {"_links": {"parentProduct": {"href": "/mdr/cdashig/2-2", "title": "Clinical Data Acquisition Standards Harmonization Implementation Guide for Human Clinical Trials Version 2.2", "type": "Implementation Guide"}, "parentScenario": {"href": "/mdr/cdashig/2-2/scenarios/PE.Traditional", "title": "PE-Traditional", "type": "CDASH Scenario"}, "priorVersion": {"href": "/mdr/cdashig/2-1/scenarios/PE.Traditional/fields/PEDAT", "title": "Physical Examination Date", "type": "Data Collection Field"}, "rootItem": {"href": "/mdr/root/cdashig/scenarios/PE.Traditional/fields/PEDAT", "title": "Version-agnostic anchor element for scenario field Traditional.PEDAT", "type": "Root Data Element"}, "sdtmigDatasetMappingTargets": [{"href": "/mdr/sdtmig/3-3/datasets/PE/variables/PEDTC", "title": "Date/Time of Examination", "type": "SDTM Dataset Variable"}], "self": {"href": "/mdr/cdashig/2-2/scenarios/PE.Traditional/fields/PEDAT", "title": "Physical Examination Date", "type": "Data Collection Field"}}, "completionInstructions": "Record complete date of examination using this format (DD-MON-YYYY).", "core": "R/C", "definition": "The date when the physical examination was performed, represented in an unambiguous date format (e.g., DD-MON-YYYY).", "implementationNotes": "The date of examination may be determined from the date of the visit (VISDAT); if so, a separate assessment date field is not required.", "label": "Physical Examination Date", "mappingInstructions": "This does not map directly to an SDTMIG variable. For the SDTM submission dataset, concatenate all collected CDASH DATE and TIME components and populate the SDTMIG variable PEDTC in ISO 8601 format.", "name": "PEDAT", "ordinal": "9", "prompt": "Exam Date", "questionText": "What was the date of the physical examination?", "simpleDatatype": "Char"}, {"_links": {"parentProduct": {"href": "/mdr/cdashig/2-2", "title": "Clinical Data Acquisition Standards Harmonization Implementation Guide for Human Clinical Trials Version 2.2", "type": "Implementation Guide"}, "parentScenario": {"href": "/mdr/cdashig/2-2/scenarios/PE.Traditional", "title": "PE-Traditional", "type": "CDASH Scenario"}, "priorVersion": {"href": "/mdr/cdashig/2-1/scenarios/PE.Traditional/fields/PETIM", "title": "Physical Examination Time", "type": "Data Collection Field"}, "rootItem": {"href": "/mdr/root/cdashig/scenarios/PE.Traditional/fields/PETIM", "title": "Version-agnostic anchor element for scenario field Traditional.PETIM", "type": "Root Data Element"}, "sdtmigDatasetMappingTargets": [{"href": "/mdr/sdtmig/3-3/datasets/PE/variables/PEDTC", "title": "Date/Time of Examination", "type": "SDTM Dataset Variable"}], "self": {"href": "/mdr/cdashig/2-2/scenarios/PE.Traditional/fields/PETIM", "title": "Physical Examination Time", "type": "Data Collection Field"}}, "completionInstructions": "Record the time of examination (as complete as possible).", "core": "O", "definition": "The time of examination, represented in an unambiguous time format (e.g., hh:mm:ss).", "implementationNotes": "Collect time if it is relevant for the analysis.", "label": "Physical Examination Time", "mappingInstructions": "This does not map directly to an SDTMIG variable. For the SDTM submission dataset, concatenate all collected CDASH DATE and TIME components and populate the SDTMIG variable PEDTC in ISO 8601 format.", "name": "PETIM", "ordinal": "10", "prompt": "Exam Time", "questionText": "What was the time of the physical examination?", "simpleDatatype": "Char"}, {"_links": {"parentProduct": {"href": "/mdr/cdashig/2-2", "title": "Clinical Data Acquisition Standards Harmonization Implementation Guide for Human Clinical Trials Version 2.2", "type": "Implementation Guide"}, "parentScenario": {"href": "/mdr/cdashig/2-2/scenarios/PE.Traditional", "title": "PE-Traditional", "type": "CDASH Scenario"}, "priorVersion": {"href": "/mdr/cdashig/2-1/scenarios/PE.Traditional/fields/PESPID", "title": "Physical Exam Sponsor-Defined Identifier", "type": "Data Collection Field"}, "rootItem": {"href": "/mdr/root/cdashig/scenarios/PE.Traditional/fields/PESPID", "title": "Version-agnostic anchor element for scenario field Traditional.PESPID", "type": "Root Data Element"}, "sdtmigDatasetMappingTargets": [{"href": "/mdr/sdtmig/3-3/datasets/PE/variables/PESPID", "title": "Sponsor-Defined Identifier", "type": "SDTM Dataset Variable"}], "self": {"href": "/mdr/cdashig/2-2/scenarios/PE.Traditional/fields/PESPID", "title": "Physical Exam Sponsor-Defined Identifier", "type": "Data Collection Field"}}, "completionInstructions": "If collected on the CRF, the sponsor may insert instructions to ensure each record has a unique identifier.", "core": "O", "definition": "A sponsor-defined identifier. In CDASH, this is typically used for pre-printed or auto-generated numbers on the CRF, or any other type of identifier that does not already have a defined CDASH identifier field.", "implementationNotes": "Because SPID is a sponsor-defined identifier, conformance to Question Text or Item Prompt is not applicable. Typically used as an identifier in a data query to communicate clearly to the site the specific record in question or to reconcile data. May be used to record pre-printed number (e.g. line number, record number) on the CRF. This field may be populated by the sponsor's data collection system.", "label": "Physical Exam Sponsor-Defined Identifier", "mappingInstructions": "Maps directly to the SDTMIG variable listed in the SDTMIG Target column. May be used to create RELREC to link this record with a record in another domain.", "name": "PESPID", "ordinal": "11", "prompt": "[Sponsor defined]", "questionText": "[Sponsor-defined question]", "simpleDatatype": "Char"}, {"_links": {"parentProduct": {"href": "/mdr/cdashig/2-2", "title": "Clinical Data Acquisition Standards Harmonization Implementation Guide for Human Clinical Trials Version 2.2", "type": "Implementation Guide"}, "parentScenario": {"href": "/mdr/cdashig/2-2/scenarios/PE.Traditional", "title": "PE-Traditional", "type": "CDASH Scenario"}, "priorVersion": {"href": "/mdr/cdashig/2-1/scenarios/PE.Traditional/fields/PETEST", "title": "Body System Examined", "type": "Data Collection Field"}, "rootItem": {"href": "/mdr/root/cdashig/scenarios/PE.Traditional/fields/PETEST", "title": "Version-agnostic anchor element for scenario field Traditional.PETEST", "type": "Root Data Element"}, "sdtmigDatasetMappingTargets": [{"href": "/mdr/sdtmig/3-3/datasets/PE/variables/PETEST", "title": "Body System Examined", "type": "SDTM Dataset Variable"}, {"href": "/mdr/sdtmig/3-3/datasets/PE/variables/PETESTCD", "title": "Body System Examined Short Name", "type": "SDTM Dataset Variable"}], "self": {"href": "/mdr/cdashig/2-2/scenarios/PE.Traditional/fields/PETEST", "title": "Body System Examined", "type": "Data Collection Field"}}, "completionInstructions": "Per protocol, perform physical examinations of specified body systems.", "core": "HR", "definition": "Name of the body system.", "implementationNotes": "Sponsors should preprint all body systems to be examined on the CRF. The use of a complete list of body systems eliminates the need for an Other, Specify category; any abnormalities identified would fall under 1 of the specified categories. If the form is laid out as a grid, then words such as \"Body System\" can be included in the column heading.", "label": "Body System Examined", "mappingInstructions": "Maps directly to the SDTMIG variable listed in the SDTMIG Target column. The SDTMIG variable PETESTCD may be determined from the value collected in PETEST.", "name": "PETEST", "ordinal": "12", "prompt": "[Body System]", "questionText": "What was the body system examined?", "simpleDatatype": "Char"}, {"_links": {"parentProduct": {"href": "/mdr/cdashig/2-2", "title": "Clinical Data Acquisition Standards Harmonization Implementation Guide for Human Clinical Trials Version 2.2", "type": "Implementation Guide"}, "parentScenario": {"href": "/mdr/cdashig/2-2/scenarios/PE.Traditional", "title": "PE-Traditional", "type": "CDASH Scenario"}, "priorVersion": {"href": "/mdr/cdashig/2-1/scenarios/PE.Traditional/fields/PERES", "title": "Physical Exam Verbatim Finding", "type": "Data Collection Field"}, "rootItem": {"href": "/mdr/root/cdashig/scenarios/PE.Traditional/fields/PERES", "title": "Version-agnostic anchor element for scenario field Traditional.PERES", "type": "Root Data Element"}, "sdtmigDatasetMappingTargets": [{"href": "/mdr/sdtmig/3-3/datasets/PE/variables/PEORRES", "title": "Verbatim Examination Finding", "type": "SDTM Dataset Variable"}], "self": {"href": "/mdr/cdashig/2-2/scenarios/PE.Traditional/fields/PERES", "title": "Physical Exam Verbatim Finding", "type": "Data Collection Field"}}, "completionInstructions": "Indicate the overall assessment for each exam category/body system listed.", "core": "HR", "definition": "Overall assessment of examined body system.", "implementationNotes": "If the examined body system is normal, then the value in PEORRES should be \"NORMAL\". If the body system is not examined, then the value in PEORRES should be Null and the value in PESTAT should be \"NOT DONE\". If the examined body system is abnormal, then the value of PEORRES should contain the text of the abnormal findings (PEDESC). If the sponsor's data collection system allows for up-front recording of the abnormality and status using a single variable, then the SDTM variable name PEORRES may be used in place of CDASH variable names PERES and PEDESC. When creating SDTM-based datasets, PESTRESC is the standardized value for PEORRES and is populated for any record where PEORRES is not null. If the abnormal findings are coded using a dictionary, then PESTRESC should be the dictionary preferred term; if not coded, PEORRES.", "label": "Physical Exam Verbatim Finding", "mappingInstructions": "This does not map directly to an SDTMIG variable. May be used to populate a value into the SDTMIG variable PEORRES. If PERES=\"Normal\", populate PEORRES with the value of PERES. If PERES=\"Abnormal\", populate PEORRES with the value of PEDESC.", "name": "PERES", "ordinal": "13", "prompt": "(Result)", "questionText": "Were the results normal, abnormal, or not done?", "simpleDatatype": "Char"}, {"_links": {"parentProduct": {"href": "/mdr/cdashig/2-2", "title": "Clinical Data Acquisition Standards Harmonization Implementation Guide for Human Clinical Trials Version 2.2", "type": "Implementation Guide"}, "parentScenario": {"href": "/mdr/cdashig/2-2/scenarios/PE.Traditional", "title": "PE-Traditional", "type": "CDASH Scenario"}, "priorVersion": {"href": "/mdr/cdashig/2-1/scenarios/PE.Traditional/fields/PEDESC", "title": "Physical Exam Abnormal Findings", "type": "Data Collection Field"}, "rootItem": {"href": "/mdr/root/cdashig/scenarios/PE.Traditional/fields/PEDESC", "title": "Version-agnostic anchor element for scenario field Traditional.PEDESC", "type": "Root Data Element"}, "sdtmigDatasetMappingTargets": [{"href": "/mdr/sdtmig/3-3/datasets/PE/variables/PEORRES", "title": "Verbatim Examination Finding", "type": "SDTM Dataset Variable"}], "self": {"href": "/mdr/cdashig/2-2/scenarios/PE.Traditional/fields/PEDESC", "title": "Physical Exam Abnormal Findings", "type": "Data Collection Field"}}, "completionInstructions": "Record all abnormal findings for the given body system in the space provided.", "core": "HR", "definition": "Text description of any abnormal findings.", "implementationNotes": "If the examined body system is normal, then the value in PEORRES should be \"NORMAL\". If the body system is not examined, then the value in PEORRES should be Null and the value in PESTAT should be \"NOT DONE\". If the examined body system is abnormal, then the value of PEORRES should contain the text of the abnormal findings (PEDESC). If the sponsor's data collection system allows for up-front recording of the abnormality and status using a single variable, then the SDTM variable name PEORRES may be used in place of CDASH variable names PERES and PEDESC.", "label": "Physical Exam Abnormal Findings", "mappingInstructions": "This does not map directly to an SDTMIG variable. May be used to populate a value into the SDTMIG variable PEORRES. If PERES=\"Normal\", populate PEORRES with the value of PERES. If PERES=\"Abnormal\", populate PEORRES with the value of PEDESC.", "name": "PEDESC", "ordinal": "14", "prompt": "Abnormal Findings", "questionText": "If the result was abnormal, what were the findings?", "simpleDatatype": "Char"}, {"_links": {"codelist": [{"href": "/mdr/root/ct/sdtmct/codelists/C66742", "title": "Version-agnostic anchor resource for codelist C66742", "type": "Root Value Domain"}], "parentProduct": {"href": "/mdr/cdashig/2-2", "title": "Clinical Data Acquisition Standards Harmonization Implementation Guide for Human Clinical Trials Version 2.2", "type": "Implementation Guide"}, "parentScenario": {"href": "/mdr/cdashig/2-2/scenarios/PE.Traditional", "title": "PE-Traditional", "type": "CDASH Scenario"}, "priorVersion": {"href": "/mdr/cdashig/2-1/scenarios/PE.Traditional/fields/PECLSIG", "title": "Physical Exam Clinical Significance \n", "type": "Data Collection Field"}, "rootItem": {"href": "/mdr/root/cdashig/scenarios/PE.Traditional/fields/PECLSIG", "title": "Version-agnostic anchor element for scenario field Traditional.PECLSIG", "type": "Root Data Element"}, "sdtmigDatasetMappingTargets": [{"href": "/mdr/sdtmig/3-3/datasets/SUPPQUAL/variables/QVAL", "title": "Data Value", "type": "SDTM Dataset Variable"}], "self": {"href": "/mdr/cdashig/2-2/scenarios/PE.Traditional/fields/PECLSIG", "title": "Physical Exam Clinical Significance", "type": "Data Collection Field"}}, "completionInstructions": "Was the physical examination result clinically significant? Select Yes or No.", "core": "O", "definition": "An indication of whether the physical examination abnormality is clinically significant.", "implementationNotes": "If this level of information is needed for reconciliation with adverse events, this field may be added to the CRF.", "label": "Physical Exam Clinical Significance", "mappingInstructions": "This does not map directly to an SDTMIG variable. This information could be submitted in a SUPPPE dataset as the value of SUPPPE.QVAL where SUPPPE.QNAM =\"PECLSIG\" and SUPPPE.QLABEL=\"Clinically Significant\". Refer to the current SDTM and SDTMIG for instructions on placement of non-standard variables in SDTM domains.", "name": "PECLSIG", "ordinal": "15", "prompt": "Clinically Significant", "questionText": "Was the physical examination result clinically significant?", "simpleDatatype": "Char"}, {"_links": {"codelist": [{"href": "/mdr/root/ct/sdtmct/codelists/C78735", "title": "Version-agnostic anchor resource for codelist C78735", "type": "Root Value Domain"}], "parentProduct": {"href": "/mdr/cdashig/2-2", "title": "Clinical Data Acquisition Standards Harmonization Implementation Guide for Human Clinical Trials Version 2.2", "type": "Implementation Guide"}, "parentScenario": {"href": "/mdr/cdashig/2-2/scenarios/PE.Traditional", "title": "PE-Traditional", "type": "CDASH Scenario"}, "priorVersion": {"href": "/mdr/cdashig/2-1/scenarios/PE.Traditional/fields/PEEVAL", "title": "Physical Exam Evaluator", "type": "Data Collection Field"}, "rootItem": {"href": "/mdr/root/cdashig/scenarios/PE.Traditional/fields/PEEVAL", "title": "Version-agnostic anchor element for scenario field Traditional.PEEVAL", "type": "Root Data Element"}, "sdtmigDatasetMappingTargets": [{"href": "/mdr/sdtmig/3-3/datasets/PE/variables/PEEVAL", "title": "Evaluator", "type": "SDTM Dataset Variable"}], "self": {"href": "/mdr/cdashig/2-2/scenarios/PE.Traditional/fields/PEEVAL", "title": "Physical Exam Evaluator", "type": "Data Collection Field"}}, "completionInstructions": "Select the role of the person who provided the evaluation (e.g., INVESTIGATOR, ADJUDICATION COMMITTEE, VENDOR).", "core": "O", "definition": "The role of the person who provided the evaluation.", "implementationNotes": "Used only for results that are subjective (e.g., assigned by a person or a group). May be pre-printed or collected. Sponsors may collect the data using a subset list of controlled terminology on the CRF.", "label": "Physical Exam Evaluator", "mappingInstructions": "Maps directly to the SDTMIG variable listed in the SDTMIG Target column.", "name": "PEEVAL", "ordinal": "16", "prompt": "[Evaluator/Reporter]", "questionText": "Who was the evaluator?", "simpleDatatype": "Char"}, {"_links": {"parentProduct": {"href": "/mdr/cdashig/2-2", "title": "Clinical Data Acquisition Standards Harmonization Implementation Guide for Human Clinical Trials Version 2.2", "type": "Implementation Guide"}, "parentScenario": {"href": "/mdr/cdashig/2-2/scenarios/PE.Traditional", "title": "PE-Traditional", "type": "CDASH Scenario"}, "priorVersion": {"href": "/mdr/cdashig/2-1/scenarios/PE.Traditional/fields/PEREASND", "title": "Physical Exam Reason Not Examined", "type": "Data Collection Field"}, "rootItem": {"href": "/mdr/root/cdashig/scenarios/PE.Traditional/fields/PEREASND", "title": "Version-agnostic anchor element for scenario field Traditional.PEREASND", "type": "Root Data Element"}, "sdtmigDatasetMappingTargets": [{"href": "/mdr/sdtmig/3-3/datasets/PE/variables/PEREASND", "title": "Reason Not Examined", "type": "SDTM Dataset Variable"}], "self": {"href": "/mdr/cdashig/2-2/scenarios/PE.Traditional/fields/PEREASND", "title": "Physical Exam Reason Not Examined", "type": "Data Collection Field"}}, "completionInstructions": "Provide the reason the assessment was not done.", "core": "O", "definition": "An explanation of why the data are not available.", "implementationNotes": "Captures the reason why the measurement or test was not done. The reason may be chosen from a sponsor-defined list (e.g., broken equipment, subject refused) or entered as free text.", "label": "Physical Exam Reason Not Examined", "mappingInstructions": "Maps directly to the SDTMIG variable listed in the SDTMIG Target column.", "name": "PEREASND", "ordinal": "17", "prompt": "Reason Not Done", "questionText": "What is the reason that data were not collected?", "simpleDatatype": "Char"}, {"_links": {"parentProduct": {"href": "/mdr/cdashig/2-2", "title": "Clinical Data Acquisition Standards Harmonization Implementation Guide for Human Clinical Trials Version 2.2", "type": "Implementation Guide"}, "parentScenario": {"href": "/mdr/cdashig/2-2/scenarios/PE.Traditional", "title": "PE-Traditional", "type": "CDASH Scenario"}, "priorVersion": {"href": "/mdr/cdashig/2-1/scenarios/PE.Traditional/fields/PEBODSYS", "title": "Body System or Organ Class", "type": "Data Collection Field"}, "rootItem": {"href": "/mdr/root/cdashig/scenarios/PE.Traditional/fields/PEBODSYS", "title": "Version-agnostic anchor element for scenario field Traditional.PEBODSYS", "type": "Root Data Element"}, "sdtmigDatasetMappingTargets": [{"href": "/mdr/sdtmig/3-3/datasets/PE/variables/PEBODSYS", "title": "Body System or Organ Class", "type": "SDTM Dataset Variable"}], "self": {"href": "/mdr/cdashig/2-2/scenarios/PE.Traditional/fields/PEBODSYS", "title": "Body System or Organ Class", "type": "Data Collection Field"}}, "core": "O", "definition": "Body system or organ class that is involved for a finding from the standard hierarchy for dictionary-coded results.", "implementationNotes": "PEBODSYS should be assigned using a coding system. If included on the CRF, it is prepopulated and must be paired by the sponsor with specific verbatim terms. If not included on the CRF, PEBODSYS is assigned through the coding process.", "label": "Body System or Organ Class", "mappingInstructions": "Maps directly to the SDTMIG variable listed in the SDTMIG Target column.", "name": "PEBODSYS", "ordinal": "18", "prompt": "[Body System/Organ System]", "questionText": "What is/was the [body system/ organ system]?", "simpleDatatype": "Char"}, {"_links": {"parentProduct": {"href": "/mdr/cdashig/2-2", "title": "Clinical Data Acquisition Standards Harmonization Implementation Guide for Human Clinical Trials Version 2.2", "type": "Implementation Guide"}, "parentScenario": {"href": "/mdr/cdashig/2-2/scenarios/PE.Traditional", "title": "PE-Traditional", "type": "CDASH Scenario"}, "priorVersion": {"href": "/mdr/cdashig/2-1/scenarios/PE.Traditional/fields/PEMODIFY", "title": "Physical Exam Modified Reported Term", "type": "Data Collection Field"}, "rootItem": {"href": "/mdr/root/cdashig/scenarios/PE.Traditional/fields/PEMODIFY", "title": "Version-agnostic anchor element for scenario field Traditional.PEMODIFY", "type": "Root Data Element"}, "sdtmigDatasetMappingTargets": [{"href": "/mdr/sdtmig/3-3/datasets/PE/variables/PEMODIFY", "title": "Modified Reported Term", "type": "SDTM Dataset Variable"}], "self": {"href": "/mdr/cdashig/2-2/scenarios/PE.Traditional/fields/PEMODIFY", "title": "Physical Exam Modified Reported Term", "type": "Data Collection Field"}}, "core": "O", "definition": "If the value for PEORRES is modified for coding purposes, then the modified text is placed here.", "implementationNotes": "This is not a data collection field that would appear on the CRF. Sponsors will populate this through the coding process. PEMODIFY contains any modified text used for coding. Used only when the reported abnormalities in PEORRES are coded to a dictionary. This is in contrast to Events and Interventions domains, where the topic variable (TERM or TRT) is modified for coding.", "label": "Physical Exam Modified Reported Term", "mappingInstructions": "Maps directly to the SDTMIG variable listed in the SDTMIG Target column.", "name": "PEMODIFY", "ordinal": "19", "simpleDatatype": "Char"}, {"_links": {"codelist": [{"href": "/mdr/root/ct/sdtmct/codelists/C74456", "title": "Version-agnostic anchor resource for codelist C74456", "type": "Root Value Domain"}], "parentProduct": {"href": "/mdr/cdashig/2-2", "title": "Clinical Data Acquisition Standards Harmonization Implementation Guide for Human Clinical Trials Version 2.2", "type": "Implementation Guide"}, "parentScenario": {"href": "/mdr/cdashig/2-2/scenarios/PE.Traditional", "title": "PE-Traditional", "type": "CDASH Scenario"}, "priorVersion": {"href": "/mdr/cdashig/2-1/scenarios/PE.Traditional/fields/PELOC", "title": "Location of Physical Exam Finding", "type": "Data Collection Field"}, "rootItem": {"href": "/mdr/root/cdashig/scenarios/PE.Traditional/fields/PELOC", "title": "Version-agnostic anchor element for scenario field Traditional.PELOC", "type": "Root Data Element"}, "sdtmigDatasetMappingTargets": [{"href": "/mdr/sdtmig/3-3/datasets/PE/variables/PELOC", "title": "Location of Physical Exam Finding", "type": "SDTM Dataset Variable"}], "self": {"href": "/mdr/cdashig/2-2/scenarios/PE.Traditional/fields/PELOC", "title": "Location of Physical Exam Finding", "type": "Data Collection Field"}}, "completionInstructions": "Indicate the anatomical location of the abnormal finding.", "core": "O", "definition": "A description of the anatomical location of the subject, relevant to the collection of physical examination.", "implementationNotes": "Collected or pre-printed when the sponsor needs to identify the specific anatomical location. Sponsors may collect the data using a subset list of controlled terminology on the CRF. LAT, DIR, and PORTOT are used to further describe the anatomical location.", "label": "Location of Physical Exam Finding", "mappingInstructions": "Maps directly to the SDTMIG variable listed in the SDTMIG Target column.", "name": "PELOC", "ordinal": "20", "prompt": "Anatomical Location", "questionText": "What was the anatomical location of the body system examined or the finding?", "simpleDatatype": "Char"}, {"_links": {"codelist": [{"href": "/mdr/root/ct/sdtmct/codelists/C99073", "title": "Version-agnostic anchor resource for codelist C99073", "type": "Root Value Domain"}], "parentProduct": {"href": "/mdr/cdashig/2-2", "title": "Clinical Data Acquisition Standards Harmonization Implementation Guide for Human Clinical Trials Version 2.2", "type": "Implementation Guide"}, "parentScenario": {"href": "/mdr/cdashig/2-2/scenarios/PE.Traditional", "title": "PE-Traditional", "type": "CDASH Scenario"}, "priorVersion": {"href": "/mdr/cdashig/2-1/scenarios/PE.Traditional/fields/PELAT", "title": "Physical Exam Laterality", "type": "Data Collection Field"}, "rootItem": {"href": "/mdr/root/cdashig/scenarios/PE.Traditional/fields/PELAT", "title": "Version-agnostic anchor element for scenario field Traditional.PELAT", "type": "Root Data Element"}, "sdtmigDatasetMappingTargets": [{"href": "/mdr/sdtmig/3-3/datasets/PE/variables/PELAT", "title": "Laterality", "type": "SDTM Dataset Variable"}], "self": {"href": "/mdr/cdashig/2-2/scenarios/PE.Traditional/fields/PELAT", "title": "Physical Exam Laterality", "type": "Data Collection Field"}}, "completionInstructions": "Record the side of the anatomical location of the abnormal finding.", "core": "O", "definition": "Qualifier for anatomical location, further detailing the side of the body.", "implementationNotes": "May be pre-printed or collected when the sponsor needs to identify the specific side of the anatomical location. Sponsors may collect the data using a subset list of controlled terminology on the CRF.", "label": "Physical Exam Laterality", "mappingInstructions": "Maps directly to the SDTMIG variable listed in the SDTMIG Target column.", "name": "PELAT", "ordinal": "21", "prompt": "Side", "questionText": "What was the side of the anatomical location of the body system examined or the finding?", "simpleDatatype": "Char"}, {"_links": {"codelist": [{"href": "/mdr/root/ct/sdtmct/codelists/C99074", "title": "Version-agnostic anchor resource for codelist C99074", "type": "Root Value Domain"}], "parentProduct": {"href": "/mdr/cdashig/2-2", "title": "Clinical Data Acquisition Standards Harmonization Implementation Guide for Human Clinical Trials Version 2.2", "type": "Implementation Guide"}, "parentScenario": {"href": "/mdr/cdashig/2-2/scenarios/PE.Traditional", "title": "PE-Traditional", "type": "CDASH Scenario"}, "priorVersion": {"href": "/mdr/cdashig/2-1/scenarios/PE.Traditional/fields/PEDIR", "title": "Physical Exam Directionality", "type": "Data Collection Field"}, "rootItem": {"href": "/mdr/root/cdashig/scenarios/PE.Traditional/fields/PEDIR", "title": "Version-agnostic anchor element for scenario field Traditional.PEDIR", "type": "Root Data Element"}, "self": {"href": "/mdr/cdashig/2-2/scenarios/PE.Traditional/fields/PEDIR", "title": "Physical Exam Directionality", "type": "Data Collection Field"}}, "completionInstructions": "Record the directionality of the anatomical location of the abnormal finding.", "core": "O", "definition": "Qualifier further detailing the position of the anatomical location, relative to the center of the body, organ, or specimen.", "implementationNotes": "May be pre-printed or collected when the sponsor needs to identify the directionality of the anatomical location. Sponsors may collect the data using a subset list of controlled terminology on the CRF.", "label": "Physical Exam Directionality", "mappingInstructions": "Maps directly to the SDTMIG variable listed in the SDTMIG Target column.", "name": "PEDIR", "ordinal": "22", "prompt": "Directionality", "questionText": "What was the directionality of the anatomical location of the of the body system examined or the finding?", "simpleDatatype": "Char"}, {"_links": {"codelist": [{"href": "/mdr/root/ct/sdtmct/codelists/C99075", "title": "Version-agnostic anchor resource for codelist C99075", "type": "Root Value Domain"}], "parentProduct": {"href": "/mdr/cdashig/2-2", "title": "Clinical Data Acquisition Standards Harmonization Implementation Guide for Human Clinical Trials Version 2.2", "type": "Implementation Guide"}, "parentScenario": {"href": "/mdr/cdashig/2-2/scenarios/PE.Traditional", "title": "PE-Traditional", "type": "CDASH Scenario"}, "priorVersion": {"href": "/mdr/cdashig/2-1/scenarios/PE.Traditional/fields/PEPORTOT", "title": "PE Location Portion or Totality", "type": "Data Collection Field"}, "rootItem": {"href": "/mdr/root/cdashig/scenarios/PE.Traditional/fields/PEPORTOT", "title": "Version-agnostic anchor element for scenario field Traditional.PEPORTOT", "type": "Root Data Element"}, "self": {"href": "/mdr/cdashig/2-2/scenarios/PE.Traditional/fields/PEPORTOT", "title": "PE Location Portion or Totality", "type": "Data Collection Field"}}, "completionInstructions": "Indicate the proportionality of the anatomical location of the of the abnormal finding.", "core": "O", "definition": "Qualifier for anatomical location, further detailing the distribution (i.e., arrangement of, apportioning of).", "implementationNotes": "Collected when the sponsor needs to identify the specific portionality for the anatomical locations. Sponsors may collect the data using a subset list of controlled terminology on the CRF.", "label": "PE Location Portion or Totality", "mappingInstructions": "Maps directly to the SDTMIG variable listed in the SDTMIG Target column.", "name": "PEPORTOT", "ordinal": "23", "prompt": "Portion or Totality", "questionText": "What was the portion or totality of the anatomical location of the body system examined or the finding?", "simpleDatatype": "Char"}, {"_links": {"codelist": [{"href": "/mdr/root/ct/sdtmct/codelists/C85492", "title": "Version-agnostic anchor resource for codelist C85492", "type": "Root Value Domain"}], "parentProduct": {"href": "/mdr/cdashig/2-2", "title": "Clinical Data Acquisition Standards Harmonization Implementation Guide for Human Clinical Trials Version 2.2", "type": "Implementation Guide"}, "parentScenario": {"href": "/mdr/cdashig/2-2/scenarios/PE.Traditional", "title": "PE-Traditional", "type": "CDASH Scenario"}, "priorVersion": {"href": "/mdr/cdashig/2-1/scenarios/PE.Traditional/fields/PEMETHOD", "title": "PE Method of Test or Examination", "type": "Data Collection Field"}, "rootItem": {"href": "/mdr/root/cdashig/scenarios/PE.Traditional/fields/PEMETHOD", "title": "Version-agnostic anchor element for scenario field Traditional.PEMETHOD", "type": "Root Data Element"}, "sdtmigDatasetMappingTargets": [{"href": "/mdr/sdtmig/3-3/datasets/PE/variables/PEMETHOD", "title": "Method of Test or Examination", "type": "SDTM Dataset Variable"}], "self": {"href": "/mdr/cdashig/2-2/scenarios/PE.Traditional/fields/PEMETHOD", "title": "PE Method of Test or Examination", "type": "Data Collection Field"}}, "completionInstructions": "Record the method of test or examination.", "core": "O", "definition": "Method of the test or examination.", "implementationNotes": "This information may be collected when more than 1 method is possible, and collecting the method used is necessary.", "label": "PE Method of Test or Examination", "mappingInstructions": "Maps directly to the SDTMIG variable listed in the SDTMIG Target column.", "name": "PEMETHOD", "ordinal": "24", "prompt": "Method", "questionText": "What was the method used for the test or examination?", "simpleDatatype": "Char"}], "ordinal": "1", "scenario": "PE-Traditional"}
