{"_links": {"parentClass": {"href": "/mdr/cdashig/2-2/classes/Findings", "title": "Findings", "type": "Class"}, "parentDomain": {"href": "/mdr/cdashig/2-2/domains/SC", "title": "Subject Characteristics", "type": "CDASH Domain"}, "parentProduct": {"href": "/mdr/cdashig/2-2", "title": "Clinical Data Acquisition Standards Harmonization Implementation Guide for Human Clinical Trials Version 2.2", "type": "Implementation Guide"}, "priorVersion": {"href": "/mdr/cdashig/2-1/scenarios/SC.HorizontalGeneric", "title": "SC - Implementation Options: HorizontalGeneric", "type": "CDASH Scenario"}, "self": {"href": "/mdr/cdashig/2-2/scenarios/SC.HorizontalGeneric", "title": "Horizontal-Generic", "type": "CDASH Scenario"}}, "domain": "Subject Characteristics", "domainName": "SC", "fields": [{"_links": {"parentProduct": {"href": "/mdr/cdashig/2-2", "title": "Clinical Data Acquisition Standards Harmonization Implementation Guide for Human Clinical Trials Version 2.2", "type": "Implementation Guide"}, "parentScenario": {"href": "/mdr/cdashig/2-2/scenarios/SC.HorizontalGeneric", "title": "Horizontal-Generic", "type": "CDASH Scenario"}, "priorVersion": {"href": "/mdr/cdashig/2-1/scenarios/SC.Generic/fields/STUDYID", "title": "Study Identifier", "type": "Data Collection Field"}, "rootItem": {"href": "/mdr/root/cdashig/scenarios/SC.Generic/fields/STUDYID", "title": "Version-agnostic anchor element for scenario field Horizontal-Generic.STUDYID", "type": "Root Data Element"}, "sdtmigDatasetMappingTargets": [{"href": "/mdr/sdtmig/3-3/datasets/SC/variables/STUDYID", "title": "Study Identifier", "type": "SDTM Dataset Variable"}], "self": {"href": "/mdr/cdashig/2-2/scenarios/SC.Generic/fields/STUDYID", "title": "Study Identifier", "type": "Data Collection Field"}}, "core": "HR", "definition": "A unique identifier for a study", "implementationNotes": "Although this field is not typically captured on a CRF, it should be displayed clearly on the CRF and/or in the EDC system. This field can be included in the database or populated during SDTM-based dataset creation before submission.", "label": "Study Identifier", "mappingInstructions": "Maps directly to the SDTMIG variable listed in the SDTMIG Target column.", "name": "STUDYID", "ordinal": "1", "prompt": "[Protocol/Study]", "questionText": "What is the study identifier?", "simpleDatatype": "Char"}, {"_links": {"parentProduct": {"href": "/mdr/cdashig/2-2", "title": "Clinical Data Acquisition Standards Harmonization Implementation Guide for Human Clinical Trials Version 2.2", "type": "Implementation Guide"}, "parentScenario": {"href": "/mdr/cdashig/2-2/scenarios/SC.HorizontalGeneric", "title": "Horizontal-Generic", "type": "CDASH Scenario"}, "priorVersion": {"href": "/mdr/cdashig/2-1/scenarios/SC.Generic/fields/SITEID", "title": "Study Site Identifier", "type": "Data Collection Field"}, "rootItem": {"href": "/mdr/root/cdashig/scenarios/SC.Generic/fields/SITEID", "title": "Version-agnostic anchor element for scenario field Horizontal-Generic.SITEID", "type": "Root Data Element"}, "sdtmigDatasetMappingTargets": [{"href": "/mdr/sdtmig/3-3/datasets/DM/variables/SITEID", "title": "Study Site Identifier", "type": "SDTM Dataset Variable"}], "self": {"href": "/mdr/cdashig/2-2/scenarios/SC.Generic/fields/SITEID", "title": "Study Site Identifier", "type": "Data Collection Field"}}, "core": "HR", "definition": "A unique identifier for a site within a study.", "implementationNotes": "Paper: This is typically pre-printed in the header of each CRF page for single-site studies. For studies with multiple sites, this field may be left blank so that the number can be recorded by the site, or it may be pre-printed on the CRFs that are shipped to each site. \\n EDC: This should be pre-populated.", "label": "Study Site Identifier", "mappingInstructions": "Maps directly to the SDTMIG variable listed in the SDTMIG Target column.", "name": "SITEID", "ordinal": "2", "prompt": "Site (Identifier)", "questionText": "What is the site identifier?", "simpleDatatype": "Char"}, {"_links": {"parentProduct": {"href": "/mdr/cdashig/2-2", "title": "Clinical Data Acquisition Standards Harmonization Implementation Guide for Human Clinical Trials Version 2.2", "type": "Implementation Guide"}, "parentScenario": {"href": "/mdr/cdashig/2-2/scenarios/SC.HorizontalGeneric", "title": "Horizontal-Generic", "type": "CDASH Scenario"}, "priorVersion": {"href": "/mdr/cdashig/2-1/scenarios/SC.Generic/fields/SUBJID", "title": "Subject Identifier for the Study", "type": "Data Collection Field"}, "rootItem": {"href": "/mdr/root/cdashig/scenarios/SC.Generic/fields/SUBJID", "title": "Version-agnostic anchor element for scenario field Horizontal-Generic.SUBJID", "type": "Root Data Element"}, "sdtmigDatasetMappingTargets": [{"href": "/mdr/sdtmig/3-3/datasets/DM/variables/SUBJID", "title": "Subject Identifier for the Study", "type": "SDTM Dataset Variable"}], "self": {"href": "/mdr/cdashig/2-2/scenarios/SC.Generic/fields/SUBJID", "title": "Subject Identifier for the Study", "type": "Data Collection Field"}}, "completionInstructions": "Record the identifier for the subject.", "core": "HR", "definition": "A unique subject identifier within a site and a study.", "implementationNotes": "Paper: This is typically recorded in the header of each CRF page. EDC: The subject identifiers may be provided to the site using a pre-populated list in the system. This CDASH variable is typically collected in all CDASH domains. However, this CDASH variable is populated only in the SDTMIG DM domain. For more information, refer to the SDTM.", "label": "Subject Identifier for the Study", "mappingInstructions": "Maps directly to the SDTMIG variable listed in the SDTMIG Target column.", "name": "SUBJID", "ordinal": "3", "prompt": "[Subject/Participant] (Identifier)", "questionText": "What [is/was] the (study) [subject/participant] identifier?", "simpleDatatype": "Char"}, {"_links": {"parentProduct": {"href": "/mdr/cdashig/2-2", "title": "Clinical Data Acquisition Standards Harmonization Implementation Guide for Human Clinical Trials Version 2.2", "type": "Implementation Guide"}, "parentScenario": {"href": "/mdr/cdashig/2-2/scenarios/SC.HorizontalGeneric", "title": "Horizontal-Generic", "type": "CDASH Scenario"}, "priorVersion": {"href": "/mdr/cdashig/2-1/scenarios/SC.Generic/fields/VISIT", "title": "Visit Name", "type": "Data Collection Field"}, "rootItem": {"href": "/mdr/root/cdashig/scenarios/SC.Generic/fields/VISIT", "title": "Version-agnostic anchor element for scenario field Horizontal-Generic.VISIT", "type": "Root Data Element"}, "self": {"href": "/mdr/cdashig/2-2/scenarios/SC.Generic/fields/VISIT", "title": "Visit Name", "type": "Data Collection Field"}}, "core": "R/C", "definition": "The name of a clinical encounter that encompasses planned and unplanned trial interventions, procedures, and assessments that may be performed on a subject.", "implementationNotes": "This CDASH variable is typically collected in all CDASH domains. However, this CDASH variable is represented only in the SDTMIG DM domain. For more information, refer to SDTM Table 2.2.4.", "label": "Visit Name", "mappingInstructions": "Maps directly to the SDTMIG variable listed in the SDTMIG Target column.", "name": "VISIT", "ordinal": "4", "prompt": "[Visit]", "questionText": "What is the visit name?", "simpleDatatype": "Char"}, {"_links": {"parentProduct": {"href": "/mdr/cdashig/2-2", "title": "Clinical Data Acquisition Standards Harmonization Implementation Guide for Human Clinical Trials Version 2.2", "type": "Implementation Guide"}, "parentScenario": {"href": "/mdr/cdashig/2-2/scenarios/SC.HorizontalGeneric", "title": "Horizontal-Generic", "type": "CDASH Scenario"}, "priorVersion": {"href": "/mdr/cdashig/2-1/scenarios/SC.Generic/fields/VISDAT", "title": "Visit Date", "type": "Data Collection Field"}, "rootItem": {"href": "/mdr/root/cdashig/scenarios/SC.Generic/fields/VISDAT", "title": "Version-agnostic anchor element for scenario field Horizontal-Generic.VISDAT", "type": "Root Data Element"}, "self": {"href": "/mdr/cdashig/2-2/scenarios/SC.Generic/fields/VISDAT", "title": "Visit Date", "type": "Data Collection Field"}}, "completionInstructions": "Record the [date/start date] of the visit using this format (DD-MON-YYYY).", "core": "R/C", "definition": "Date the clinical encounter occurred (or started).", "implementationNotes": "The date the subject characteristics were collected can be determined from the visit date variable (VISDAT) and applying that date to all of the subject characteristics at that visit, or the collection date can be included on the SC CRF using the date (SCDAT) field.", "label": "Visit Date", "mappingInstructions": "This field is not an SDTM variable. The date of a measurement, test, observation can be determined from the date/time of visit (VISDAT/VISTIM) and then concatenating the CDASH VISDAT/VISTIM components and populating the SDTMIG variable SCDTC in ISO 8601 format.", "name": "VISDAT", "ordinal": "5", "prompt": "(Visit) Date", "questionText": "What [is/was] the date of the visit?", "simpleDatatype": "Char"}, {"_links": {"parentProduct": {"href": "/mdr/cdashig/2-2", "title": "Clinical Data Acquisition Standards Harmonization Implementation Guide for Human Clinical Trials Version 2.2", "type": "Implementation Guide"}, "parentScenario": {"href": "/mdr/cdashig/2-2/scenarios/SC.HorizontalGeneric", "title": "Horizontal-Generic", "type": "CDASH Scenario"}, "priorVersion": {"href": "/mdr/cdashig/2-1/scenarios/SC.Generic/fields/SCCAT", "title": "Category for Subject Characteristic", "type": "Data Collection Field"}, "rootItem": {"href": "/mdr/root/cdashig/scenarios/SC.Generic/fields/SCCAT", "title": "Version-agnostic anchor element for scenario field Horizontal-Generic.SCCAT", "type": "Root Data Element"}, "sdtmigDatasetMappingTargets": [{"href": "/mdr/sdtmig/3-3/datasets/SC/variables/SCCAT", "title": "Category for Subject Characteristic", "type": "SDTM Dataset Variable"}], "self": {"href": "/mdr/cdashig/2-2/scenarios/SC.Generic/fields/SCCAT", "title": "Category for Subject Characteristic", "type": "Data Collection Field"}}, "completionInstructions": "Record the subject characteristics category, if not pre-printed on the CRF.", "core": "O", "definition": "A grouping of topic-variable values based on user-defined characteristics.", "implementationNotes": "Sponsor-defined controlled terminology. This would most commonly be either a heading or a pre-printed category value on the CRF, not a question to which the site would provide an answer. If a question is asked, the response would typically be a sponsor-defined codelist. If the form is laid out as a grid, then words such as \"Category\" can be included in the column heading. This is an example of the types of CDASH variable names that can be used in a denormalized data structure.", "label": "Category for Subject Characteristic", "mappingInstructions": "Maps directly to the SDTMIG variable listed in the SDTMIG Target column.", "name": "[SCTESTCD]_SCCAT", "ordinal": "6", "prompt": "[Subject Characteristics Category]; NULL", "questionText": "What was the category of the subject characteristics??", "simpleDatatype": "Char"}, {"_links": {"parentProduct": {"href": "/mdr/cdashig/2-2", "title": "Clinical Data Acquisition Standards Harmonization Implementation Guide for Human Clinical Trials Version 2.2", "type": "Implementation Guide"}, "parentScenario": {"href": "/mdr/cdashig/2-2/scenarios/SC.HorizontalGeneric", "title": "Horizontal-Generic", "type": "CDASH Scenario"}, "priorVersion": {"href": "/mdr/cdashig/2-1/scenarios/SC.Generic/fields/SCSCAT", "title": "Subcategory for Subject Characteristic", "type": "Data Collection Field"}, "rootItem": {"href": "/mdr/root/cdashig/scenarios/SC.Generic/fields/SCSCAT", "title": "Version-agnostic anchor element for scenario field Horizontal-Generic.SCSCAT", "type": "Root Data Element"}, "sdtmigDatasetMappingTargets": [{"href": "/mdr/sdtmig/3-3/datasets/SC/variables/SCSCAT", "title": "Subcategory for Subject Characteristic", "type": "SDTM Dataset Variable"}], "self": {"href": "/mdr/cdashig/2-2/scenarios/SC.Generic/fields/SCSCAT", "title": "Subcategory for Subject Characteristic", "type": "Data Collection Field"}}, "completionInstructions": "Record the subject characteristics subcategory, if not pre-printed on the CRF.", "core": "O", "definition": "A sub-division of the SCCAT values based on user-defined characteristics.", "implementationNotes": "Sponsor-defined controlled terminology. This would most commonly be either a heading or a pre-printed category value on the CRF, not a question to which the site would provide an answer. If a question is asked, the response would typically be a sponsor-defined codelist. If the form is laid out as a grid, then words such as \"Subcategory\" can be included in the column header. SCSCAT can only be used if there is an SCCAT, and it must be a subcategorization of SCCAT. This is an example of the types of CDASH variable names that can be used in a denormalized data structure.", "label": "Subcategory for Subject Characteristic", "mappingInstructions": "Maps directly to the SDTMIG variable listed in the SDTMIG Target column.", "name": "[SCTESTCD]_SCSCAT", "ordinal": "7", "prompt": "[Subject Characteristics Subcategory]; NULL", "questionText": "What was the subcategory of the subject characteristics?", "simpleDatatype": "Char"}, {"_links": {"codelist": [{"href": "/mdr/root/ct/sdtmct/codelists/C66742", "title": "Version-agnostic anchor resource for codelist C66742", "type": "Root Value Domain"}], "parentProduct": {"href": "/mdr/cdashig/2-2", "title": "Clinical Data Acquisition Standards Harmonization Implementation Guide for Human Clinical Trials Version 2.2", "type": "Implementation Guide"}, "parentScenario": {"href": "/mdr/cdashig/2-2/scenarios/SC.HorizontalGeneric", "title": "Horizontal-Generic", "type": "CDASH Scenario"}, "priorVersion": {"href": "/mdr/cdashig/2-1/scenarios/SC.Generic/fields/SCPERF", "title": "SC Assessment Performed", "type": "Data Collection Field"}, "rootItem": {"href": "/mdr/root/cdashig/scenarios/SC.Generic/fields/SCPERF", "title": "Version-agnostic anchor element for scenario field Horizontal-Generic.SCPERF", "type": "Root Data Element"}, "sdtmigDatasetMappingTargets": [{"href": "/mdr/sdtmig/3-3/datasets/SC/variables/SCSTAT", "title": "Completion Status", "type": "SDTM Dataset Variable"}], "self": {"href": "/mdr/cdashig/2-2/scenarios/SC.Generic/fields/SCPERF", "title": "SC Assessment Performed", "type": "Data Collection Field"}}, "completionInstructions": "Indicate if subject characteristics information was collected. If Yes, include the appropriate details where indicated on the CRF.", "core": "O", "definition": "An indication of whether any subject characteristics were collected.", "implementationNotes": "General prompt question to be used as a data management tool to verify that missing results are confirmed missing. This may be implemented for all tests collected on the same horizontal record or for each specific test. When the SDTM-based datasets are created, the value of SCPERF would apply to all tests on the same record. Use the CDASH variable [SCTESTCD]_SCPERF when implemented on a specific test basis. This is an example of the types of CDASH variable names that can be used in a denormalized data structure.", "label": "SC Assessment Performed", "mappingInstructions": "This does not map directly to an SDTMIG variable. May be used to derive a value into the SDTM variable SCSTAT. If [SCTESTCD]_SCPERF =\"N\", the value of SCSTAT will be \"NOT DONE\". If [SCTESTCD]_SCPERF =\"Y\", SCSTAT should be null. A combination of SDTMIG variables (e.g., SCCAT and SCSCAT, SCTPT ) is used to indicate that multiple tests were not done. In this situation, the SDTMIG variable SCTESTCD would be assigned SCALL and an appropriate test name ( SCTEST) provided. See SDTMIG for additional information.", "name": "[SCTESTCD]_SCPERF", "ordinal": "8", "prompt": "[SCTEST] Collected", "questionText": "Were subject characteristics collected for [SCTESTCD]?", "simpleDatatype": "Char"}, {"_links": {"parentProduct": {"href": "/mdr/cdashig/2-2", "title": "Clinical Data Acquisition Standards Harmonization Implementation Guide for Human Clinical Trials Version 2.2", "type": "Implementation Guide"}, "parentScenario": {"href": "/mdr/cdashig/2-2/scenarios/SC.HorizontalGeneric", "title": "Horizontal-Generic", "type": "CDASH Scenario"}, "priorVersion": {"href": "/mdr/cdashig/2-1/scenarios/SC.Generic/fields/SCGRPID", "title": "Subject Characteristics Group ID", "type": "Data Collection Field"}, "rootItem": {"href": "/mdr/root/cdashig/scenarios/SC.Generic/fields/SCGRPID", "title": "Version-agnostic anchor element for scenario field Horizontal-Generic.SCGRPID", "type": "Root Data Element"}, "sdtmigDatasetMappingTargets": [{"href": "/mdr/sdtmig/3-3/datasets/SC/variables/SCGRPID", "title": "Group ID", "type": "SDTM Dataset Variable"}], "self": {"href": "/mdr/cdashig/2-2/scenarios/SC.Generic/fields/SCGRPID", "title": "Subject Characteristics Group ID", "type": "Data Collection Field"}}, "completionInstructions": "Record unique group identifier. Sponsors may insert additional instructions to ensure each record has a unique group identifier.", "core": "O", "definition": "A sponsor-defined identifier used to tie together a block of related records in a single domain.", "implementationNotes": "It can be beneficial to use an identifier in a data query to communicate clearly to the site the specific record in question. This group identifier ties together all the tests collected on this horizontal record. This field may be populated by the sponsor's data collection system.", "label": "Subject Characteristics Group ID", "mappingInstructions": "Maps directly to the SDTMIG variable listed in the SDTMIG Target column.", "name": "SCGRPID", "ordinal": "9", "prompt": "Test Group ID", "questionText": "What is the test group identifier?", "simpleDatatype": "Char"}, {"_links": {"parentProduct": {"href": "/mdr/cdashig/2-2", "title": "Clinical Data Acquisition Standards Harmonization Implementation Guide for Human Clinical Trials Version 2.2", "type": "Implementation Guide"}, "parentScenario": {"href": "/mdr/cdashig/2-2/scenarios/SC.HorizontalGeneric", "title": "Horizontal-Generic", "type": "CDASH Scenario"}, "priorVersion": {"href": "/mdr/cdashig/2-1/scenarios/SC.Generic/fields/SCORRES", "title": "SC Result or Finding in Original Units", "type": "Data Collection Field"}, "rootItem": {"href": "/mdr/root/cdashig/scenarios/SC.Generic/fields/SCORRES", "title": "Version-agnostic anchor element for scenario field Horizontal-Generic.SCORRES", "type": "Root Data Element"}, "sdtmigDatasetMappingTargets": [{"href": "/mdr/sdtmig/3-3/datasets/SC/variables/SCORRES", "title": "Result or Finding in Original Units", "type": "SDTM Dataset Variable"}, {"href": "/mdr/sdtmig/3-3/datasets/SC/variables/SCTEST", "title": "Subject Characteristic", "type": "SDTM Dataset Variable"}, {"href": "/mdr/sdtmig/3-3/datasets/SC/variables/SCTESTCD", "title": "Subject Characteristic Short Name", "type": "SDTM Dataset Variable"}], "self": {"href": "/mdr/cdashig/2-2/scenarios/SC.Generic/fields/SCORRES", "title": "SC Result or Finding in Original Units", "type": "Data Collection Field"}}, "completionInstructions": "Record the subject characteristic.", "core": "HR", "definition": "Result of the subject characteristics as originally received or collected.", "label": "SC Result or Finding in Original Units", "mappingInstructions": "Maps directly to the SDTMIG variable listed in the SDTMIG Target column.", "name": "[SCTESTCD]_SCORRES", "ordinal": "10", "prompt": "[SCTEST] Result", "questionText": "What is the subject's [SCTEST]?", "simpleDatatype": "Char"}], "ordinal": "1", "scenario": "SC - Implementation Options: HorizontalGeneric"}
