{"_links": {"parentClass": {"href": "/mdr/cdashig/2-0/classes/Findings", "title": "Findings Observation Class", "type": "Class"}, "parentDomain": {"href": "/mdr/cdashig/2-0/domains/DA", "title": "Drug Accountability", "type": "CDASH Domain"}, "parentProduct": {"href": "/mdr/cdashig/2-0", "title": "Clinical Data Acquisition Standards Harmonization Implementation Guide for Human Clinical Trials Version 2.0", "type": "Implementation Guide"}, "self": {"href": "/mdr/cdashig/2-0/scenarios/DA.HorizontalGeneric", "title": "DA - Implementation Options: Horizontal-Generic", "type": "CDASH Scenario"}}, "domain": "Drug Accountability", "domainName": "DA", "fields": [{"_links": {"parentDomain": {"href": "/mdr/cdashig/2-0/domains/DA", "title": "Drug Accountability", "type": "CDASH Domain"}, "parentProduct": {"href": "/mdr/cdashig/2-0", "title": "Clinical Data Acquisition Standards Harmonization Implementation Guide for Human Clinical Trials Version 2.0", "type": "Implementation Guide"}, "parentScenario": {"href": "/mdr/cdashig/2-0/scenarios/DA.HorizontalGeneric", "title": "DA - Implementation Options: Horizontal-Generic", "type": "CDASH Scenario"}, "rootItem": {"href": "/mdr/root/cdashig/scenarios/DA.Generic/fields/STUDYID", "title": "Version-agnostic anchor element for scenario field DA.Generic.STUDYID", "type": "Root Data Element"}, "sdtmigDatasetMappingTargets": [{"href": "/mdr/sdtmig/3-2/datasets/DA/variables/STUDYID", "title": "Study Identifier", "type": "SDTM Dataset Variable"}], "self": {"href": "/mdr/cdashig/2-0/scenarios/DA.Generic/fields/STUDYID", "title": "Study Identifier", "type": "Data Collection Field"}}, "core": "HR", "definition": "A unique identifier for a study.", "implementationNotes": "While this field is not typically captured on a CRF, it should be displayed clearly on the CRF and/or the EDC system. This field can be included into the database or populated during SDTM- based dataset creation before submission.", "label": "Study Identifier", "mappingInstructions": "Maps directly to the SDTMIG variable listed in the column with the heading \"SDTMIG Target\".", "name": "STUDYID", "ordinal": "1", "prompt": "[Protocol/Study]", "questionText": "What is the study identifier?", "simpleDatatype": "Char"}, {"_links": {"parentDomain": {"href": "/mdr/cdashig/2-0/domains/DA", "title": "Drug Accountability", "type": "CDASH Domain"}, "parentProduct": {"href": "/mdr/cdashig/2-0", "title": "Clinical Data Acquisition Standards Harmonization Implementation Guide for Human Clinical Trials Version 2.0", "type": "Implementation Guide"}, "parentScenario": {"href": "/mdr/cdashig/2-0/scenarios/DA.HorizontalGeneric", "title": "DA - Implementation Options: Horizontal-Generic", "type": "CDASH Scenario"}, "rootItem": {"href": "/mdr/root/cdashig/scenarios/DA.Generic/fields/SITEID", "title": "Version-agnostic anchor element for scenario field DA.Generic.SITEID", "type": "Root Data Element"}, "sdtmigDatasetMappingTargets": [{"href": "/mdr/sdtmig/3-2/datasets/DM/variables/SITEID", "title": "Study Site Identifier", "type": "SDTM Dataset Variable"}], "self": {"href": "/mdr/cdashig/2-0/scenarios/DA.Generic/fields/SITEID", "title": "Study Site Identifier", "type": "Data Collection Field"}}, "core": "HR", "definition": "A unique identifier for a site within a study.", "implementationNotes": "Paper: This is typically preprinted in the header of each CRF page for single site studies. For studies with multiple sites, this field may be left blank so that the number can be recorded by the site, or it may be preprinted for the CRFs that are shipped to each site. EDC: This should be prepopulated.", "label": "Study Site Identifier", "mappingInstructions": "Maps directly to the SDTMIG variable listed in the column with the heading \"SDTMIG Target\".", "name": "SITEID", "ordinal": "2", "prompt": "Site (Identifier)", "questionText": "What is the site identifier?", "simpleDatatype": "Char"}, {"_links": {"parentDomain": {"href": "/mdr/cdashig/2-0/domains/DA", "title": "Drug Accountability", "type": "CDASH Domain"}, "parentProduct": {"href": "/mdr/cdashig/2-0", "title": "Clinical Data Acquisition Standards Harmonization Implementation Guide for Human Clinical Trials Version 2.0", "type": "Implementation Guide"}, "parentScenario": {"href": "/mdr/cdashig/2-0/scenarios/DA.HorizontalGeneric", "title": "DA - Implementation Options: Horizontal-Generic", "type": "CDASH Scenario"}, "rootItem": {"href": "/mdr/root/cdashig/scenarios/DA.Generic/fields/SUBJID", "title": "Version-agnostic anchor element for scenario field DA.Generic.SUBJID", "type": "Root Data Element"}, "sdtmigDatasetMappingTargets": [{"href": "/mdr/sdtmig/3-2/datasets/DM/variables/SUBJID", "title": "Subject Identifier for the Study", "type": "SDTM Dataset Variable"}], "self": {"href": "/mdr/cdashig/2-0/scenarios/DA.Generic/fields/SUBJID", "title": "Subject Identifier for the Study", "type": "Data Collection Field"}}, "completionInstructions": "Record the identifier for the subject.", "core": "HR", "definition": "A unique subject identifier within a site and a study.", "implementationNotes": "Paper: This is typically recorded in the header of each CRF page. EDC: The subject identifiers may be provided to the site using a pre-populated list in the system. This CDASH variable is typically collected in all CDASH domains. However, this CDASH variable is populated only in the SDTMIG DM domain. For more information, refer to Study Data Tabulation Model.", "label": "Subject Identifier for the Study", "mappingInstructions": "Maps directly to the SDTMIG variable listed in the column with the heading \"SDTMIG Target\".", "name": "SUBJID", "ordinal": "3", "prompt": "Subject", "questionText": "What is the subject identifier?", "simpleDatatype": "Char"}, {"_links": {"parentDomain": {"href": "/mdr/cdashig/2-0/domains/DA", "title": "Drug Accountability", "type": "CDASH Domain"}, "parentProduct": {"href": "/mdr/cdashig/2-0", "title": "Clinical Data Acquisition Standards Harmonization Implementation Guide for Human Clinical Trials Version 2.0", "type": "Implementation Guide"}, "parentScenario": {"href": "/mdr/cdashig/2-0/scenarios/DA.HorizontalGeneric", "title": "DA - Implementation Options: Horizontal-Generic", "type": "CDASH Scenario"}, "rootItem": {"href": "/mdr/root/cdashig/scenarios/DA.Generic/fields/VISIT", "title": "Version-agnostic anchor element for scenario field DA.Generic.VISIT", "type": "Root Data Element"}, "sdtmigDatasetMappingTargets": [{"href": "/mdr/sdtmig/3-2/datasets/DA/variables/VISIT", "title": "Visit Name", "type": "SDTM Dataset Variable"}], "self": {"href": "/mdr/cdashig/2-0/scenarios/DA.Generic/fields/VISIT", "title": "Visit Name", "type": "Data Collection Field"}}, "core": "R/C", "definition": "The name of a clinical encounter that encompasses planned and unplanned trial interventions, procedures, and assessments that may be performed on a subject.", "implementationNotes": "This CDASH variable is typically collected in all CDASH domains. However, this CDASH variable is represented only in the SDTMIG DM domain. For more information, refer to Study Data Tabulation Model, Table 2.2.4.", "label": "Visit Name", "mappingInstructions": "Maps directly to the SDTMIG variable listed in the column with the heading \"SDTMIG Target\".", "name": "VISIT", "ordinal": "4", "prompt": "[Visit]", "questionText": "What is the visit name?", "simpleDatatype": "Char"}, {"_links": {"parentDomain": {"href": "/mdr/cdashig/2-0/domains/DA", "title": "Drug Accountability", "type": "CDASH Domain"}, "parentProduct": {"href": "/mdr/cdashig/2-0", "title": "Clinical Data Acquisition Standards Harmonization Implementation Guide for Human Clinical Trials Version 2.0", "type": "Implementation Guide"}, "parentScenario": {"href": "/mdr/cdashig/2-0/scenarios/DA.HorizontalGeneric", "title": "DA - Implementation Options: Horizontal-Generic", "type": "CDASH Scenario"}, "rootItem": {"href": "/mdr/root/cdashig/scenarios/DA.Generic/fields/VISDAT", "title": "Version-agnostic anchor element for scenario field DA.Generic.VISDAT", "type": "Root Data Element"}, "self": {"href": "/mdr/cdashig/2-0/scenarios/DA.Generic/fields/VISDAT", "title": "Visit Date", "type": "Data Collection Field"}}, "completionInstructions": "Record the [date/start date] of the visit using DD-MON-YYYY format.", "core": "R/C", "definition": "Date the clinical encounter occurred (or started).", "implementationNotes": "The date the drug accountability assessments were collected can be determined from the Visit Date variable (VISDAT) and applying that date to all of the observations at that visit, or the collection date can be included on the Drug Accountability CRF using the date (DADAT) field.", "label": "Visit Date", "mappingInstructions": "This field is not an SDTM variable. The date of a measurement, test, observation can be determined from the date/time of visit (VISDAT/VISTIM) and then concatenating the CDASH VISDAT/VISTIM components and populating the SDTMIG variable DADTC in ISO 8601 format.", "name": "VISDAT", "ordinal": "5", "prompt": "Visit Date", "questionText": "What [is/was] the date of the visit?", "simpleDatatype": "Char"}, {"_links": {"parentDomain": {"href": "/mdr/cdashig/2-0/domains/DA", "title": "Drug Accountability", "type": "CDASH Domain"}, "parentProduct": {"href": "/mdr/cdashig/2-0", "title": "Clinical Data Acquisition Standards Harmonization Implementation Guide for Human Clinical Trials Version 2.0", "type": "Implementation Guide"}, "parentScenario": {"href": "/mdr/cdashig/2-0/scenarios/DA.HorizontalGeneric", "title": "DA - Implementation Options: Horizontal-Generic", "type": "CDASH Scenario"}, "rootItem": {"href": "/mdr/root/cdashig/scenarios/DA.Generic/fields/DAGRPID", "title": "Version-agnostic anchor element for scenario field DA.Generic.DAGRPID", "type": "Root Data Element"}, "sdtmigDatasetMappingTargets": [{"href": "/mdr/sdtmig/3-2/datasets/DA/variables/DAGRPID", "title": "Group ID", "type": "SDTM Dataset Variable"}], "self": {"href": "/mdr/cdashig/2-0/scenarios/DA.Generic/fields/DAGRPID", "title": "Drug Accountability Group ID", "type": "Data Collection Field"}}, "completionInstructions": "Record unique group identifier. Sponsor may insert additional instructions to ensure each record has a unique group identifier.", "core": "O", "definition": "A sponsor-defined identifier used to tie a block of related records in a single domain.", "implementationNotes": "It can be beneficial to use an identifier in a data query to communicate clearly to the site the specific record in question. This group identifier ties together all the tests collected on this horizontal record. This field may be populated by the sponsor's data collection system.", "label": "Drug Accountability Group ID", "mappingInstructions": "Maps directly to the SDTMIG variable listed in the column with the heading \"SDTMIG Target\".", "name": "DAGRPID", "ordinal": "6", "prompt": "Test Group Identifier", "questionText": "What is the test group identifier?", "simpleDatatype": "Char"}, {"_links": {"codelist": [{"href": "/mdr/root/ct/sdtmct/codelists/C66742", "title": "Version-agnostic anchor resource for codelist C66742", "type": "Root Value Domain"}], "parentDomain": {"href": "/mdr/cdashig/2-0/domains/DA", "title": "Drug Accountability", "type": "CDASH Domain"}, "parentProduct": {"href": "/mdr/cdashig/2-0", "title": "Clinical Data Acquisition Standards Harmonization Implementation Guide for Human Clinical Trials Version 2.0", "type": "Implementation Guide"}, "parentScenario": {"href": "/mdr/cdashig/2-0/scenarios/DA.HorizontalGeneric", "title": "DA - Implementation Options: Horizontal-Generic", "type": "CDASH Scenario"}, "rootItem": {"href": "/mdr/root/cdashig/scenarios/DA.Generic/fields/DAPERF", "title": "Version-agnostic anchor element for scenario field DA.Generic.DAPERF", "type": "Root Data Element"}, "sdtmigDatasetMappingTargets": [{"href": "/mdr/sdtmig/3-2/datasets/DA/variables/DASTAT", "title": "Completion Status", "type": "SDTM Dataset Variable"}], "self": {"href": "/mdr/cdashig/2-0/scenarios/DA.Generic/fields/DAPERF", "title": "Drug Accountability Performed", "type": "Data Collection Field"}}, "completionInstructions": "Indicate whether or not drug accountability was performed.", "core": "O", "definition": "An indication whether or not a planned drug accountability was performed.", "implementationNotes": "General prompt question to be used as a data management tool to verify that missing results are confirmed missing. This may be implemented for all tests collected on the same horizontal record or for each specific test. When mapped to SDTM, the value of DAPERF would apply to all tests on the same record. Use the CDASH variable [DATESTCD]_DAPERF when implemented on a specific test basis. This CDASH variable name is an example of what \"variable name\" can be used in a denormalized data structure.", "label": "Drug Accountability Performed", "mappingInstructions": "This does not map directly to an SDTMIG variable. May be used to derive a value into the SDTMIG variable DASTAT. If DAPERF = \"N\", the value of DASTAT will be \"NOT DONE\". If DAPERF = \"Y\", DASTAT should be null. A combination of SDTMIG variables ( e.g., DACAT and DASCAT, DATPT ) is used to indicate that multiple tests were not done. In this situation, the SDTM variable DATESTCD would be populated as DAALL and an appropriate test name (DATEST) provided. See SDTMIG Section 4.1.5.1.2.", "name": "[DATESTCD]_DAPERF", "ordinal": "7", "prompt": "[DATEST] Collected", "questionText": "Was [DATEST] collected?", "simpleDatatype": "Char"}, {"_links": {"parentDomain": {"href": "/mdr/cdashig/2-0/domains/DA", "title": "Drug Accountability", "type": "CDASH Domain"}, "parentProduct": {"href": "/mdr/cdashig/2-0", "title": "Clinical Data Acquisition Standards Harmonization Implementation Guide for Human Clinical Trials Version 2.0", "type": "Implementation Guide"}, "parentScenario": {"href": "/mdr/cdashig/2-0/scenarios/DA.HorizontalGeneric", "title": "DA - Implementation Options: Horizontal-Generic", "type": "CDASH Scenario"}, "rootItem": {"href": "/mdr/root/cdashig/scenarios/DA.Generic/fields/DACAT", "title": "Version-agnostic anchor element for scenario field DA.Generic.DACAT", "type": "Root Data Element"}, "sdtmigDatasetMappingTargets": [{"href": "/mdr/sdtmig/3-2/datasets/DA/variables/DACAT", "title": "Category of Assessment", "type": "SDTM Dataset Variable"}], "self": {"href": "/mdr/cdashig/2-0/scenarios/DA.Generic/fields/DACAT", "title": "Category of Drug Accountability Assessment", "type": "Data Collection Field"}}, "completionInstructions": "Record the type of study treatment for which drug accountability is assessed (e.g., STUDY MEDICATION, RESCUE MEDICATION, COMPARATOR, PLACEBO).", "core": "O", "definition": "A grouping of topic-variable values based on user defined characteristics.", "implementationNotes": "Sponsor-defined Controlled Terminology. If the protocol allows dispensing different types of study treatment (e.g., study medication, rescue medication, run-in medication) the CRF can capture the type of treatment using DACAT. This may be pre-printed on the CRF. If DACAT is not collected (e.g., it is self-evident from the protocol design), it could be populated during the SDTM-based dataset creation process. The value of DACAT would apply to all measurements on that record when mapped to SDTM. If needed, the CDASH variable [DATESTCD]_DACAT may be used to collect a category for each DATEST. See SDTMIG V3.2 section 6.3.8.2.for examples on populating DACAT and DASCAT. This CDASH variable name is an example of what \"variable name\" can be used in a denormalized data structure", "label": "Category of Drug Accountability Assessment", "mappingInstructions": "Maps directly to the SDTMIG variable listed in the column with the heading \"SDTMIG Target\".", "name": "[DATESTCD]_DACAT", "ordinal": "8", "prompt": "Treatment Type", "questionText": "What was the type of treatment for which drug accountability was assessed?", "simpleDatatype": "Char"}, {"_links": {"parentDomain": {"href": "/mdr/cdashig/2-0/domains/DA", "title": "Drug Accountability", "type": "CDASH Domain"}, "parentProduct": {"href": "/mdr/cdashig/2-0", "title": "Clinical Data Acquisition Standards Harmonization Implementation Guide for Human Clinical Trials Version 2.0", "type": "Implementation Guide"}, "parentScenario": {"href": "/mdr/cdashig/2-0/scenarios/DA.HorizontalGeneric", "title": "DA - Implementation Options: Horizontal-Generic", "type": "CDASH Scenario"}, "rootItem": {"href": "/mdr/root/cdashig/scenarios/DA.Generic/fields/DASCAT", "title": "Version-agnostic anchor element for scenario field DA.Generic.DASCAT", "type": "Root Data Element"}, "sdtmigDatasetMappingTargets": [{"href": "/mdr/sdtmig/3-2/datasets/DA/variables/DASCAT", "title": "Subcategory of Assessment", "type": "SDTM Dataset Variable"}], "self": {"href": "/mdr/cdashig/2-0/scenarios/DA.Generic/fields/DASCAT", "title": "Subcategory of Drug Accountability Assessment", "type": "Data Collection Field"}}, "completionInstructions": "Record the name of the study treatment dispensed (e.g., DRUG A, DRUG B, BOTTLE 1).", "core": "O", "definition": "A sub-division of the DACAT values based on user defined characteristics.", "implementationNotes": "Sponsor-defined Controlled Terminology. This would most commonly be either a heading, or a pre-printed category value on the CRF and not a question to which the site would provide an answer. If a question is asked, the response would typically be a sponsor-defined codelist. If the form is laid out as a grid, then words such as \"Subcategory\" can be included as the column header. If it is known at the time of data collection, the treatment name may be collected in DASCAT (with appropriate, but different than DACAT, grouping values). The value of DASCAT would apply to all measurements on that record when mapped to SDTM. If needed, the CDASH variable [DATESTCD]_DASCAT may be used to collect a category for each DATEST. See SDTMIG Section 6.3 for examples on populating DACAT and DASCAT. DASCAT can only be used if there is an DACAT and it must be a subcategorization of DACAT.", "label": "Subcategory of Drug Accountability Assessment", "mappingInstructions": "Maps directly to the SDTMIG variable listed in the column with the heading \"SDTMIG Target\".", "name": "[DATESTCD]_DASCAT", "ordinal": "9", "prompt": "[DATEST] Treatment Name", "questionText": "What was the name of the treatment for which drug accountability was assessed?", "simpleDatatype": "Char"}, {"_links": {"parentDomain": {"href": "/mdr/cdashig/2-0/domains/DA", "title": "Drug Accountability", "type": "CDASH Domain"}, "parentProduct": {"href": "/mdr/cdashig/2-0", "title": "Clinical Data Acquisition Standards Harmonization Implementation Guide for Human Clinical Trials Version 2.0", "type": "Implementation Guide"}, "parentScenario": {"href": "/mdr/cdashig/2-0/scenarios/DA.HorizontalGeneric", "title": "DA - Implementation Options: Horizontal-Generic", "type": "CDASH Scenario"}, "rootItem": {"href": "/mdr/root/cdashig/scenarios/DA.Generic/fields/DAREFID", "title": "Version-agnostic anchor element for scenario field DA.Generic.DAREFID", "type": "Root Data Element"}, "sdtmigDatasetMappingTargets": [{"href": "/mdr/sdtmig/3-2/datasets/DA/variables/DAREFID", "title": "Reference ID", "type": "SDTM Dataset Variable"}], "self": {"href": "/mdr/cdashig/2-0/scenarios/DA.Generic/fields/DAREFID", "title": "Drug Accountability Reference ID", "type": "Data Collection Field"}}, "completionInstructions": "Record dispensed treatment label identifier.", "core": "O", "definition": "An internal or external identifier such as treatment label identifier (e.g., kit number, bottle label, vial identifier).", "implementationNotes": "This packaging identifier (e.g., kit number, bottle label, vial identifier) may be collected in different ways (e.g., affixing label onto CRF or scanning a bar code). For some study dosing regimens, greater granularity for treatment identifiers may be needed. In this situation, sponsors may need to use additional variables. This CDASH variable name is an example of what \"variable name\" can be used in a denormalized data structure.", "label": "Drug Accountability Reference ID", "mappingInstructions": "Maps directly to the SDTMIG variable listed in the column with the heading \"SDTMIG Target\". May be used to create RELREC to link this record with a record in EX domain.", "name": "[DATESTCD]_DAREFID", "ordinal": "10", "prompt": "[DSTEST] Treatment Label Identifier", "questionText": "What is the [DATEST] treatment label identifier?", "simpleDatatype": "Char"}, {"_links": {"parentDomain": {"href": "/mdr/cdashig/2-0/domains/DA", "title": "Drug Accountability", "type": "CDASH Domain"}, "parentProduct": {"href": "/mdr/cdashig/2-0", "title": "Clinical Data Acquisition Standards Harmonization Implementation Guide for Human Clinical Trials Version 2.0", "type": "Implementation Guide"}, "parentScenario": {"href": "/mdr/cdashig/2-0/scenarios/DA.HorizontalGeneric", "title": "DA - Implementation Options: Horizontal-Generic", "type": "CDASH Scenario"}, "rootItem": {"href": "/mdr/root/cdashig/scenarios/DA.Generic/fields/DADAT", "title": "Version-agnostic anchor element for scenario field DA.Generic.DADAT", "type": "Root Data Element"}, "sdtmigDatasetMappingTargets": [{"href": "/mdr/sdtmig/3-2/datasets/DA/variables/DADTC", "title": "Date/Time of Accountability Assessment", "type": "SDTM Dataset Variable"}], "self": {"href": "/mdr/cdashig/2-0/scenarios/DA.Generic/fields/DADAT", "title": "Drug Accountability Date of Assessment", "type": "Data Collection Field"}}, "completionInstructions": "Record the date drug accountability was performed, using this format ( DD-MON-YYYY).", "core": "R/C", "definition": "The date the study treatment was dispensed or returned represented in an unambiguous date format (e.g., DD-MON-YYYY).", "implementationNotes": "The date study treatment dispensed/returned should be recorded for each dispensation for a study with multiple periods or multiple products dispensed. A single date may be collected for all the observations when they are performed on the same date. The date of each observation can also be collected using a CDASH variable [DATESTCD]_DADAT. The date of the observation may be determined from a collected date of visit and in such cases a separate measurement date field is not required. This CDASH variable name is an example of what \"variable name\" can be used in a denormalized data structure.", "label": "Drug Accountability Date of Assessment", "mappingInstructions": "This does not map directly to an SDTMIG variable. For the SDTM submission dataset, concatenate all collected CDASH DATE and TIME components and populate the SDTMIG variable DADTC in ISO 8601 format.", "name": "[DATESTCD]_DADAT", "ordinal": "11", "prompt": "[DATEST] Date", "questionText": "What was the date [DATEST] drug accountability was assessed?", "simpleDatatype": "Char"}, {"_links": {"parentDomain": {"href": "/mdr/cdashig/2-0/domains/DA", "title": "Drug Accountability", "type": "CDASH Domain"}, "parentProduct": {"href": "/mdr/cdashig/2-0", "title": "Clinical Data Acquisition Standards Harmonization Implementation Guide for Human Clinical Trials Version 2.0", "type": "Implementation Guide"}, "parentScenario": {"href": "/mdr/cdashig/2-0/scenarios/DA.HorizontalGeneric", "title": "DA - Implementation Options: Horizontal-Generic", "type": "CDASH Scenario"}, "rootItem": {"href": "/mdr/root/cdashig/scenarios/DA.Generic/fields/DAORRES", "title": "Version-agnostic anchor element for scenario field DA.Generic.DAORRES", "type": "Root Data Element"}, "sdtmigDatasetMappingTargets": [{"href": "/mdr/sdtmig/3-2/datasets/DA/variables/DAORRES", "title": "Assessment Result in Original Units", "type": "SDTM Dataset Variable"}, {"href": "/mdr/sdtmig/3-2/datasets/DA/variables/DATEST", "title": "Name of Accountability Assessment", "type": "SDTM Dataset Variable"}, {"href": "/mdr/sdtmig/3-2/datasets/DA/variables/DATESTCD", "title": "Short Name of Accountability Assessment", "type": "SDTM Dataset Variable"}], "self": {"href": "/mdr/cdashig/2-0/scenarios/DA.Generic/fields/DAORRES", "title": "Drug Accountability Result", "type": "Data Collection Field"}}, "completionInstructions": "Record the result of the drug accountability assessment.", "core": "HR", "definition": "Result of the drug accountability assessment (e.g., actual amount).", "implementationNotes": "Each test may be collected using the CDASH variable [TESTCD] ( e.g., RETAMT) or [TESTCD]_DAORRES where TESTCD is the appropriate CT for the DA test code e.g., RETAMT_DAORRES. For a study with multiple periods or multiple products dispensed, drug accountability amounts should be assessed for each dispensation and return. For the SDTM submission dataset, DAREFID should be used to link related records. This CDASH variable name is an example of what \"variable name\" can be used in a denormalized data structure.", "label": "Drug Accountability Result", "mappingInstructions": "Maps directly to the SDTMIG variable listed in the column with the heading \"SDTMIG Target\". In addition to the SDTMIG variable DAORRES, create DATESTCD from the CDASH variable name and derive the value of DATEST from DATESTCD. The CDASH prompt may also contain the DATEST. Use appropriate CDISC Controlled Terminology for the test and test code.", "name": "[DATESTCD]_DAORRES", "ordinal": "12", "prompt": "[DATEST] Amount", "questionText": "What is the amount of the [DATEST] drug accountability assessment?", "simpleDatatype": "Char"}, {"_links": {"codelist": [{"href": "/mdr/root/ct/sdtmct/codelists/C71620", "title": "Version-agnostic anchor resource for codelist C71620", "type": "Root Value Domain"}, {"href": "/mdr/root/ct/cdashct/codelists/C78421", "title": "Version-agnostic anchor resource for codelist C78421", "type": "Root Value Domain"}], "parentDomain": {"href": "/mdr/cdashig/2-0/domains/DA", "title": "Drug Accountability", "type": "CDASH Domain"}, "parentProduct": {"href": "/mdr/cdashig/2-0", "title": "Clinical Data Acquisition Standards Harmonization Implementation Guide for Human Clinical Trials Version 2.0", "type": "Implementation Guide"}, "parentScenario": {"href": "/mdr/cdashig/2-0/scenarios/DA.HorizontalGeneric", "title": "DA - Implementation Options: Horizontal-Generic", "type": "CDASH Scenario"}, "rootItem": {"href": "/mdr/root/cdashig/scenarios/DA.Generic/fields/DAORRESU", "title": "Version-agnostic anchor element for scenario field DA.Generic.DAORRESU", "type": "Root Data Element"}, "sdtmigDatasetMappingTargets": [{"href": "/mdr/sdtmig/3-2/datasets/DA/variables/DAORRESU", "title": "Original Units", "type": "SDTM Dataset Variable"}], "self": {"href": "/mdr/cdashig/2-0/scenarios/DA.Generic/fields/DAORRESU", "title": "Drug Accountability Result Unit", "type": "Data Collection Field"}}, "completionInstructions": "Record or select the original units in which these data were collected, if not pre-printed on CRF.", "core": "HR", "definition": "The unit of the result as originally received or collected.", "implementationNotes": "The unit should be pre-printed on the CRF or a field provided on the CRF to capture it. This CDASH variable name is an example of what \"variable name\" can be used in a denormalized data structure.", "label": "Drug Accountability Result Unit", "mappingInstructions": "Maps directly to the SDTMIG variable listed in the column with the heading \"SDTMIG Target\".", "name": "[DATESTCD]_DAORRESU", "ordinal": "13", "prompt": "[DATEST] Unit", "questionText": "What was the unit of the [DATEST] result?", "simpleDatatype": "Char"}], "ordinal": "2", "scenario": "DA - Implementation Options: Horizontal-Generic"}
