{"_links": {"parentClass": {"href": "/mdr/cdashig/2-0/classes/Findings", "title": "Findings Observation Class", "type": "Class"}, "parentDomain": {"href": "/mdr/cdashig/2-0/domains/DD", "title": "Death Details", "type": "CDASH Domain"}, "parentProduct": {"href": "/mdr/cdashig/2-0", "title": "Clinical Data Acquisition Standards Harmonization Implementation Guide for Human Clinical Trials Version 2.0", "type": "Implementation Guide"}, "self": {"href": "/mdr/cdashig/2-0/scenarios/DD.HorizontalGeneric", "title": "DD - Implementation Options: Horizontal-Generic", "type": "CDASH Scenario"}}, "domain": "Death Details", "domainName": "DD", "fields": [{"_links": {"parentDomain": {"href": "/mdr/cdashig/2-0/domains/DD", "title": "Death Details", "type": "CDASH Domain"}, "parentProduct": {"href": "/mdr/cdashig/2-0", "title": "Clinical Data Acquisition Standards Harmonization Implementation Guide for Human Clinical Trials Version 2.0", "type": "Implementation Guide"}, "parentScenario": {"href": "/mdr/cdashig/2-0/scenarios/DD.HorizontalGeneric", "title": "DD - Implementation Options: Horizontal-Generic", "type": "CDASH Scenario"}, "rootItem": {"href": "/mdr/root/cdashig/scenarios/DD.Generic/fields/STUDYID", "title": "Version-agnostic anchor element for scenario field DD.Generic.STUDYID", "type": "Root Data Element"}, "sdtmigDatasetMappingTargets": [{"href": "/mdr/sdtmig/3-2/datasets/DD/variables/STUDYID", "title": "Study Identifier", "type": "SDTM Dataset Variable"}], "self": {"href": "/mdr/cdashig/2-0/scenarios/DD.Generic/fields/STUDYID", "title": "Study Identifier", "type": "Data Collection Field"}}, "core": "HR", "definition": "A unique identifier for a study.", "implementationNotes": "While this field is not typically captured on a CRF, it should be displayed clearly on the CRF and/or the EDC system. This field can be included into the database or populated during SDTM-based dataset creation before submission.", "label": "Study Identifier", "mappingInstructions": "Maps directly to the SDTMIG variable listed in the column with the heading \"SDTMIG Target\".", "name": "STUDYID", "ordinal": "1", "prompt": "[Protocol/Study]", "questionText": "What is the study identifier?", "simpleDatatype": "Char"}, {"_links": {"parentDomain": {"href": "/mdr/cdashig/2-0/domains/DD", "title": "Death Details", "type": "CDASH Domain"}, "parentProduct": {"href": "/mdr/cdashig/2-0", "title": "Clinical Data Acquisition Standards Harmonization Implementation Guide for Human Clinical Trials Version 2.0", "type": "Implementation Guide"}, "parentScenario": {"href": "/mdr/cdashig/2-0/scenarios/DD.HorizontalGeneric", "title": "DD - Implementation Options: Horizontal-Generic", "type": "CDASH Scenario"}, "rootItem": {"href": "/mdr/root/cdashig/scenarios/DD.Generic/fields/SITEID", "title": "Version-agnostic anchor element for scenario field DD.Generic.SITEID", "type": "Root Data Element"}, "sdtmigDatasetMappingTargets": [{"href": "/mdr/sdtmig/3-2/datasets/DM/variables/SITEID", "title": "Study Site Identifier", "type": "SDTM Dataset Variable"}], "self": {"href": "/mdr/cdashig/2-0/scenarios/DD.Generic/fields/SITEID", "title": "Study Site Identifier", "type": "Data Collection Field"}}, "core": "HR", "definition": "A unique identifier for a site within a study.", "implementationNotes": "Paper: This is typically preprinted in the header of each CRF page for single site studies. For studies with multiple sites, this field may be left blank so that the number can be recorded by the site, or it may be preprinted for the CRFs that are shipped to each site. EDC: This should be prepopulated.", "label": "Study Site Identifier", "mappingInstructions": "Maps directly to the SDTMIG variable listed in the column with the heading \"SDTMIG Target\".", "name": "SITEID", "ordinal": "2", "prompt": "Site (Identifier)", "questionText": "What is the site identifier?", "simpleDatatype": "Char"}, {"_links": {"parentDomain": {"href": "/mdr/cdashig/2-0/domains/DD", "title": "Death Details", "type": "CDASH Domain"}, "parentProduct": {"href": "/mdr/cdashig/2-0", "title": "Clinical Data Acquisition Standards Harmonization Implementation Guide for Human Clinical Trials Version 2.0", "type": "Implementation Guide"}, "parentScenario": {"href": "/mdr/cdashig/2-0/scenarios/DD.HorizontalGeneric", "title": "DD - Implementation Options: Horizontal-Generic", "type": "CDASH Scenario"}, "rootItem": {"href": "/mdr/root/cdashig/scenarios/DD.Generic/fields/SUBJID", "title": "Version-agnostic anchor element for scenario field DD.Generic.SUBJID", "type": "Root Data Element"}, "sdtmigDatasetMappingTargets": [{"href": "/mdr/sdtmig/3-2/datasets/DM/variables/SUBJID", "title": "Subject Identifier for the Study", "type": "SDTM Dataset Variable"}], "self": {"href": "/mdr/cdashig/2-0/scenarios/DD.Generic/fields/SUBJID", "title": "Subject Identifier for the Study", "type": "Data Collection Field"}}, "completionInstructions": "Record the identifier for the subject.", "core": "HR", "definition": "A unique subject identifier within a site and a study.", "implementationNotes": "Paper: This is typically recorded in the header of each CRF page. EDC: The subject identifiers may be provided to the site using a pre-populated list in the system. This CDASH variable is typically collected in all CDASH domains. However, this CDASH variable is populated only in the SDTMIG DM domain. For more information, refer to Study Data Tabulation Model.", "label": "Subject Identifier for the Study", "mappingInstructions": "Maps directly to the SDTMIG variable listed in the column with the heading \"SDTMIG Target\".", "name": "SUBJID", "ordinal": "3", "prompt": "Subject", "questionText": "What is the subject identifier?", "simpleDatatype": "Char"}, {"_links": {"parentDomain": {"href": "/mdr/cdashig/2-0/domains/DD", "title": "Death Details", "type": "CDASH Domain"}, "parentProduct": {"href": "/mdr/cdashig/2-0", "title": "Clinical Data Acquisition Standards Harmonization Implementation Guide for Human Clinical Trials Version 2.0", "type": "Implementation Guide"}, "parentScenario": {"href": "/mdr/cdashig/2-0/scenarios/DD.HorizontalGeneric", "title": "DD - Implementation Options: Horizontal-Generic", "type": "CDASH Scenario"}, "rootItem": {"href": "/mdr/root/cdashig/scenarios/DD.Generic/fields/VISIT", "title": "Version-agnostic anchor element for scenario field DD.Generic.VISIT", "type": "Root Data Element"}, "self": {"href": "/mdr/cdashig/2-0/scenarios/DD.Generic/fields/VISIT", "title": "Visit Name", "type": "Data Collection Field"}}, "core": "R/C", "definition": "The name of a clinical encounter that encompasses planned and unplanned trial interventions, procedures, and assessments that may be performed on a subject.", "implementationNotes": "This CDASH variable is typically collected in all CDASH domains. However, this CDASH variable is represented only in the SDTMIG DM domain. For more information, refer to Study Data Tabulation Model, Table 2.2.4.", "label": "Visit Name", "mappingInstructions": "Maps directly to the SDTMIG variable listed in the column with the heading \"SDTMIG Target\".", "name": "VISIT", "ordinal": "4", "prompt": "[Visit]", "questionText": "What is the visit name?", "simpleDatatype": "Char"}, {"_links": {"parentDomain": {"href": "/mdr/cdashig/2-0/domains/DD", "title": "Death Details", "type": "CDASH Domain"}, "parentProduct": {"href": "/mdr/cdashig/2-0", "title": "Clinical Data Acquisition Standards Harmonization Implementation Guide for Human Clinical Trials Version 2.0", "type": "Implementation Guide"}, "parentScenario": {"href": "/mdr/cdashig/2-0/scenarios/DD.HorizontalGeneric", "title": "DD - Implementation Options: Horizontal-Generic", "type": "CDASH Scenario"}, "rootItem": {"href": "/mdr/root/cdashig/scenarios/DD.Generic/fields/VISDAT", "title": "Version-agnostic anchor element for scenario field DD.Generic.VISDAT", "type": "Root Data Element"}, "self": {"href": "/mdr/cdashig/2-0/scenarios/DD.Generic/fields/VISDAT", "title": "Visit Date", "type": "Data Collection Field"}}, "completionInstructions": "Record the [date/start date] of the visit using DD-MON-YYYY format.", "core": "R/C", "definition": "Date the clinical encounter occurred (or started).", "implementationNotes": "The date the death details assessments were reported can be determined from the Visit Date variable (VISDAT) and applying that date to all of the observations at that visit or the collection date can be included on the Death Detail CRF using the date (DDDAT) field.", "label": "Visit Date", "mappingInstructions": "This field is not an SDTM variable. The date of a measurement, test, observation can be determined from the date/time of visit (VISDAT/VISTIM) and then concatenating the CDASH VISDAT/VISTIM components and populating the SDTMIG variable DDDTC in ISO 8601 format.", "name": "VISDAT", "ordinal": "5", "prompt": "Visit Date", "questionText": "What [is/was] the date of the visit?", "simpleDatatype": "Char"}, {"_links": {"parentDomain": {"href": "/mdr/cdashig/2-0/domains/DD", "title": "Death Details", "type": "CDASH Domain"}, "parentProduct": {"href": "/mdr/cdashig/2-0", "title": "Clinical Data Acquisition Standards Harmonization Implementation Guide for Human Clinical Trials Version 2.0", "type": "Implementation Guide"}, "parentScenario": {"href": "/mdr/cdashig/2-0/scenarios/DD.HorizontalGeneric", "title": "DD - Implementation Options: Horizontal-Generic", "type": "CDASH Scenario"}, "rootItem": {"href": "/mdr/root/cdashig/scenarios/DD.Generic/fields/DTHDAT", "title": "Version-agnostic anchor element for scenario field DD.Generic.DTHDAT", "type": "Root Data Element"}, "sdtmigDatasetMappingTargets": [{"href": "/mdr/sdtmig/3-2/datasets/DM/variables/DTHDTC", "title": "Date/Time of Death", "type": "SDTM Dataset Variable"}], "self": {"href": "/mdr/cdashig/2-0/scenarios/DD.Generic/fields/DTHDAT", "title": "Date of Death", "type": "Data Collection Field"}}, "completionInstructions": "Record the date of death.", "core": "O", "definition": "Date of death for any subject who died.", "implementationNotes": "The CDASH model defines Death Date as a timing variable; this is not included as a timing variable in the SDTMIG. It may be collected on any CRF deemed appropriate by the Sponsor, but should only be collected once. The SDTMIG variable DTHDTC is mapped to the DM domain during the SDTM submission dataset creation process. The SDTMIG variable DM.DTHFLG is not a CDASH variable, but it is typically populated during the SDTM submission dataset creation process. Death Date may be mapped to other SDTM domains, as deemed appropriate by the sponsor (e.g., DS).", "label": "Date of Death", "mappingInstructions": "This field does not map directly to an SDTMIG variable. For the SDTM dataset, concatenate all collected CDASH DATE and TIME components and populate the SDTM variable DTHDTC in ISO 8601 format.", "name": "DTHDAT", "ordinal": "6", "prompt": "Death Date", "questionText": "What was the subject's date of death?", "simpleDatatype": "Char"}, {"_links": {"parentDomain": {"href": "/mdr/cdashig/2-0/domains/DD", "title": "Death Details", "type": "CDASH Domain"}, "parentProduct": {"href": "/mdr/cdashig/2-0", "title": "Clinical Data Acquisition Standards Harmonization Implementation Guide for Human Clinical Trials Version 2.0", "type": "Implementation Guide"}, "parentScenario": {"href": "/mdr/cdashig/2-0/scenarios/DD.HorizontalGeneric", "title": "DD - Implementation Options: Horizontal-Generic", "type": "CDASH Scenario"}, "rootItem": {"href": "/mdr/root/cdashig/scenarios/DD.Generic/fields/DDCAT", "title": "Version-agnostic anchor element for scenario field DD.Generic.DDCAT", "type": "Root Data Element"}, "self": {"href": "/mdr/cdashig/2-0/scenarios/DD.Generic/fields/DDCAT", "title": "Category for Death Details", "type": "Data Collection Field"}}, "completionInstructions": "Record the death detail category, if not pre-printed on the CRF.", "core": "O", "definition": "A grouping of topic-variable values based on user defined characteristics.", "implementationNotes": "Sponsor-defined Controlled Terminology. This would most commonly be either a heading, or a pre-printed category value on the CRF and not a question to which the site would provide an answer. If a question is asked, the response would typically be a sponsor-defined codelist. If the form is laid out as a grid, then words such as \"Category\" can be included as the column header.", "label": "Category for Death Details", "mappingInstructions": "Maps directly to the SDTMIG variable listed in the column with the heading \"SDTMIG Target\".", "name": "DDCAT", "ordinal": "7", "prompt": "[Death Detail Assessment Category]; NULL", "questionText": "What is the category of the death detail assessment?", "simpleDatatype": "Char"}, {"_links": {"parentDomain": {"href": "/mdr/cdashig/2-0/domains/DD", "title": "Death Details", "type": "CDASH Domain"}, "parentProduct": {"href": "/mdr/cdashig/2-0", "title": "Clinical Data Acquisition Standards Harmonization Implementation Guide for Human Clinical Trials Version 2.0", "type": "Implementation Guide"}, "parentScenario": {"href": "/mdr/cdashig/2-0/scenarios/DD.HorizontalGeneric", "title": "DD - Implementation Options: Horizontal-Generic", "type": "CDASH Scenario"}, "rootItem": {"href": "/mdr/root/cdashig/scenarios/DD.Generic/fields/DDSCAT", "title": "Version-agnostic anchor element for scenario field DD.Generic.DDSCAT", "type": "Root Data Element"}, "self": {"href": "/mdr/cdashig/2-0/scenarios/DD.Generic/fields/DDSCAT", "title": "Subcategory for Death Details", "type": "Data Collection Field"}}, "completionInstructions": "Record the death detail subcategory, if not pre-printed on the CRF.", "core": "O", "definition": "A sub-division of the DDCAT values based on user defined characteristics.", "implementationNotes": "Sponsor-defined Controlled Terminology. This would most commonly be either a heading, or a pre-printed category value on the CRF and not a question to which the site would provide an answer. If a question is asked, the response would typically be a sponsor-defined codelist. If the form is laid out as a grid, then words such as \"Subcategory\" can be included as the column header DDSCAT can only be used if there is an DDCAT and it must be a subcategorization of DDCAT.", "label": "Subcategory for Death Details", "mappingInstructions": "Maps directly to the SDTMIG variable listed in the column with the heading \"SDTMIG Target\".", "name": "DDSCAT", "ordinal": "8", "prompt": "[Death Detail Assessment Subcategory]; NULL", "questionText": "What is the subcategory of the death detail assessment?", "simpleDatatype": "Char"}, {"_links": {"codelist": [{"href": "/mdr/root/ct/sdtmct/codelists/C66742", "title": "Version-agnostic anchor resource for codelist C66742", "type": "Root Value Domain"}], "parentDomain": {"href": "/mdr/cdashig/2-0/domains/DD", "title": "Death Details", "type": "CDASH Domain"}, "parentProduct": {"href": "/mdr/cdashig/2-0", "title": "Clinical Data Acquisition Standards Harmonization Implementation Guide for Human Clinical Trials Version 2.0", "type": "Implementation Guide"}, "parentScenario": {"href": "/mdr/cdashig/2-0/scenarios/DD.HorizontalGeneric", "title": "DD - Implementation Options: Horizontal-Generic", "type": "CDASH Scenario"}, "rootItem": {"href": "/mdr/root/cdashig/scenarios/DD.Generic/fields/DDYN", "title": "Version-agnostic anchor element for scenario field DD.Generic.DDYN", "type": "Root Data Element"}, "self": {"href": "/mdr/cdashig/2-0/scenarios/DD.Generic/fields/DDYN", "title": "Any Death Detail Results", "type": "Data Collection Field"}}, "completionInstructions": "Indicate if the death details are known. If yes, include the appropriate details where indicated on the CRF.", "core": "O", "definition": "General prompt question regarding whether or not any death details were available.", "implementationNotes": "The intent/purpose of collecting this field is to help with data cleaning and monitoring. It provides verification if all other fields on the CRF were deliberately left blank.", "label": "Any Death Detail Results", "mappingInstructions": "Does not map to an SDTMIG variable. The SDTM Annotated CRF is annotated to indicate that this field is NOT SUBMITTED.", "name": "DDYN", "ordinal": "9", "prompt": "Any Death Detail Assessments", "questionText": "Were any death detail assessments collected?", "simpleDatatype": "Char"}, {"_links": {"parentDomain": {"href": "/mdr/cdashig/2-0/domains/DD", "title": "Death Details", "type": "CDASH Domain"}, "parentProduct": {"href": "/mdr/cdashig/2-0", "title": "Clinical Data Acquisition Standards Harmonization Implementation Guide for Human Clinical Trials Version 2.0", "type": "Implementation Guide"}, "parentScenario": {"href": "/mdr/cdashig/2-0/scenarios/DD.HorizontalGeneric", "title": "DD - Implementation Options: Horizontal-Generic", "type": "CDASH Scenario"}, "rootItem": {"href": "/mdr/root/cdashig/scenarios/DD.Generic/fields/DDDAT", "title": "Version-agnostic anchor element for scenario field DD.Generic.DDDAT", "type": "Root Data Element"}, "sdtmigDatasetMappingTargets": [{"href": "/mdr/sdtmig/3-2/datasets/DD/variables/DDDTC", "title": "Date/Time of Collection", "type": "SDTM Dataset Variable"}], "self": {"href": "/mdr/cdashig/2-0/scenarios/DD.Generic/fields/DDDAT", "title": "Death Details Date of Collection", "type": "Data Collection Field"}}, "completionInstructions": "Record the date of collection using this format (DD-MON-YYYY).", "core": "R/C", "definition": "The date of collection represented in an unambiguous date format (e.g., DD-MON-YYYY).", "implementationNotes": "A single date may be collected for all death detail assessments when they are collected on the same date. The date of collection of each assessment can also be collected using a CDASH variable [DDTESTCD]_DDDAT. The date of the assessment may be determined from a collected date of visit and in such cases a separate assessment date field is not required.", "label": "Death Details Date of Collection", "mappingInstructions": "This does not map directly to an SDTMIG variable. For the SDTM submission dataset, concatenate all collected CDASH DATE and TIME components and populate the SDTMIG variable DDDTC in ISO 8601 format.", "name": "[DDTESTCD]_DDDAT", "ordinal": "10", "prompt": "[DDTEST] Date", "questionText": "What was the date [DDTESTCD] assessment was collected?", "simpleDatatype": "Char"}, {"_links": {"parentDomain": {"href": "/mdr/cdashig/2-0/domains/DD", "title": "Death Details", "type": "CDASH Domain"}, "parentProduct": {"href": "/mdr/cdashig/2-0", "title": "Clinical Data Acquisition Standards Harmonization Implementation Guide for Human Clinical Trials Version 2.0", "type": "Implementation Guide"}, "parentScenario": {"href": "/mdr/cdashig/2-0/scenarios/DD.HorizontalGeneric", "title": "DD - Implementation Options: Horizontal-Generic", "type": "CDASH Scenario"}, "rootItem": {"href": "/mdr/root/cdashig/scenarios/DD.Generic/fields/DDSPID", "title": "Version-agnostic anchor element for scenario field DD.Generic.DDSPID", "type": "Root Data Element"}, "self": {"href": "/mdr/cdashig/2-0/scenarios/DD.Generic/fields/DDSPID", "title": "Death Details Sponsor-Defined Identifier", "type": "Data Collection Field"}}, "completionInstructions": "If collected on the CRF, sponsor may insert instructions to ensure each record has a unique identifier.", "core": "O", "definition": "A sponsor-defined identifier which can be used for pre-printed or auto-generated numbers on the CRF.", "implementationNotes": "Since SPID is a sponsor-defined identifier, conformance to Question Text or Item Prompt is not applicable. Typically used as an identifier in a data query to communicate clearly to the site the specific record in question or to reconcile data. May be used to record pre-printed number (e.g. line number, record number) on the CRF. This field may be populated by the sponsor's data collection system.", "label": "Death Details Sponsor-Defined Identifier", "mappingInstructions": "Maps directly to the SDTMIG variable listed in the column with the heading \"SDTMIG Target\". May be used to create RELREC to link this record with a record in another domain.", "name": "DDSPID", "ordinal": "11", "prompt": "[Line Number/DD Number]", "questionText": "What was the death detail assessment identifier?", "simpleDatatype": "Char"}, {"_links": {"parentDomain": {"href": "/mdr/cdashig/2-0/domains/DD", "title": "Death Details", "type": "CDASH Domain"}, "parentProduct": {"href": "/mdr/cdashig/2-0", "title": "Clinical Data Acquisition Standards Harmonization Implementation Guide for Human Clinical Trials Version 2.0", "type": "Implementation Guide"}, "parentScenario": {"href": "/mdr/cdashig/2-0/scenarios/DD.HorizontalGeneric", "title": "DD - Implementation Options: Horizontal-Generic", "type": "CDASH Scenario"}, "rootItem": {"href": "/mdr/root/cdashig/scenarios/DD.Generic/fields/DDORRES", "title": "Version-agnostic anchor element for scenario field DD.Generic.DDORRES", "type": "Root Data Element"}, "sdtmigDatasetMappingTargets": [{"href": "/mdr/sdtmig/3-2/datasets/DD/variables/DDORRES", "title": "Result or Finding as Collected", "type": "SDTM Dataset Variable"}, {"href": "/mdr/sdtmig/3-2/datasets/DD/variables/DDTEST", "title": "Death Detail Assessment Name", "type": "SDTM Dataset Variable"}, {"href": "/mdr/sdtmig/3-2/datasets/DD/variables/DDTESTCD", "title": "Death Detail Assessment Short Name", "type": "SDTM Dataset Variable"}], "self": {"href": "/mdr/cdashig/2-0/scenarios/DD.Generic/fields/DDORRES", "title": "Death Details Result", "type": "Data Collection Field"}}, "completionInstructions": "Record the death detail response.", "core": "HR", "definition": "Result of the death detail assessment, as originally received or collected.", "implementationNotes": "Each test may be collected using the CDASH variable [TESTCD] (e.g., PRCDTH) or [TESTCD]_DDORRES where TESTCD is the appropriate CT for the DD test code e.g., PRCDTH_DDORRES. This CDASH variable name is an example of what \"variable name\" can be used in a denormalized data structure.", "label": "Death Details Result", "mappingInstructions": "Maps directly to the SDTMIG variable listed in the column with the heading \"SDTMIG Target\". In addition to the SDTMIG variable DDORRES, create DDTESTCD from the CDASH variable name and determine the value of DDTEST from DDTESTCD. The CDASH prompt may also contain the DDTEST. Use appropriate CDISC Controlled Terminology for the test and test code.", "name": "DDTESTCD_DDORRES", "ordinal": "12", "prompt": "Result", "questionText": "What was the death detail assessment result?", "simpleDatatype": "Char"}, {"_links": {"codelist": [{"href": "/mdr/root/ct/sdtmct/codelists/C78735", "title": "Version-agnostic anchor resource for codelist C78735", "type": "Root Value Domain"}], "parentDomain": {"href": "/mdr/cdashig/2-0/domains/DD", "title": "Death Details", "type": "CDASH Domain"}, "parentProduct": {"href": "/mdr/cdashig/2-0", "title": "Clinical Data Acquisition Standards Harmonization Implementation Guide for Human Clinical Trials Version 2.0", "type": "Implementation Guide"}, "parentScenario": {"href": "/mdr/cdashig/2-0/scenarios/DD.HorizontalGeneric", "title": "DD - Implementation Options: Horizontal-Generic", "type": "CDASH Scenario"}, "rootItem": {"href": "/mdr/root/cdashig/scenarios/DD.Generic/fields/DDEVAL", "title": "Version-agnostic anchor element for scenario field DD.Generic.DDEVAL", "type": "Root Data Element"}, "sdtmigDatasetMappingTargets": [{"href": "/mdr/sdtmig/3-2/datasets/DD/variables/DDEVAL", "title": "Evaluator", "type": "SDTM Dataset Variable"}], "self": {"href": "/mdr/cdashig/2-0/scenarios/DD.Generic/fields/DDEVAL", "title": "Death Details Evaluator", "type": "Data Collection Field"}}, "completionInstructions": "Select the role of the person who provided the evaluation (e.g., INVESTIGATOR, ADJUDICATION COMMITTEE, VENDOR).", "core": "O", "definition": "The role of the person who provided the information.", "implementationNotes": "Used only for results that are subjective (e.g., assigned by a person or a group). May be a pre-printed, or collected. Sponsors may collect the data using a subset list of Controlled Terminology on the CRF.", "label": "Death Details Evaluator", "mappingInstructions": "Maps directly to the SDTMIG variable listed in the column with the heading \"SDTMIG Target\".", "name": "DDEVAL", "ordinal": "13", "prompt": "[Evaluator/Reporter]", "questionText": "Who provided the death detail assessment information?", "simpleDatatype": "Char"}], "ordinal": "4", "scenario": "DD - Implementation Options: Horizontal-Generic"}
