{"_links": {"parentClass": {"href": "/mdr/cdashig/2-0/classes/Findings", "title": "Findings Observation Class", "type": "Class"}, "parentDomain": {"href": "/mdr/cdashig/2-0/domains/VS", "title": "Vital Signs", "type": "CDASH Domain"}, "parentProduct": {"href": "/mdr/cdashig/2-0", "title": "Clinical Data Acquisition Standards Harmonization Implementation Guide for Human Clinical Trials Version 2.0", "type": "Implementation Guide"}, "self": {"href": "/mdr/cdashig/2-0/scenarios/VS.Denormalized", "title": "VS - Denormalized - Implementation Options: Horizontal-Example", "type": "CDASH Scenario"}}, "domain": "Vital Signs", "domainName": "VS", "fields": [{"_links": {"parentDomain": {"href": "/mdr/cdashig/2-0/domains/VS", "title": "Vital Signs", "type": "CDASH Domain"}, "parentProduct": {"href": "/mdr/cdashig/2-0", "title": "Clinical Data Acquisition Standards Harmonization Implementation Guide for Human Clinical Trials Version 2.0", "type": "Implementation Guide"}, "parentScenario": {"href": "/mdr/cdashig/2-0/scenarios/VS.Denormalized", "title": "VS - Denormalized - Implementation Options: Horizontal-Example", "type": "CDASH Scenario"}, "rootItem": {"href": "/mdr/root/cdashig/scenarios/VS.DenormalizedExample/fields/TEMP_VSORRES", "title": "Version-agnostic anchor element for scenario field VS.DenormalizedExample.TEMP_VSORRES", "type": "Root Data Element"}, "sdtmigDatasetMappingTargets": [{"href": "/mdr/sdtmig/3-2/datasets/VS/variables/VSORRES", "title": "Result or Finding in Original Units", "type": "SDTM Dataset Variable"}, {"href": "/mdr/sdtmig/3-2/datasets/VS/variables/VSTEST", "title": "Vital Signs Test Name", "type": "SDTM Dataset Variable"}, {"href": "/mdr/sdtmig/3-2/datasets/VS/variables/VSTESTCD", "title": "Vital Signs Test Short Name", "type": "SDTM Dataset Variable"}], "self": {"href": "/mdr/cdashig/2-0/scenarios/VS.DenormalizedExample/fields/TEMP_VSORRES", "title": "Temperature", "type": "Data Collection Field"}}, "completionInstructions": "Record the vital sign result.", "core": "HR", "definition": "Result of the vital signs measurement as originally received or collected.", "implementationNotes": "N/A", "label": "Temperature", "mappingInstructions": "Maps directly to the SDTMIG variable listed in the column with the heading \"SDTMIG Target\". In addition to the SDTMIG variable VSORRES, create VSTESTCD from the CDASH variable name and determine the value of VSTEST from VSTESTCD. The CDASH prompt may also contain the VSTEST.", "name": "TEMP_VSORRES", "ordinal": "1", "prompt": "Temperature", "questionText": "What was the result of the temperature measurement?", "simpleDatatype": "Char"}, {"_links": {"codelist": [{"href": "/mdr/root/ct/sdtmct/codelists/C71620", "title": "Version-agnostic anchor resource for codelist C71620", "type": "Root Value Domain"}], "parentDomain": {"href": "/mdr/cdashig/2-0/domains/VS", "title": "Vital Signs", "type": "CDASH Domain"}, "parentProduct": {"href": "/mdr/cdashig/2-0", "title": "Clinical Data Acquisition Standards Harmonization Implementation Guide for Human Clinical Trials Version 2.0", "type": "Implementation Guide"}, "parentScenario": {"href": "/mdr/cdashig/2-0/scenarios/VS.Denormalized", "title": "VS - Denormalized - Implementation Options: Horizontal-Example", "type": "CDASH Scenario"}, "rootItem": {"href": "/mdr/root/cdashig/scenarios/VS.DenormalizedExample/fields/TEMP_VSORRESU", "title": "Version-agnostic anchor element for scenario field VS.DenormalizedExample.TEMP_VSORRESU", "type": "Root Data Element"}, "sdtmigDatasetMappingTargets": [{"href": "/mdr/sdtmig/3-2/datasets/VS/variables/VSORRESU", "title": "Original Units", "type": "SDTM Dataset Variable"}], "self": {"href": "/mdr/cdashig/2-0/scenarios/VS.DenormalizedExample/fields/TEMP_VSORRESU", "title": "Temperature Unit", "type": "Data Collection Field"}}, "completionInstructions": "Record or select the original unit in which these data were collected, if not pre-printed on CRF.", "core": "R/C", "definition": "The unit of the result as originally received or collected.", "implementationNotes": "Should be pre-printed on the CRF with the associated test when possible, rather than collected in a field that requires the site to enter text.", "label": "Temperature Unit", "mappingInstructions": "Maps directly to the SDTMIG variable listed in the column with the heading \"SDTMIG Target\".", "name": "TEMP_VSORRESU", "ordinal": "2", "prompt": "Temperature Unit", "questionText": "What was the unit of the temperature measurement?", "simpleDatatype": "Char"}, {"_links": {"parentDomain": {"href": "/mdr/cdashig/2-0/domains/VS", "title": "Vital Signs", "type": "CDASH Domain"}, "parentProduct": {"href": "/mdr/cdashig/2-0", "title": "Clinical Data Acquisition Standards Harmonization Implementation Guide for Human Clinical Trials Version 2.0", "type": "Implementation Guide"}, "parentScenario": {"href": "/mdr/cdashig/2-0/scenarios/VS.Denormalized", "title": "VS - Denormalized - Implementation Options: Horizontal-Example", "type": "CDASH Scenario"}, "rootItem": {"href": "/mdr/root/cdashig/scenarios/VS.DenormalizedExample/fields/TEMP_VSCLSIG", "title": "Version-agnostic anchor element for scenario field VS.DenormalizedExample.TEMP_VSCLSIG", "type": "Root Data Element"}, "sdtmigDatasetMappingTargets": [{"href": "/mdr/sdtmig/3-2/datasets/SUPPQUAL/variables/QVAL", "title": "Data Value", "type": "SDTM Dataset Variable"}], "self": {"href": "/mdr/cdashig/2-0/scenarios/VS.DenormalizedExample/fields/TEMP_VSCLSIG", "title": "Temperature Clinical Significance", "type": "Data Collection Field"}}, "completionInstructions": "Record whether the temperature result was clinically significant.", "core": "O", "definition": "An indication whether the temperature result was clinically significant.", "implementationNotes": "N/A", "label": "Temperature Clinical Significance", "mappingInstructions": "This does not map directly to an SDTMIG variable. This information could be submitted in a SUPPVS dataset as the value of SUPPVS.QVAL where SUPPVS.QNAM = \"VSCLSIG\" and SUPPVS.QLABEL=\"Clinically Significant\". Refer to the current SDTM and SDTMIG for instructions on placement of non-standard variables in SDTM domains.", "name": "TEMP_VSCLSIG", "ordinal": "3", "prompt": "Temperature Clinically Significant", "questionText": "Was the temperature result clinically significant?", "simpleDatatype": "Char"}, {"_links": {"parentDomain": {"href": "/mdr/cdashig/2-0/domains/VS", "title": "Vital Signs", "type": "CDASH Domain"}, "parentProduct": {"href": "/mdr/cdashig/2-0", "title": "Clinical Data Acquisition Standards Harmonization Implementation Guide for Human Clinical Trials Version 2.0", "type": "Implementation Guide"}, "parentScenario": {"href": "/mdr/cdashig/2-0/scenarios/VS.Denormalized", "title": "VS - Denormalized - Implementation Options: Horizontal-Example", "type": "CDASH Scenario"}, "rootItem": {"href": "/mdr/root/cdashig/scenarios/VS.DenormalizedExample/fields/RESP_VSORRES", "title": "Version-agnostic anchor element for scenario field VS.DenormalizedExample.RESP_VSORRES", "type": "Root Data Element"}, "sdtmigDatasetMappingTargets": [{"href": "/mdr/sdtmig/3-2/datasets/VS/variables/VSTEST", "title": "Vital Signs Test Name", "type": "SDTM Dataset Variable"}, {"href": "/mdr/sdtmig/3-2/datasets/VS/variables/VSTESTCD", "title": "Vital Signs Test Short Name", "type": "SDTM Dataset Variable"}, {"href": "/mdr/sdtmig/3-2/datasets/VS/variables/VSORRES", "title": "Result or Finding in Original Units", "type": "SDTM Dataset Variable"}], "self": {"href": "/mdr/cdashig/2-0/scenarios/VS.DenormalizedExample/fields/RESP_VSORRES", "title": "Respiratory Rate", "type": "Data Collection Field"}}, "completionInstructions": "Record the vital sign result.", "core": "HR", "definition": "Result of the vital signs measurement as originally received or collected.", "implementationNotes": "N/A", "label": "Respiratory Rate", "mappingInstructions": "Maps directly to the SDTMIG variable listed in the column with the heading \"SDTMIG Target\". In addition to the SDTMIG variable VSORRES, create VSTESTCD from the CDASH variable name and determine the value of VSTEST from VSTESTCD. The CDASH prompt may also contain the VSTEST.", "name": "RESP_VSORRES", "ordinal": "4", "prompt": "Respiratory Rate", "questionText": "What was the result of the respiratory rate measurement?", "simpleDatatype": "Char"}, {"_links": {"codelist": [{"href": "/mdr/root/ct/sdtmct/codelists/C71620", "title": "Version-agnostic anchor resource for codelist C71620", "type": "Root Value Domain"}], "parentDomain": {"href": "/mdr/cdashig/2-0/domains/VS", "title": "Vital Signs", "type": "CDASH Domain"}, "parentProduct": {"href": "/mdr/cdashig/2-0", "title": "Clinical Data Acquisition Standards Harmonization Implementation Guide for Human Clinical Trials Version 2.0", "type": "Implementation Guide"}, "parentScenario": {"href": "/mdr/cdashig/2-0/scenarios/VS.Denormalized", "title": "VS - Denormalized - Implementation Options: Horizontal-Example", "type": "CDASH Scenario"}, "rootItem": {"href": "/mdr/root/cdashig/scenarios/VS.DenormalizedExample/fields/RESP_VSORRESU", "title": "Version-agnostic anchor element for scenario field VS.DenormalizedExample.RESP_VSORRESU", "type": "Root Data Element"}, "sdtmigDatasetMappingTargets": [{"href": "/mdr/sdtmig/3-2/datasets/VS/variables/VSORRESU", "title": "Original Units", "type": "SDTM Dataset Variable"}], "self": {"href": "/mdr/cdashig/2-0/scenarios/VS.DenormalizedExample/fields/RESP_VSORRESU", "title": "Respiratory Rate Unit", "type": "Data Collection Field"}}, "completionInstructions": "Record or select the original unit in which these data were collected, if not pre-printed on CRF.", "core": "R/C", "definition": "The unit of the result as originally received or collected.", "implementationNotes": "Should be pre-printed on the CRF with the associated test when possible, rather than collected in a field that requires the site to enter text.", "label": "Respiratory Rate Unit", "mappingInstructions": "Maps directly to the SDTMIG variable listed in the column with the heading \"SDTMIG Target\".", "name": "RESP_VSORRESU", "ordinal": "5", "prompt": "Respiratory Rate Unit", "questionText": "What was the unit of the respiratory rate measurement?", "simpleDatatype": "Char"}, {"_links": {"parentDomain": {"href": "/mdr/cdashig/2-0/domains/VS", "title": "Vital Signs", "type": "CDASH Domain"}, "parentProduct": {"href": "/mdr/cdashig/2-0", "title": "Clinical Data Acquisition Standards Harmonization Implementation Guide for Human Clinical Trials Version 2.0", "type": "Implementation Guide"}, "parentScenario": {"href": "/mdr/cdashig/2-0/scenarios/VS.Denormalized", "title": "VS - Denormalized - Implementation Options: Horizontal-Example", "type": "CDASH Scenario"}, "rootItem": {"href": "/mdr/root/cdashig/scenarios/VS.DenormalizedExample/fields/RESP_VSCLSIG", "title": "Version-agnostic anchor element for scenario field VS.DenormalizedExample.RESP_VSCLSIG", "type": "Root Data Element"}, "sdtmigDatasetMappingTargets": [{"href": "/mdr/sdtmig/3-2/datasets/SUPPQUAL/variables/QVAL", "title": "Data Value", "type": "SDTM Dataset Variable"}], "self": {"href": "/mdr/cdashig/2-0/scenarios/VS.DenormalizedExample/fields/RESP_VSCLSIG", "title": "Respiratory Rate Clinical Significance", "type": "Data Collection Field"}}, "completionInstructions": "Record whether the respiratory rate result was clinically significant.", "core": "O", "definition": "An indication whether the respiratory rate result was clinically significant.", "implementationNotes": "N/A", "label": "Respiratory Rate Clinical Significance", "mappingInstructions": "This does not map directly to an SDTMIG variable. This information could be submitted in a SUPPVS dataset as the value of SUPPVS.QVAL where SUPPVS.QNAM = \"VSCLSIG\" and SUPPVS.QLABEL=\"Clinically Significant\". Refer to the current SDTM and SDTMIG for instructions on placement of non-standard variables in SDTM domains.", "name": "RESP_VSCLSIG", "ordinal": "6", "prompt": "Respiratory Rate Clinically Significant", "questionText": "Was the respiratory rate result clinically significant?", "simpleDatatype": "Char"}, {"_links": {"parentDomain": {"href": "/mdr/cdashig/2-0/domains/VS", "title": "Vital Signs", "type": "CDASH Domain"}, "parentProduct": {"href": "/mdr/cdashig/2-0", "title": "Clinical Data Acquisition Standards Harmonization Implementation Guide for Human Clinical Trials Version 2.0", "type": "Implementation Guide"}, "parentScenario": {"href": "/mdr/cdashig/2-0/scenarios/VS.Denormalized", "title": "VS - Denormalized - Implementation Options: Horizontal-Example", "type": "CDASH Scenario"}, "rootItem": {"href": "/mdr/root/cdashig/scenarios/VS.DenormalizedExample/fields/SYSBP_VSORRES", "title": "Version-agnostic anchor element for scenario field VS.DenormalizedExample.SYSBP_VSORRES", "type": "Root Data Element"}, "sdtmigDatasetMappingTargets": [{"href": "/mdr/sdtmig/3-2/datasets/VS/variables/VSTESTCD", "title": "Vital Signs Test Short Name", "type": "SDTM Dataset Variable"}, {"href": "/mdr/sdtmig/3-2/datasets/VS/variables/VSORRES", "title": "Result or Finding in Original Units", "type": "SDTM Dataset Variable"}, {"href": "/mdr/sdtmig/3-2/datasets/VS/variables/VSTEST", "title": "Vital Signs Test Name", "type": "SDTM Dataset Variable"}], "self": {"href": "/mdr/cdashig/2-0/scenarios/VS.DenormalizedExample/fields/SYSBP_VSORRES", "title": "Systolic Blood Pressure", "type": "Data Collection Field"}}, "completionInstructions": "Record the vital sign result.", "core": "HR", "definition": "Result of the vital signs measurement as originally received or collected.", "implementationNotes": "N/A", "label": "Systolic Blood Pressure", "mappingInstructions": "Maps directly to the SDTMIG variable listed in the column with the heading \"SDTMIG Target\". In addition to the SDTMIG variable VSORRES, create VSTESTCD from the CDASH variable name and determine the value of VSTEST from VSTESTCD. The CDASH prompt may also contain the VSTEST.", "name": "SYSBP_VSORRES", "ordinal": "7", "prompt": "Systolic Blood Pressure", "questionText": "What was the result of the systolic blood pressure measurement?", "simpleDatatype": "Char"}, {"_links": {"codelist": [{"href": "/mdr/root/ct/sdtmct/codelists/C71620", "title": "Version-agnostic anchor resource for codelist C71620", "type": "Root Value Domain"}], "parentDomain": {"href": "/mdr/cdashig/2-0/domains/VS", "title": "Vital Signs", "type": "CDASH Domain"}, "parentProduct": {"href": "/mdr/cdashig/2-0", "title": "Clinical Data Acquisition Standards Harmonization Implementation Guide for Human Clinical Trials Version 2.0", "type": "Implementation Guide"}, "parentScenario": {"href": "/mdr/cdashig/2-0/scenarios/VS.Denormalized", "title": "VS - Denormalized - Implementation Options: Horizontal-Example", "type": "CDASH Scenario"}, "rootItem": {"href": "/mdr/root/cdashig/scenarios/VS.DenormalizedExample/fields/SYSBP_VSORRESU", "title": "Version-agnostic anchor element for scenario field VS.DenormalizedExample.SYSBP_VSORRESU", "type": "Root Data Element"}, "sdtmigDatasetMappingTargets": [{"href": "/mdr/sdtmig/3-2/datasets/VS/variables/VSORRESU", "title": "Original Units", "type": "SDTM Dataset Variable"}], "self": {"href": "/mdr/cdashig/2-0/scenarios/VS.DenormalizedExample/fields/SYSBP_VSORRESU", "title": "Systolic Blood Pressure Unit", "type": "Data Collection Field"}}, "completionInstructions": "Record or select the original unit in which these data were collected, if not pre-printed on CRF.", "core": "R/C", "definition": "The unit of the result as originally received or collected.", "implementationNotes": "Should be pre-printed on the CRF with the associated test when possible, rather than collected in a field that requires the site to enter text.", "label": "Systolic Blood Pressure Unit", "mappingInstructions": "Maps directly to the SDTMIG variable listed in the column with the heading \"SDTMIG Target\".", "name": "SYSBP_VSORRESU", "ordinal": "8", "prompt": "Systolic Blood Pressure Unit", "questionText": "What was the unit of the systolic blood pressure measurement?", "simpleDatatype": "Char"}, {"_links": {"parentDomain": {"href": "/mdr/cdashig/2-0/domains/VS", "title": "Vital Signs", "type": "CDASH Domain"}, "parentProduct": {"href": "/mdr/cdashig/2-0", "title": "Clinical Data Acquisition Standards Harmonization Implementation Guide for Human Clinical Trials Version 2.0", "type": "Implementation Guide"}, "parentScenario": {"href": "/mdr/cdashig/2-0/scenarios/VS.Denormalized", "title": "VS - Denormalized - Implementation Options: Horizontal-Example", "type": "CDASH Scenario"}, "rootItem": {"href": "/mdr/root/cdashig/scenarios/VS.DenormalizedExample/fields/SYSBP_VSCLSIG", "title": "Version-agnostic anchor element for scenario field VS.DenormalizedExample.SYSBP_VSCLSIG", "type": "Root Data Element"}, "sdtmigDatasetMappingTargets": [{"href": "/mdr/sdtmig/3-2/datasets/SUPPQUAL/variables/QVAL", "title": "Data Value", "type": "SDTM Dataset Variable"}], "self": {"href": "/mdr/cdashig/2-0/scenarios/VS.DenormalizedExample/fields/SYSBP_VSCLSIG", "title": "Systolic Blood Pressure Clinical Significance", "type": "Data Collection Field"}}, "completionInstructions": "Record whether the systolic blood pressure result was clinically significant.", "core": "O", "definition": "An indication whether the systolic blood pressure result was clinically significant.", "implementationNotes": "N/A", "label": "Systolic Blood Pressure Clinical Significance", "mappingInstructions": "This does not map directly to an SDTMIG variable. This information could be submitted in a SUPPVS dataset as the value of SUPPVS.QVAL where SUPPVS.QNAM = \"VSCLSIG\" and SUPPVS.QLABEL=\"Clinically Significant\". Refer to the current SDTM and SDTMIG for instructions on placement of non-standard variables in SDTM domains.", "name": "SYSBP_VSCLSIG", "ordinal": "9", "prompt": "Systolic Blood Pressure Clinically Significant", "questionText": "Was the systolic blood pressure result clinically significant?", "simpleDatatype": "Char"}, {"_links": {"codelist": [{"href": "/mdr/root/ct/sdtmct/codelists/C71148", "title": "Version-agnostic anchor resource for codelist C71148", "type": "Root Value Domain"}, {"href": "/mdr/root/ct/cdashct/codelists/C78431", "title": "Version-agnostic anchor resource for codelist C78431", "type": "Root Value Domain"}], "parentDomain": {"href": "/mdr/cdashig/2-0/domains/VS", "title": "Vital Signs", "type": "CDASH Domain"}, "parentProduct": {"href": "/mdr/cdashig/2-0", "title": "Clinical Data Acquisition Standards Harmonization Implementation Guide for Human Clinical Trials Version 2.0", "type": "Implementation Guide"}, "parentScenario": {"href": "/mdr/cdashig/2-0/scenarios/VS.Denormalized", "title": "VS - Denormalized - Implementation Options: Horizontal-Example", "type": "CDASH Scenario"}, "rootItem": {"href": "/mdr/root/cdashig/scenarios/VS.DenormalizedExample/fields/SYSBP_VSPOS", "title": "Version-agnostic anchor element for scenario field VS.DenormalizedExample.SYSBP_VSPOS", "type": "Root Data Element"}, "sdtmigDatasetMappingTargets": [{"href": "/mdr/sdtmig/3-2/datasets/VS/variables/VSPOS", "title": "Vital Signs Position of Subject", "type": "SDTM Dataset Variable"}], "self": {"href": "/mdr/cdashig/2-0/scenarios/VS.DenormalizedExample/fields/SYSBP_VSPOS", "title": "Systolic Blood Pressure Position of Subject", "type": "Data Collection Field"}}, "completionInstructions": "Record the position of subject at time of test (e.g. SITTING).", "core": "R/C", "definition": "The position of the subject during a measurement or examination.", "implementationNotes": "Results may be affected by whether conditions for vital signs as specified in the protocol were properly met. One common condition is the subject's position. If the protocol requires this type of information, then a CDASH variable [VSTESTCD]_VSPOS may be created for each VSTESTCD and added to the CRF if needed.", "label": "Systolic Blood Pressure Position of Subject", "mappingInstructions": "Maps directly to the SDTMIG variable listed in the column with the heading \"SDTMIG Target\".", "name": "SYSBP_VSPOS", "ordinal": "10", "prompt": "Systolic Blood Pressure Position", "questionText": "What was the position of the subject during the systolic blood pressure measurement?", "simpleDatatype": "Char"}, {"_links": {"parentDomain": {"href": "/mdr/cdashig/2-0/domains/VS", "title": "Vital Signs", "type": "CDASH Domain"}, "parentProduct": {"href": "/mdr/cdashig/2-0", "title": "Clinical Data Acquisition Standards Harmonization Implementation Guide for Human Clinical Trials Version 2.0", "type": "Implementation Guide"}, "parentScenario": {"href": "/mdr/cdashig/2-0/scenarios/VS.Denormalized", "title": "VS - Denormalized - Implementation Options: Horizontal-Example", "type": "CDASH Scenario"}, "rootItem": {"href": "/mdr/root/cdashig/scenarios/VS.DenormalizedExample/fields/SYSBP_VSLOC", "title": "Version-agnostic anchor element for scenario field VS.DenormalizedExample.SYSBP_VSLOC", "type": "Root Data Element"}, "sdtmigDatasetMappingTargets": [{"href": "/mdr/sdtmig/3-2/datasets/VS/variables/VSLOC", "title": "Location of Vital Signs Measurement", "type": "SDTM Dataset Variable"}], "self": {"href": "/mdr/cdashig/2-0/scenarios/VS.DenormalizedExample/fields/SYSBP_VSLOC", "title": "Systolic Blood Pressure Location", "type": "Data Collection Field"}}, "completionInstructions": "Record or select location on body where measurement was performed, if not pre-printed on CRF.", "core": "O", "definition": "A description of the anatomical location of the subject relevant to the collection of vital signs measurement.", "implementationNotes": "Collected or pre-printed when the sponsor needs to identify the specific anatomical location. Example: ARM for blood pressure. Sponsors may collect the data using a subset list of Controlled Terminology on the CRF. LAT, DIR, PORTOT are used to further describe the anatomical location.", "label": "Systolic Blood Pressure Location", "mappingInstructions": "Maps directly to the SDTMIG variable listed in the column with the heading \"SDTMIG Target\".", "name": "SYSBP_VSLOC", "ordinal": "11", "prompt": "Systolic Blood Pressure Anatomical Location", "questionText": "What was the anatomical location where the systolic blood pressure measurement was taken?", "simpleDatatype": "Char"}, {"_links": {"codelist": [{"href": "/mdr/root/ct/sdtmct/codelists/C99073", "title": "Version-agnostic anchor resource for codelist C99073", "type": "Root Value Domain"}], "parentDomain": {"href": "/mdr/cdashig/2-0/domains/VS", "title": "Vital Signs", "type": "CDASH Domain"}, "parentProduct": {"href": "/mdr/cdashig/2-0", "title": "Clinical Data Acquisition Standards Harmonization Implementation Guide for Human Clinical Trials Version 2.0", "type": "Implementation Guide"}, "parentScenario": {"href": "/mdr/cdashig/2-0/scenarios/VS.Denormalized", "title": "VS - Denormalized - Implementation Options: Horizontal-Example", "type": "CDASH Scenario"}, "rootItem": {"href": "/mdr/root/cdashig/scenarios/VS.DenormalizedExample/fields/SYSBP_VSLAT", "title": "Version-agnostic anchor element for scenario field VS.DenormalizedExample.SYSBP_VSLAT", "type": "Root Data Element"}, "sdtmigDatasetMappingTargets": [{"href": "/mdr/sdtmig/3-2/datasets/VS/variables/VSLAT", "title": "Laterality", "type": "SDTM Dataset Variable"}], "self": {"href": "/mdr/cdashig/2-0/scenarios/VS.DenormalizedExample/fields/SYSBP_VSLAT", "title": "Systolic Blood Pressure Laterality", "type": "Data Collection Field"}}, "completionInstructions": "Record the side of the anatomical location of the systolic blood pressure measurement.", "core": "O", "definition": "Qualifier for anatomical location further detailing the side of the body.", "implementationNotes": "Laterality is collected for each test on the horizontal record. May be pre-printed or collected when the sponsor needs to identify the specific side of the anatomical location. Sponsors may collect the data using a subset list of Controlled Terminology on the CRF.", "label": "Systolic Blood Pressure Laterality", "mappingInstructions": "Maps directly to the SDTMIG variable listed in the column with the heading \"SDTMIG Target\".", "name": "SYSBP_VSLAT", "ordinal": "12", "prompt": "Systolic Blood Pressure Side", "questionText": "What was the side of the anatomical location of the systolic blood pressure measurement?", "simpleDatatype": "Char"}, {"_links": {"parentDomain": {"href": "/mdr/cdashig/2-0/domains/VS", "title": "Vital Signs", "type": "CDASH Domain"}, "parentProduct": {"href": "/mdr/cdashig/2-0", "title": "Clinical Data Acquisition Standards Harmonization Implementation Guide for Human Clinical Trials Version 2.0", "type": "Implementation Guide"}, "parentScenario": {"href": "/mdr/cdashig/2-0/scenarios/VS.Denormalized", "title": "VS - Denormalized - Implementation Options: Horizontal-Example", "type": "CDASH Scenario"}, "rootItem": {"href": "/mdr/root/cdashig/scenarios/VS.DenormalizedExample/fields/DIABP_VSORRES", "title": "Version-agnostic anchor element for scenario field VS.DenormalizedExample.DIABP_VSORRES", "type": "Root Data Element"}, "sdtmigDatasetMappingTargets": [{"href": "/mdr/sdtmig/3-2/datasets/VS/variables/VSTESTCD", "title": "Vital Signs Test Short Name", "type": "SDTM Dataset Variable"}, {"href": "/mdr/sdtmig/3-2/datasets/VS/variables/VSORRES", "title": "Result or Finding in Original Units", "type": "SDTM Dataset Variable"}, {"href": "/mdr/sdtmig/3-2/datasets/VS/variables/VSTEST", "title": "Vital Signs Test Name", "type": "SDTM Dataset Variable"}], "self": {"href": "/mdr/cdashig/2-0/scenarios/VS.DenormalizedExample/fields/DIABP_VSORRES", "title": "Diastolic Blood Pressure", "type": "Data Collection Field"}}, "completionInstructions": "Record the vital sign result.", "core": "HR", "definition": "Result of the vital signs measurement as originally received or collected.", "implementationNotes": "N/A", "label": "Diastolic Blood Pressure", "mappingInstructions": "Maps directly to the SDTMIG variable listed in the column with the heading \"SDTMIG Target\". In addition to the SDTMIG variable VSORRES, create VSTESTCD from the CDASH variable name and determine the value of VSTEST from VSTESTCD. The CDASH prompt may also contain the VSTEST.", "name": "DIABP_VSORRES", "ordinal": "13", "prompt": "Diastolic Blood Pressure", "questionText": "What was the result of the diastolic blood pressure measurement?", "simpleDatatype": "Char"}, {"_links": {"codelist": [{"href": "/mdr/root/ct/sdtmct/codelists/C71620", "title": "Version-agnostic anchor resource for codelist C71620", "type": "Root Value Domain"}], "parentDomain": {"href": "/mdr/cdashig/2-0/domains/VS", "title": "Vital Signs", "type": "CDASH Domain"}, "parentProduct": {"href": "/mdr/cdashig/2-0", "title": "Clinical Data Acquisition Standards Harmonization Implementation Guide for Human Clinical Trials Version 2.0", "type": "Implementation Guide"}, "parentScenario": {"href": "/mdr/cdashig/2-0/scenarios/VS.Denormalized", "title": "VS - Denormalized - Implementation Options: Horizontal-Example", "type": "CDASH Scenario"}, "rootItem": {"href": "/mdr/root/cdashig/scenarios/VS.DenormalizedExample/fields/DIAPU_VSORRESU", "title": "Version-agnostic anchor element for scenario field VS.DenormalizedExample.DIAPU_VSORRESU", "type": "Root Data Element"}, "sdtmigDatasetMappingTargets": [{"href": "/mdr/sdtmig/3-2/datasets/VS/variables/VSORRESU", "title": "Original Units", "type": "SDTM Dataset Variable"}], "self": {"href": "/mdr/cdashig/2-0/scenarios/VS.DenormalizedExample/fields/DIAPU_VSORRESU", "title": "Diastolic Blood Pressure Unit", "type": "Data Collection Field"}}, "completionInstructions": "Record or select the original unit in which these data were collected, if not pre-printed on CRF.", "core": "R/C", "definition": "The unit of the result as originally received or collected.", "implementationNotes": "Should be pre-printed on the CRF with the associated test when possible, rather than collected in a field that requires the site to enter text.", "label": "Diastolic Blood Pressure Unit", "mappingInstructions": "Maps directly to the SDTMIG variable listed in the column with the heading \"SDTMIG Target\".", "name": "DIAPU_VSORRESU", "ordinal": "14", "prompt": "Diastolic Blood Pressure Unit", "questionText": "What was the unit of the diastolic blood pressure measurement?", "simpleDatatype": "Char"}, {"_links": {"parentDomain": {"href": "/mdr/cdashig/2-0/domains/VS", "title": "Vital Signs", "type": "CDASH Domain"}, "parentProduct": {"href": "/mdr/cdashig/2-0", "title": "Clinical Data Acquisition Standards Harmonization Implementation Guide for Human Clinical Trials Version 2.0", "type": "Implementation Guide"}, "parentScenario": {"href": "/mdr/cdashig/2-0/scenarios/VS.Denormalized", "title": "VS - Denormalized - Implementation Options: Horizontal-Example", "type": "CDASH Scenario"}, "rootItem": {"href": "/mdr/root/cdashig/scenarios/VS.DenormalizedExample/fields/DIABP_VSCLSIG", "title": "Version-agnostic anchor element for scenario field VS.DenormalizedExample.DIABP_VSCLSIG", "type": "Root Data Element"}, "sdtmigDatasetMappingTargets": [{"href": "/mdr/sdtmig/3-2/datasets/SUPPQUAL/variables/QVAL", "title": "Data Value", "type": "SDTM Dataset Variable"}], "self": {"href": "/mdr/cdashig/2-0/scenarios/VS.DenormalizedExample/fields/DIABP_VSCLSIG", "title": "Diastolic Blood Pressure Clinical Significance", "type": "Data Collection Field"}}, "completionInstructions": "Record whether the diastolic blood pressure result was clinically significant.", "core": "O", "definition": "An indication whether the diastolic blood pressure result was clinically significant.", "implementationNotes": "N/A", "label": "Diastolic Blood Pressure Clinical Significance", "mappingInstructions": "This does not map directly to an SDTMIG variable. This information could be submitted in a SUPPVS dataset as the value of SUPPVS.QVAL where SUPPVS.QNAM = \"VSCLSIG\" and SUPPVS.QLABEL=\"Clinically Significant\". Refer to the current SDTM and SDTMIG for instructions on placement of non-standard variables in SDTM domains.", "name": "DIABP_VSCLSIG", "ordinal": "15", "prompt": "Diastolic Blood Pressure Clinically Significant", "questionText": "Was the diastolic blood pressure result clinically significant?", "simpleDatatype": "Char"}, {"_links": {"codelist": [{"href": "/mdr/root/ct/sdtmct/codelists/C71148", "title": "Version-agnostic anchor resource for codelist C71148", "type": "Root Value Domain"}, {"href": "/mdr/root/ct/cdashct/codelists/C78431", "title": "Version-agnostic anchor resource for codelist C78431", "type": "Root Value Domain"}], "parentDomain": {"href": "/mdr/cdashig/2-0/domains/VS", "title": "Vital Signs", "type": "CDASH Domain"}, "parentProduct": {"href": "/mdr/cdashig/2-0", "title": "Clinical Data Acquisition Standards Harmonization Implementation Guide for Human Clinical Trials Version 2.0", "type": "Implementation Guide"}, "parentScenario": {"href": "/mdr/cdashig/2-0/scenarios/VS.Denormalized", "title": "VS - Denormalized - Implementation Options: Horizontal-Example", "type": "CDASH Scenario"}, "rootItem": {"href": "/mdr/root/cdashig/scenarios/VS.DenormalizedExample/fields/DIABP_VSPOS", "title": "Version-agnostic anchor element for scenario field VS.DenormalizedExample.DIABP_VSPOS", "type": "Root Data Element"}, "sdtmigDatasetMappingTargets": [{"href": "/mdr/sdtmig/3-2/datasets/VS/variables/VSPOS", "title": "Vital Signs Position of Subject", "type": "SDTM Dataset Variable"}], "self": {"href": "/mdr/cdashig/2-0/scenarios/VS.DenormalizedExample/fields/DIABP_VSPOS", "title": "Diastolic Blood Pressure Position of Subject", "type": "Data Collection Field"}}, "completionInstructions": "Record the position of subject at time of test (e.g. SITTING).", "core": "R/C", "definition": "The position of the subject during a measurement or examination.", "implementationNotes": "Results may be affected by whether conditions for vital signs as specified in the protocol were properly met. One common condition is the subject's position. If the protocol requires this type of information, then a CDASH variable [VSTESTCD]_VSPOS may be created for each VSTESTCD and added to the CRF, if needed.", "label": "Diastolic Blood Pressure Position of Subject", "mappingInstructions": "Maps directly to the SDTMIG variable listed in the column with the heading \"SDTMIG Target\".", "name": "DIABP_VSPOS", "ordinal": "16", "prompt": "Diastolic Blood Pressure Position", "questionText": "What was the position of the subject during the diastolic blood pressure measurement?", "simpleDatatype": "Char"}, {"_links": {"parentDomain": {"href": "/mdr/cdashig/2-0/domains/VS", "title": "Vital Signs", "type": "CDASH Domain"}, "parentProduct": {"href": "/mdr/cdashig/2-0", "title": "Clinical Data Acquisition Standards Harmonization Implementation Guide for Human Clinical Trials Version 2.0", "type": "Implementation Guide"}, "parentScenario": {"href": "/mdr/cdashig/2-0/scenarios/VS.Denormalized", "title": "VS - Denormalized - Implementation Options: Horizontal-Example", "type": "CDASH Scenario"}, "rootItem": {"href": "/mdr/root/cdashig/scenarios/VS.DenormalizedExample/fields/DIABP_VSLOC", "title": "Version-agnostic anchor element for scenario field VS.DenormalizedExample.DIABP_VSLOC", "type": "Root Data Element"}, "sdtmigDatasetMappingTargets": [{"href": "/mdr/sdtmig/3-2/datasets/VS/variables/VSLOC", "title": "Location of Vital Signs Measurement", "type": "SDTM Dataset Variable"}], "self": {"href": "/mdr/cdashig/2-0/scenarios/VS.DenormalizedExample/fields/DIABP_VSLOC", "title": "Diastolic Blood Pressure Location", "type": "Data Collection Field"}}, "completionInstructions": "Record or select location on body where measurement was performed, if not pre-printed on CRF.", "core": "O", "definition": "A description of the anatomical location of the subject relevant to the collection of vital signs measurement.", "implementationNotes": "Collected or pre-printed when the sponsor needs to identify the specific anatomical location. Example: ARM for blood pressure. Sponsors may collect the data using a subset list of Controlled Terminology on the CRF. LAT, DIR, PORTOT are used to further describe the anatomical location.", "label": "Diastolic Blood Pressure Location", "mappingInstructions": "Maps directly to the SDTMIG variable listed in the column with the heading \"SDTMIG Target\".", "name": "DIABP_VSLOC", "ordinal": "17", "prompt": "Diastolic Blood Pressure Anatomical Location", "questionText": "What was the anatomical location where the diastolic blood pressure measurement was taken?", "simpleDatatype": "Char"}, {"_links": {"codelist": [{"href": "/mdr/root/ct/sdtmct/codelists/C99073", "title": "Version-agnostic anchor resource for codelist C99073", "type": "Root Value Domain"}], "parentDomain": {"href": "/mdr/cdashig/2-0/domains/VS", "title": "Vital Signs", "type": "CDASH Domain"}, "parentProduct": {"href": "/mdr/cdashig/2-0", "title": "Clinical Data Acquisition Standards Harmonization Implementation Guide for Human Clinical Trials Version 2.0", "type": "Implementation Guide"}, "parentScenario": {"href": "/mdr/cdashig/2-0/scenarios/VS.Denormalized", "title": "VS - Denormalized - Implementation Options: Horizontal-Example", "type": "CDASH Scenario"}, "rootItem": {"href": "/mdr/root/cdashig/scenarios/VS.DenormalizedExample/fields/DIABP_VSLAT", "title": "Version-agnostic anchor element for scenario field VS.DenormalizedExample.DIABP_VSLAT", "type": "Root Data Element"}, "sdtmigDatasetMappingTargets": [{"href": "/mdr/sdtmig/3-2/datasets/VS/variables/VSLAT", "title": "Laterality", "type": "SDTM Dataset Variable"}], "self": {"href": "/mdr/cdashig/2-0/scenarios/VS.DenormalizedExample/fields/DIABP_VSLAT", "title": "Diastolic Blood Pressure Laterality", "type": "Data Collection Field"}}, "completionInstructions": "Record the side of the anatomical location of the Diastolic Blood Pressure measurement.", "core": "O", "definition": "Qualifier for anatomical location further detailing the side of the body.", "implementationNotes": "Laterality is collected for each test on the horizontal record. May be pre-printed or collected when the sponsor needs to identify the specific side of the anatomical location. Sponsors may collect the data using a subset list of Controlled Terminology on the CRF.", "label": "Diastolic Blood Pressure Laterality", "mappingInstructions": "Maps directly to the SDTMIG variable listed in the column with the heading \"SDTMIG Target\".", "name": "DIABP_VSLAT", "ordinal": "18", "prompt": "Diastolic Blood Pressure Side", "questionText": "What was the side of the anatomical location of the diastolic blood pressure measurement?", "simpleDatatype": "Char"}, {"_links": {"parentDomain": {"href": "/mdr/cdashig/2-0/domains/VS", "title": "Vital Signs", "type": "CDASH Domain"}, "parentProduct": {"href": "/mdr/cdashig/2-0", "title": "Clinical Data Acquisition Standards Harmonization Implementation Guide for Human Clinical Trials Version 2.0", "type": "Implementation Guide"}, "parentScenario": {"href": "/mdr/cdashig/2-0/scenarios/VS.Denormalized", "title": "VS - Denormalized - Implementation Options: Horizontal-Example", "type": "CDASH Scenario"}, "rootItem": {"href": "/mdr/root/cdashig/scenarios/VS.DenormalizedExample/fields/HR_VSORRES", "title": "Version-agnostic anchor element for scenario field VS.DenormalizedExample.HR_VSORRES", "type": "Root Data Element"}, "sdtmigDatasetMappingTargets": [{"href": "/mdr/sdtmig/3-2/datasets/VS/variables/VSORRES", "title": "Result or Finding in Original Units", "type": "SDTM Dataset Variable"}, {"href": "/mdr/sdtmig/3-2/datasets/VS/variables/VSTEST", "title": "Vital Signs Test Name", "type": "SDTM Dataset Variable"}, {"href": "/mdr/sdtmig/3-2/datasets/VS/variables/VSTESTCD", "title": "Vital Signs Test Short Name", "type": "SDTM Dataset Variable"}], "self": {"href": "/mdr/cdashig/2-0/scenarios/VS.DenormalizedExample/fields/HR_VSORRES", "title": "Heart Rate", "type": "Data Collection Field"}}, "completionInstructions": "Record the vital sign result.", "core": "HR", "definition": "Result of the vital signs measurement as originally received or collected.", "implementationNotes": "N/A", "label": "Heart Rate", "mappingInstructions": "Maps directly to the SDTMIG variable listed in the column with the heading \"SDTMIG Target\". In addition to the SDTMIG variable VSORRES, create VSTESTCD from the CDASH variable name and determine the value of VSTEST from VSTESTCD. The CDASH prompt may also contain the VSTEST.", "name": "HR_VSORRES", "ordinal": "19", "prompt": "Heart Rate", "questionText": "What was the result of the heart rate measurement?", "simpleDatatype": "Char"}, {"_links": {"codelist": [{"href": "/mdr/root/ct/sdtmct/codelists/C71620", "title": "Version-agnostic anchor resource for codelist C71620", "type": "Root Value Domain"}], "parentDomain": {"href": "/mdr/cdashig/2-0/domains/VS", "title": "Vital Signs", "type": "CDASH Domain"}, "parentProduct": {"href": "/mdr/cdashig/2-0", "title": "Clinical Data Acquisition Standards Harmonization Implementation Guide for Human Clinical Trials Version 2.0", "type": "Implementation Guide"}, "parentScenario": {"href": "/mdr/cdashig/2-0/scenarios/VS.Denormalized", "title": "VS - Denormalized - Implementation Options: Horizontal-Example", "type": "CDASH Scenario"}, "rootItem": {"href": "/mdr/root/cdashig/scenarios/VS.DenormalizedExample/fields/HR_VSORRESU", "title": "Version-agnostic anchor element for scenario field VS.DenormalizedExample.HR_VSORRESU", "type": "Root Data Element"}, "sdtmigDatasetMappingTargets": [{"href": "/mdr/sdtmig/3-2/datasets/VS/variables/VSORRESU", "title": "Original Units", "type": "SDTM Dataset Variable"}], "self": {"href": "/mdr/cdashig/2-0/scenarios/VS.DenormalizedExample/fields/HR_VSORRESU", "title": "Heart Rate Unit", "type": "Data Collection Field"}}, "completionInstructions": "Record or select the original unit in which these data were collected, if not pre-printed on CRF.", "core": "R/C", "definition": "The unit of the result as originally received or collected.", "implementationNotes": "Should be pre-printed on the CRF with the associated test when possible, rather than collected in a field that requires the site to enter text.", "label": "Heart Rate Unit", "mappingInstructions": "Maps directly to the SDTMIG variable listed in the column with the heading \"SDTMIG Target\".", "name": "HR_VSORRESU", "ordinal": "20", "prompt": "Heart Rate Unit", "questionText": "What was the unit of the heart rate measurement?", "simpleDatatype": "Char"}, {"_links": {"parentDomain": {"href": "/mdr/cdashig/2-0/domains/VS", "title": "Vital Signs", "type": "CDASH Domain"}, "parentProduct": {"href": "/mdr/cdashig/2-0", "title": "Clinical Data Acquisition Standards Harmonization Implementation Guide for Human Clinical Trials Version 2.0", "type": "Implementation Guide"}, "parentScenario": {"href": "/mdr/cdashig/2-0/scenarios/VS.Denormalized", "title": "VS - Denormalized - Implementation Options: Horizontal-Example", "type": "CDASH Scenario"}, "rootItem": {"href": "/mdr/root/cdashig/scenarios/VS.DenormalizedExample/fields/HR_VSCLSIG", "title": "Version-agnostic anchor element for scenario field VS.DenormalizedExample.HR_VSCLSIG", "type": "Root Data Element"}, "sdtmigDatasetMappingTargets": [{"href": "/mdr/sdtmig/3-2/datasets/SUPPQUAL/variables/QVAL", "title": "Data Value", "type": "SDTM Dataset Variable"}], "self": {"href": "/mdr/cdashig/2-0/scenarios/VS.DenormalizedExample/fields/HR_VSCLSIG", "title": "Heart Rate Clinical Significance", "type": "Data Collection Field"}}, "completionInstructions": "Record whether the heart rate result was clinically significant.", "core": "O", "definition": "An indication whether the heart rate result was clinically significant.", "implementationNotes": "N/A", "label": "Heart Rate Clinical Significance", "mappingInstructions": "This does not map directly to an SDTMIG variable. This information could be submitted in a SUPPVS dataset as the value of SUPPVS.QVAL where SUPPVS.QNAM=\"VSCLSIG\" and SUPPVS.QLABEL=\"Clinically Significant\". Refer to the current SDTM and SDTMIG for instructions on placement of non-standard variables in SDTM domains.", "name": "HR_VSCLSIG", "ordinal": "21", "prompt": "Heart Rate Clinically Significant", "questionText": "Was the heart rate result clinically significant?", "simpleDatatype": "Char"}, {"_links": {"codelist": [{"href": "/mdr/root/ct/sdtmct/codelists/C71148", "title": "Version-agnostic anchor resource for codelist C71148", "type": "Root Value Domain"}, {"href": "/mdr/root/ct/cdashct/codelists/C78431", "title": "Version-agnostic anchor resource for codelist C78431", "type": "Root Value Domain"}], "parentDomain": {"href": "/mdr/cdashig/2-0/domains/VS", "title": "Vital Signs", "type": "CDASH Domain"}, "parentProduct": {"href": "/mdr/cdashig/2-0", "title": "Clinical Data Acquisition Standards Harmonization Implementation Guide for Human Clinical Trials Version 2.0", "type": "Implementation Guide"}, "parentScenario": {"href": "/mdr/cdashig/2-0/scenarios/VS.Denormalized", "title": "VS - Denormalized - Implementation Options: Horizontal-Example", "type": "CDASH Scenario"}, "rootItem": {"href": "/mdr/root/cdashig/scenarios/VS.DenormalizedExample/fields/HR_VSPOS", "title": "Version-agnostic anchor element for scenario field VS.DenormalizedExample.HR_VSPOS", "type": "Root Data Element"}, "sdtmigDatasetMappingTargets": [{"href": "/mdr/sdtmig/3-2/datasets/VS/variables/VSPOS", "title": "Vital Signs Position of Subject", "type": "SDTM Dataset Variable"}], "self": {"href": "/mdr/cdashig/2-0/scenarios/VS.DenormalizedExample/fields/HR_VSPOS", "title": "Heart Rate Position of Subject", "type": "Data Collection Field"}}, "completionInstructions": "Record the position of subject at time of test (e.g. SITTING).", "core": "R/C", "definition": "The position of the subject during a measurement or examination.", "implementationNotes": "Results may be affected by whether conditions for vital signs as specified in the protocol were properly met. One common condition is the subject's position. If the protocol requires this type of information, then a CDASH variable [VSTESTCD]_VSPOS may be created for each VSTESTCD and added to the CRF, if needed.", "label": "Heart Rate Position of Subject", "mappingInstructions": "Maps directly to the SDTMIG variable listed in the column with the heading \"SDTMIG Target\".", "name": "HR_VSPOS", "ordinal": "22", "prompt": "Heart Rate Position", "questionText": "What was the position of the subject during the heart rate measurement?", "simpleDatatype": "Char"}, {"_links": {"parentDomain": {"href": "/mdr/cdashig/2-0/domains/VS", "title": "Vital Signs", "type": "CDASH Domain"}, "parentProduct": {"href": "/mdr/cdashig/2-0", "title": "Clinical Data Acquisition Standards Harmonization Implementation Guide for Human Clinical Trials Version 2.0", "type": "Implementation Guide"}, "parentScenario": {"href": "/mdr/cdashig/2-0/scenarios/VS.Denormalized", "title": "VS - Denormalized - Implementation Options: Horizontal-Example", "type": "CDASH Scenario"}, "rootItem": {"href": "/mdr/root/cdashig/scenarios/VS.DenormalizedExample/fields/HR_VSLOC", "title": "Version-agnostic anchor element for scenario field VS.DenormalizedExample.HR_VSLOC", "type": "Root Data Element"}, "sdtmigDatasetMappingTargets": [{"href": "/mdr/sdtmig/3-2/datasets/VS/variables/VSLOC", "title": "Location of Vital Signs Measurement", "type": "SDTM Dataset Variable"}], "self": {"href": "/mdr/cdashig/2-0/scenarios/VS.DenormalizedExample/fields/HR_VSLOC", "title": "Heart Rate Location", "type": "Data Collection Field"}}, "completionInstructions": "Record or select location on body where measurement was performed, if not pre-printed on CRF.", "core": "O", "definition": "A description of the anatomical location of the subject relevant to the collection of vital signs measurement.", "implementationNotes": "Collected or pre-printed when the sponsor needs to identify the specific anatomical location. Example: ARM for blood pressure. Sponsors may collect the data using a subset list of Controlled Terminology on the CRF. LAT, DIR, PORTOT are used to further describe the anatomical location.", "label": "Heart Rate Location", "mappingInstructions": "Maps directly to the SDTMIG variable listed in the column with the heading \"SDTMIG Target\".", "name": "HR_VSLOC", "ordinal": "23", "prompt": "Heart Rate Anatomical Location", "questionText": "What was the anatomical location where the heart rate measurement was taken?", "simpleDatatype": "Char"}, {"_links": {"codelist": [{"href": "/mdr/root/ct/sdtmct/codelists/C99073", "title": "Version-agnostic anchor resource for codelist C99073", "type": "Root Value Domain"}], "parentDomain": {"href": "/mdr/cdashig/2-0/domains/VS", "title": "Vital Signs", "type": "CDASH Domain"}, "parentProduct": {"href": "/mdr/cdashig/2-0", "title": "Clinical Data Acquisition Standards Harmonization Implementation Guide for Human Clinical Trials Version 2.0", "type": "Implementation Guide"}, "parentScenario": {"href": "/mdr/cdashig/2-0/scenarios/VS.Denormalized", "title": "VS - Denormalized - Implementation Options: Horizontal-Example", "type": "CDASH Scenario"}, "rootItem": {"href": "/mdr/root/cdashig/scenarios/VS.DenormalizedExample/fields/HR_VSLAT", "title": "Version-agnostic anchor element for scenario field VS.DenormalizedExample.HR_VSLAT", "type": "Root Data Element"}, "sdtmigDatasetMappingTargets": [{"href": "/mdr/sdtmig/3-2/datasets/VS/variables/VSLAT", "title": "Laterality", "type": "SDTM Dataset Variable"}], "self": {"href": "/mdr/cdashig/2-0/scenarios/VS.DenormalizedExample/fields/HR_VSLAT", "title": "Heart Rate Laterality", "type": "Data Collection Field"}}, "completionInstructions": "Record the side of the anatomical location of the Heart Rate measurement.", "core": "O", "definition": "Qualifier for anatomical location further detailing the side of the body.", "implementationNotes": "Laterality is collected for each test on the horizontal record. May be pre-printed or collected when the sponsor needs to identify the specific side of the anatomical location. Sponsors may collect the data using a subset list of Controlled Terminology on the CRF.", "label": "Heart Rate Laterality", "mappingInstructions": "Maps directly to the SDTMIG variable listed in the column with the heading \"SDTMIG Target\".", "name": "HR_VSLAT", "ordinal": "24", "prompt": "Heart Rate Side", "questionText": "What was the side of the anatomical location of the heart rate measurement?", "simpleDatatype": "Char"}], "ordinal": "20", "scenario": "VS - Denormalized - Implementation Options: Horizontal-Example"}
