{"_links": {"parentClass": {"href": "/mdr/sdtmig/3-4/classes/Interventions", "title": "Interventions", "type": "Class"}, "parentProduct": {"href": "/mdr/sdtmig/3-4", "title": "Study Data Tabulation Model Implementation Guide: Human Clinical Trials", "type": "Implementation Guide"}, "priorVersion": {"href": "/mdr/sdtmig/3-3/datasets/AG", "title": "Procedure Agents", "type": "SDTM Dataset"}, "self": {"href": "/mdr/sdtmig/3-4/datasets/AG", "title": "Procedure Agents", "type": "SDTM Dataset"}}, "datasetStructure": "One record per recorded intervention occurrence per subject", "datasetVariables": [{"_links": {"modelClassVariable": {"href": "/mdr/sdtm/2-0/classes/GeneralObservations/variables/STUDYID", "title": "Study Identifier", "type": "SDTM Class Variable"}, "parentDataset": {"href": "/mdr/sdtmig/3-4/datasets/AG", "title": "Procedure Agents", "type": "SDTM Dataset"}, "parentProduct": {"href": "/mdr/sdtmig/3-4", "title": "Study Data Tabulation Model Implementation Guide: Human Clinical Trials", "type": "Implementation Guide"}, "priorVersion": {"href": "/mdr/sdtmig/3-3/datasets/AG/variables/STUDYID", "title": "Study Identifier", "type": "SDTM Dataset Variable"}, "rootItem": {"href": "/mdr/root/sdtmig/datasets/AG/variables/STUDYID", "title": "Version-agnostic anchor resource for SDTMIG variable AG.STUDYID", "type": "Root Data Element"}, "self": {"href": "/mdr/sdtmig/3-4/datasets/AG/variables/STUDYID", "title": "Study Identifier", "type": "SDTM Dataset Variable"}}, "core": "Req", "description": "Unique identifier for a study.", "label": "Study Identifier", "name": "STUDYID", "ordinal": "1", "role": "Identifier", "simpleDatatype": "Char"}, {"_links": {"modelClassVariable": {"href": "/mdr/sdtm/2-0/classes/GeneralObservations/variables/DOMAIN", "title": "Domain Abbreviation", "type": "SDTM Class Variable"}, "parentDataset": {"href": "/mdr/sdtmig/3-4/datasets/AG", "title": "Procedure Agents", "type": "SDTM Dataset"}, "parentProduct": {"href": "/mdr/sdtmig/3-4", "title": "Study Data Tabulation Model Implementation Guide: Human Clinical Trials", "type": "Implementation Guide"}, "priorVersion": {"href": "/mdr/sdtmig/3-3/datasets/AG/variables/DOMAIN", "title": "Domain Abbreviation", "type": "SDTM Dataset Variable"}, "rootItem": {"href": "/mdr/root/sdtmig/datasets/AG/variables/DOMAIN", "title": "Version-agnostic anchor resource for SDTMIG variable AG.DOMAIN", "type": "Root Data Element"}, "self": {"href": "/mdr/sdtmig/3-4/datasets/AG/variables/DOMAIN", "title": "Domain Abbreviation", "type": "SDTM Dataset Variable"}}, "core": "Req", "description": "Two-character abbreviation for the domain.", "label": "Domain Abbreviation", "name": "DOMAIN", "ordinal": "2", "role": "Identifier", "simpleDatatype": "Char", "valueList": ["AG"]}, {"_links": {"modelClassVariable": {"href": "/mdr/sdtm/2-0/classes/GeneralObservations/variables/USUBJID", "title": "Unique Subject Identifier", "type": "SDTM Class Variable"}, "parentDataset": {"href": "/mdr/sdtmig/3-4/datasets/AG", "title": "Procedure Agents", "type": "SDTM Dataset"}, "parentProduct": {"href": "/mdr/sdtmig/3-4", "title": "Study Data Tabulation Model Implementation Guide: Human Clinical Trials", "type": "Implementation Guide"}, "priorVersion": {"href": "/mdr/sdtmig/3-3/datasets/AG/variables/USUBJID", "title": "Unique Subject Identifier", "type": "SDTM Dataset Variable"}, "rootItem": {"href": "/mdr/root/sdtmig/datasets/AG/variables/USUBJID", "title": "Version-agnostic anchor resource for SDTMIG variable AG.USUBJID", "type": "Root Data Element"}, "self": {"href": "/mdr/sdtmig/3-4/datasets/AG/variables/USUBJID", "title": "Unique Subject Identifier", "type": "SDTM Dataset Variable"}}, "core": "Req", "description": "Identifier used to uniquely identify a subject across all studies for all applications or submissions involving the product.", "label": "Unique Subject Identifier", "name": "USUBJID", "ordinal": "3", "role": "Identifier", "simpleDatatype": "Char"}, {"_links": {"modelClassVariable": {"href": "/mdr/sdtm/2-0/classes/GeneralObservations/variables/--SEQ", "title": "Sequence Number", "type": "SDTM Class Variable"}, "parentDataset": {"href": "/mdr/sdtmig/3-4/datasets/AG", "title": "Procedure Agents", "type": "SDTM Dataset"}, "parentProduct": {"href": "/mdr/sdtmig/3-4", "title": "Study Data Tabulation Model Implementation Guide: Human Clinical Trials", "type": "Implementation Guide"}, "priorVersion": {"href": "/mdr/sdtmig/3-3/datasets/AG/variables/AGSEQ", "title": "Sequence Number", "type": "SDTM Dataset Variable"}, "rootItem": {"href": "/mdr/root/sdtmig/datasets/AG/variables/AGSEQ", "title": "Version-agnostic anchor resource for SDTMIG variable AG.AGSEQ", "type": "Root Data Element"}, "self": {"href": "/mdr/sdtmig/3-4/datasets/AG/variables/AGSEQ", "title": "Sequence Number", "type": "SDTM Dataset Variable"}}, "core": "Req", "description": "Sequence number given to ensure uniqueness of subject records within a domain. May be any valid number.", "label": "Sequence Number", "name": "AGSEQ", "ordinal": "4", "role": "Identifier", "simpleDatatype": "Num"}, {"_links": {"modelClassVariable": {"href": "/mdr/sdtm/2-0/classes/GeneralObservations/variables/--GRPID", "title": "Group ID", "type": "SDTM Class Variable"}, "parentDataset": {"href": "/mdr/sdtmig/3-4/datasets/AG", "title": "Procedure Agents", "type": "SDTM Dataset"}, "parentProduct": {"href": "/mdr/sdtmig/3-4", "title": "Study Data Tabulation Model Implementation Guide: Human Clinical Trials", "type": "Implementation Guide"}, "priorVersion": {"href": "/mdr/sdtmig/3-3/datasets/AG/variables/AGGRPID", "title": "Group ID", "type": "SDTM Dataset Variable"}, "rootItem": {"href": "/mdr/root/sdtmig/datasets/AG/variables/AGGRPID", "title": "Version-agnostic anchor resource for SDTMIG variable AG.AGGRPID", "type": "Root Data Element"}, "self": {"href": "/mdr/sdtmig/3-4/datasets/AG/variables/AGGRPID", "title": "Group ID", "type": "SDTM Dataset Variable"}}, "core": "Perm", "description": "Used to tie together a block of related records in a single domain for a subject.", "label": "Group ID", "name": "AGGRPID", "ordinal": "5", "role": "Identifier", "simpleDatatype": "Char"}, {"_links": {"modelClassVariable": {"href": "/mdr/sdtm/2-0/classes/GeneralObservations/variables/--SPID", "title": "Sponsor-Defined Identifier", "type": "SDTM Class Variable"}, "parentDataset": {"href": "/mdr/sdtmig/3-4/datasets/AG", "title": "Procedure Agents", "type": "SDTM Dataset"}, "parentProduct": {"href": "/mdr/sdtmig/3-4", "title": "Study Data Tabulation Model Implementation Guide: Human Clinical Trials", "type": "Implementation Guide"}, "priorVersion": {"href": "/mdr/sdtmig/3-3/datasets/AG/variables/AGSPID", "title": "Sponsor-Defined Identifier", "type": "SDTM Dataset Variable"}, "rootItem": {"href": "/mdr/root/sdtmig/datasets/AG/variables/AGSPID", "title": "Version-agnostic anchor resource for SDTMIG variable AG.AGSPID", "type": "Root Data Element"}, "self": {"href": "/mdr/sdtmig/3-4/datasets/AG/variables/AGSPID", "title": "Sponsor-Defined Identifier", "type": "SDTM Dataset Variable"}}, "core": "Perm", "description": "Sponsor-defined reference number. May be preprinted on the CRF as an explicit line identifier or defined in the sponsor's operational database. Example: Line number from the procedure or test page.", "label": "Sponsor-Defined Identifier", "name": "AGSPID", "ordinal": "6", "role": "Identifier", "simpleDatatype": "Char"}, {"_links": {"modelClassVariable": {"href": "/mdr/sdtm/2-0/classes/GeneralObservations/variables/--LNKID", "title": "Link ID", "type": "SDTM Class Variable"}, "parentDataset": {"href": "/mdr/sdtmig/3-4/datasets/AG", "title": "Procedure Agents", "type": "SDTM Dataset"}, "parentProduct": {"href": "/mdr/sdtmig/3-4", "title": "Study Data Tabulation Model Implementation Guide: Human Clinical Trials", "type": "Implementation Guide"}, "priorVersion": {"href": "/mdr/sdtmig/3-3/datasets/AG/variables/AGLNKID", "title": "Link ID", "type": "SDTM Dataset Variable"}, "rootItem": {"href": "/mdr/root/sdtmig/datasets/AG/variables/AGLNKID", "title": "Version-agnostic anchor resource for SDTMIG variable AG.AGLNKID", "type": "Root Data Element"}, "self": {"href": "/mdr/sdtmig/3-4/datasets/AG/variables/AGLNKID", "title": "Link ID", "type": "SDTM Dataset Variable"}}, "core": "Perm", "description": "Identifier used to link related records across domains.This may be a one-to-one or a one-to-many relationship.", "label": "Link ID", "name": "AGLNKID", "ordinal": "7", "role": "Identifier", "simpleDatatype": "Char"}, {"_links": {"modelClassVariable": {"href": "/mdr/sdtm/2-0/classes/GeneralObservations/variables/--LNKGRP", "title": "Link Group ID", "type": "SDTM Class Variable"}, "parentDataset": {"href": "/mdr/sdtmig/3-4/datasets/AG", "title": "Procedure Agents", "type": "SDTM Dataset"}, "parentProduct": {"href": "/mdr/sdtmig/3-4", "title": "Study Data Tabulation Model Implementation Guide: Human Clinical Trials", "type": "Implementation Guide"}, "priorVersion": {"href": "/mdr/sdtmig/3-3/datasets/AG/variables/AGLNKGRP", "title": "Link Group ID", "type": "SDTM Dataset Variable"}, "rootItem": {"href": "/mdr/root/sdtmig/datasets/AG/variables/AGLNKGRP", "title": "Version-agnostic anchor resource for SDTMIG variable AG.AGLNKGRP", "type": "Root Data Element"}, "self": {"href": "/mdr/sdtmig/3-4/datasets/AG/variables/AGLNKGRP", "title": "Link Group ID", "type": "SDTM Dataset Variable"}}, "core": "Perm", "description": "Identifier used to link related records across domains.This will usually be a many-to-one relationship.", "label": "Link Group ID", "name": "AGLNKGRP", "ordinal": "8", "role": "Identifier", "simpleDatatype": "Char"}, {"_links": {"modelClassVariable": {"href": "/mdr/sdtm/2-0/classes/Interventions/variables/--TRT", "title": "Name of Treatment", "type": "SDTM Class Variable"}, "parentDataset": {"href": "/mdr/sdtmig/3-4/datasets/AG", "title": "Procedure Agents", "type": "SDTM Dataset"}, "parentProduct": {"href": "/mdr/sdtmig/3-4", "title": "Study Data Tabulation Model Implementation Guide: Human Clinical Trials", "type": "Implementation Guide"}, "priorVersion": {"href": "/mdr/sdtmig/3-3/datasets/AG/variables/AGTRT", "title": "Reported Agent Name", "type": "SDTM Dataset Variable"}, "rootItem": {"href": "/mdr/root/sdtmig/datasets/AG/variables/AGTRT", "title": "Version-agnostic anchor resource for SDTMIG variable AG.AGTRT", "type": "Root Data Element"}, "self": {"href": "/mdr/sdtmig/3-4/datasets/AG/variables/AGTRT", "title": "Reported Agent Name", "type": "SDTM Dataset Variable"}}, "core": "Req", "description": "Verbatim medication name that is either preprinted or collected on a CRF.", "label": "Reported Agent Name", "name": "AGTRT", "ordinal": "9", "role": "Topic", "simpleDatatype": "Char"}, {"_links": {"modelClassVariable": {"href": "/mdr/sdtm/2-0/classes/Interventions/variables/--MODIFY", "title": "Modified Treatment Name", "type": "SDTM Class Variable"}, "parentDataset": {"href": "/mdr/sdtmig/3-4/datasets/AG", "title": "Procedure Agents", "type": "SDTM Dataset"}, "parentProduct": {"href": "/mdr/sdtmig/3-4", "title": "Study Data Tabulation Model Implementation Guide: Human Clinical Trials", "type": "Implementation Guide"}, "priorVersion": {"href": "/mdr/sdtmig/3-3/datasets/AG/variables/AGMODIFY", "title": "Modified Reported Name", "type": "SDTM Dataset Variable"}, "rootItem": {"href": "/mdr/root/sdtmig/datasets/AG/variables/AGMODIFY", "title": "Version-agnostic anchor resource for SDTMIG variable AG.AGMODIFY", "type": "Root Data Element"}, "self": {"href": "/mdr/sdtmig/3-4/datasets/AG/variables/AGMODIFY", "title": "Modified Reported Name", "type": "SDTM Dataset Variable"}}, "core": "Perm", "description": "If AGTRT is modified to facilitate coding, then AGMODIFY will contain the modified text.", "label": "Modified Reported Name", "name": "AGMODIFY", "ordinal": "10", "role": "Synonym Qualifier", "simpleDatatype": "Char"}, {"_links": {"modelClassVariable": {"href": "/mdr/sdtm/2-0/classes/Interventions/variables/--DECOD", "title": "Standardized Treatment Name", "type": "SDTM Class Variable"}, "parentDataset": {"href": "/mdr/sdtmig/3-4/datasets/AG", "title": "Procedure Agents", "type": "SDTM Dataset"}, "parentProduct": {"href": "/mdr/sdtmig/3-4", "title": "Study Data Tabulation Model Implementation Guide: Human Clinical Trials", "type": "Implementation Guide"}, "priorVersion": {"href": "/mdr/sdtmig/3-3/datasets/AG/variables/AGDECOD", "title": "Standardized Agent Name", "type": "SDTM Dataset Variable"}, "rootItem": {"href": "/mdr/root/sdtmig/datasets/AG/variables/AGDECOD", "title": "Version-agnostic anchor resource for SDTMIG variable AG.AGDECOD", "type": "Root Data Element"}, "self": {"href": "/mdr/sdtmig/3-4/datasets/AG/variables/AGDECOD", "title": "Standardized Agent Name", "type": "SDTM Dataset Variable"}}, "core": "Perm", "description": "Standardized or dictionary-derived text description of AGTRT or AGMODIFY. Equivalent to the generic medication name in WHO Drug. The sponsor is expected to provide the dictionary name and version used to map the terms utilizing the external codelist element in the Define-XML document. If an intervention term does not have a decode value in the dictionary, then AGDECOD will be left blank.", "label": "Standardized Agent Name", "name": "AGDECOD", "ordinal": "11", "role": "Synonym Qualifier", "simpleDatatype": "Char"}, {"_links": {"modelClassVariable": {"href": "/mdr/sdtm/2-0/classes/Interventions/variables/--CAT", "title": "Category", "type": "SDTM Class Variable"}, "parentDataset": {"href": "/mdr/sdtmig/3-4/datasets/AG", "title": "Procedure Agents", "type": "SDTM Dataset"}, "parentProduct": {"href": "/mdr/sdtmig/3-4", "title": "Study Data Tabulation Model Implementation Guide: Human Clinical Trials", "type": "Implementation Guide"}, "priorVersion": {"href": "/mdr/sdtmig/3-3/datasets/AG/variables/AGCAT", "title": "Category for Agent", "type": "SDTM Dataset Variable"}, "rootItem": {"href": "/mdr/root/sdtmig/datasets/AG/variables/AGCAT", "title": "Version-agnostic anchor resource for SDTMIG variable AG.AGCAT", "type": "Root Data Element"}, "self": {"href": "/mdr/sdtmig/3-4/datasets/AG/variables/AGCAT", "title": "Category for Agent", "type": "SDTM Dataset Variable"}}, "core": "Perm", "description": "Used to define a category of agent. Examples: \"CHALLENGE AGENT\", \"PET TRACER\".", "label": "Category for Agent", "name": "AGCAT", "ordinal": "12", "role": "Grouping Qualifier", "simpleDatatype": "Char"}, {"_links": {"modelClassVariable": {"href": "/mdr/sdtm/2-0/classes/Interventions/variables/--SCAT", "title": "Subcategory", "type": "SDTM Class Variable"}, "parentDataset": {"href": "/mdr/sdtmig/3-4/datasets/AG", "title": "Procedure Agents", "type": "SDTM Dataset"}, "parentProduct": {"href": "/mdr/sdtmig/3-4", "title": "Study Data Tabulation Model Implementation Guide: Human Clinical Trials", "type": "Implementation Guide"}, "priorVersion": {"href": "/mdr/sdtmig/3-3/datasets/AG/variables/AGSCAT", "title": "Subcategory for Agent", "type": "SDTM Dataset Variable"}, "rootItem": {"href": "/mdr/root/sdtmig/datasets/AG/variables/AGSCAT", "title": "Version-agnostic anchor resource for SDTMIG variable AG.AGSCAT", "type": "Root Data Element"}, "self": {"href": "/mdr/sdtmig/3-4/datasets/AG/variables/AGSCAT", "title": "Subcategory for Agent", "type": "SDTM Dataset Variable"}}, "core": "Perm", "description": "Further categorization of agent.", "label": "Subcategory for Agent", "name": "AGSCAT", "ordinal": "13", "role": "Grouping Qualifier", "simpleDatatype": "Char"}, {"_links": {"codelist": [{"href": "/mdr/root/ct/sdtmct/codelists/C66742", "title": "Version-agnostic anchor resource for codelist C66742", "type": "Root Value Domain"}], "modelClassVariable": {"href": "/mdr/sdtm/2-0/classes/Interventions/variables/--PRESP", "title": "Pre-Specified", "type": "SDTM Class Variable"}, "parentDataset": {"href": "/mdr/sdtmig/3-4/datasets/AG", "title": "Procedure Agents", "type": "SDTM Dataset"}, "parentProduct": {"href": "/mdr/sdtmig/3-4", "title": "Study Data Tabulation Model Implementation Guide: Human Clinical Trials", "type": "Implementation Guide"}, "priorVersion": {"href": "/mdr/sdtmig/3-3/datasets/AG/variables/AGPRESP", "title": "AG Pre-Specified", "type": "SDTM Dataset Variable"}, "rootItem": {"href": "/mdr/root/sdtmig/datasets/AG/variables/AGPRESP", "title": "Version-agnostic anchor resource for SDTMIG variable AG.AGPRESP", "type": "Root Data Element"}, "self": {"href": "/mdr/sdtmig/3-4/datasets/AG/variables/AGPRESP", "title": "AG Pre-Specified", "type": "SDTM Dataset Variable"}}, "core": "Perm", "description": "Used to indicate whether (\"Y\"/null) information about the use of a specific agent was solicited on the CRF.", "label": "AG Pre-Specified", "name": "AGPRESP", "ordinal": "14", "role": "Variable Qualifier", "simpleDatatype": "Char"}, {"_links": {"codelist": [{"href": "/mdr/root/ct/sdtmct/codelists/C66742", "title": "Version-agnostic anchor resource for codelist C66742", "type": "Root Value Domain"}], "modelClassVariable": {"href": "/mdr/sdtm/2-0/classes/Interventions/variables/--OCCUR", "title": "Occurrence Indicator", "type": "SDTM Class Variable"}, "parentDataset": {"href": "/mdr/sdtmig/3-4/datasets/AG", "title": "Procedure Agents", "type": "SDTM Dataset"}, "parentProduct": {"href": "/mdr/sdtmig/3-4", "title": "Study Data Tabulation Model Implementation Guide: Human Clinical Trials", "type": "Implementation Guide"}, "priorVersion": {"href": "/mdr/sdtmig/3-3/datasets/AG/variables/AGOCCUR", "title": "AG Occurrence", "type": "SDTM Dataset Variable"}, "rootItem": {"href": "/mdr/root/sdtmig/datasets/AG/variables/AGOCCUR", "title": "Version-agnostic anchor resource for SDTMIG variable AG.AGOCCUR", "type": "Root Data Element"}, "self": {"href": "/mdr/sdtmig/3-4/datasets/AG/variables/AGOCCUR", "title": "AG Occurrence", "type": "SDTM Dataset Variable"}}, "core": "Perm", "description": "When the use of specific agent is solicited, AGOCCUR is used to indicate whether (\"Y\"/\"N\") use of the agent occurred. Values are null for agents not specifically solicited.", "label": "AG Occurrence", "name": "AGOCCUR", "ordinal": "15", "role": "Record Qualifier", "simpleDatatype": "Char"}, {"_links": {"codelist": [{"href": "/mdr/root/ct/sdtmct/codelists/C66789", "title": "Version-agnostic anchor resource for codelist C66789", "type": "Root Value Domain"}], "modelClassVariable": {"href": "/mdr/sdtm/2-0/classes/Interventions/variables/--STAT", "title": "Completion Status", "type": "SDTM Class Variable"}, "parentDataset": {"href": "/mdr/sdtmig/3-4/datasets/AG", "title": "Procedure Agents", "type": "SDTM Dataset"}, "parentProduct": {"href": "/mdr/sdtmig/3-4", "title": "Study Data Tabulation Model Implementation Guide: Human Clinical Trials", "type": "Implementation Guide"}, "priorVersion": {"href": "/mdr/sdtmig/3-3/datasets/AG/variables/AGSTAT", "title": "Completion Status", "type": "SDTM Dataset Variable"}, "rootItem": {"href": "/mdr/root/sdtmig/datasets/AG/variables/AGSTAT", "title": "Version-agnostic anchor resource for SDTMIG variable AG.AGSTAT", "type": "Root Data Element"}, "self": {"href": "/mdr/sdtmig/3-4/datasets/AG/variables/AGSTAT", "title": "Completion Status", "type": "SDTM Dataset Variable"}}, "core": "Perm", "description": "Used to indicate that a question about a prespecified agent was not answered. Should be null or have a value of \"NOT DONE\".", "label": "Completion Status", "name": "AGSTAT", "ordinal": "16", "role": "Record Qualifier", "simpleDatatype": "Char"}, {"_links": {"modelClassVariable": {"href": "/mdr/sdtm/2-0/classes/Interventions/variables/--REASND", "title": "Reason Not Done", "type": "SDTM Class Variable"}, "parentDataset": {"href": "/mdr/sdtmig/3-4/datasets/AG", "title": "Procedure Agents", "type": "SDTM Dataset"}, "parentProduct": {"href": "/mdr/sdtmig/3-4", "title": "Study Data Tabulation Model Implementation Guide: Human Clinical Trials", "type": "Implementation Guide"}, "priorVersion": {"href": "/mdr/sdtmig/3-3/datasets/AG/variables/AGREASND", "title": "Reason Procedure Agent Not Collected", "type": "SDTM Dataset Variable"}, "rootItem": {"href": "/mdr/root/sdtmig/datasets/AG/variables/AGREASND", "title": "Version-agnostic anchor resource for SDTMIG variable AG.AGREASND", "type": "Root Data Element"}, "self": {"href": "/mdr/sdtmig/3-4/datasets/AG/variables/AGREASND", "title": "Reason Procedure Agent Not Collected", "type": "SDTM Dataset Variable"}}, "core": "Perm", "description": "Describes the reason a response to a question about the occurrence of a procedure agent was not collected. Used in conjunction with AGSTAT when value is \"NOT DONE\".", "label": "Reason Procedure Agent Not Collected", "name": "AGREASND", "ordinal": "17", "role": "Record Qualifier", "simpleDatatype": "Char"}, {"_links": {"modelClassVariable": {"href": "/mdr/sdtm/2-0/classes/Interventions/variables/--CLAS", "title": "Class", "type": "SDTM Class Variable"}, "parentDataset": {"href": "/mdr/sdtmig/3-4/datasets/AG", "title": "Procedure Agents", "type": "SDTM Dataset"}, "parentProduct": {"href": "/mdr/sdtmig/3-4", "title": "Study Data Tabulation Model Implementation Guide: Human Clinical Trials", "type": "Implementation Guide"}, "priorVersion": {"href": "/mdr/sdtmig/3-3/datasets/AG/variables/AGCLAS", "title": "Agent Class", "type": "SDTM Dataset Variable"}, "rootItem": {"href": "/mdr/root/sdtmig/datasets/AG/variables/AGCLAS", "title": "Version-agnostic anchor resource for SDTMIG variable AG.AGCLAS", "type": "Root Data Element"}, "self": {"href": "/mdr/sdtmig/3-4/datasets/AG/variables/AGCLAS", "title": "Agent Class", "type": "SDTM Dataset Variable"}}, "core": "Perm", "description": "Drug class. May be obtained from coding. When coding to a single class, populate with class value. If using a dictionary and coding to multiple classes, follow guidance in Section 4.2.8.3, Multiple Values for a Non-result Qualifier Variable, or omit AGCLAS.", "label": "Agent Class", "name": "AGCLAS", "ordinal": "18", "role": "Variable Qualifier", "simpleDatatype": "Char"}, {"_links": {"modelClassVariable": {"href": "/mdr/sdtm/2-0/classes/Interventions/variables/--CLASCD", "title": "Class Code", "type": "SDTM Class Variable"}, "parentDataset": {"href": "/mdr/sdtmig/3-4/datasets/AG", "title": "Procedure Agents", "type": "SDTM Dataset"}, "parentProduct": {"href": "/mdr/sdtmig/3-4", "title": "Study Data Tabulation Model Implementation Guide: Human Clinical Trials", "type": "Implementation Guide"}, "priorVersion": {"href": "/mdr/sdtmig/3-3/datasets/AG/variables/AGCLASCD", "title": "Agent Class Code", "type": "SDTM Dataset Variable"}, "rootItem": {"href": "/mdr/root/sdtmig/datasets/AG/variables/AGCLASCD", "title": "Version-agnostic anchor resource for SDTMIG variable AG.AGCLASCD", "type": "Root Data Element"}, "self": {"href": "/mdr/sdtmig/3-4/datasets/AG/variables/AGCLASCD", "title": "Agent Class Code", "type": "SDTM Dataset Variable"}}, "core": "Perm", "description": "Class code corresponding to AGCLAS. Drug class. May be obtained from coding. When coding to a single class, populate with class code. If using a dictionary and coding to multiple classes, follow guidance in Section 4.2.8.3, Multiple Values for a Non-result Qualifier Variable, or omit AGCLASCD.", "label": "Agent Class Code", "name": "AGCLASCD", "ordinal": "19", "role": "Variable Qualifier", "simpleDatatype": "Char"}, {"_links": {"modelClassVariable": {"href": "/mdr/sdtm/2-0/classes/Interventions/variables/--DOSE", "title": "Dose", "type": "SDTM Class Variable"}, "parentDataset": {"href": "/mdr/sdtmig/3-4/datasets/AG", "title": "Procedure Agents", "type": "SDTM Dataset"}, "parentProduct": {"href": "/mdr/sdtmig/3-4", "title": "Study Data Tabulation Model Implementation Guide: Human Clinical Trials", "type": "Implementation Guide"}, "priorVersion": {"href": "/mdr/sdtmig/3-3/datasets/AG/variables/AGDOSE", "title": "Dose per Administration", "type": "SDTM Dataset Variable"}, "rootItem": {"href": "/mdr/root/sdtmig/datasets/AG/variables/AGDOSE", "title": "Version-agnostic anchor resource for SDTMIG variable AG.AGDOSE", "type": "Root Data Element"}, "self": {"href": "/mdr/sdtmig/3-4/datasets/AG/variables/AGDOSE", "title": "Dose per Administration", "type": "SDTM Dataset Variable"}}, "core": "Perm", "description": "Amount of AGTRT taken.", "label": "Dose per Administration", "name": "AGDOSE", "ordinal": "20", "role": "Record Qualifier", "simpleDatatype": "Num"}, {"_links": {"modelClassVariable": {"href": "/mdr/sdtm/2-0/classes/Interventions/variables/--DOSTXT", "title": "Dose Description", "type": "SDTM Class Variable"}, "parentDataset": {"href": "/mdr/sdtmig/3-4/datasets/AG", "title": "Procedure Agents", "type": "SDTM Dataset"}, "parentProduct": {"href": "/mdr/sdtmig/3-4", "title": "Study Data Tabulation Model Implementation Guide: Human Clinical Trials", "type": "Implementation Guide"}, "priorVersion": {"href": "/mdr/sdtmig/3-3/datasets/AG/variables/AGDOSTXT", "title": "Dose Description", "type": "SDTM Dataset Variable"}, "rootItem": {"href": "/mdr/root/sdtmig/datasets/AG/variables/AGDOSTXT", "title": "Version-agnostic anchor resource for SDTMIG variable AG.AGDOSTXT", "type": "Root Data Element"}, "self": {"href": "/mdr/sdtmig/3-4/datasets/AG/variables/AGDOSTXT", "title": "Dose Description", "type": "SDTM Dataset Variable"}}, "core": "Perm", "description": "Dosing amounts or a range of dosing information collected in text form. Units may be stored in AGDOSU. Examples: \"200-400\", \"15-20\".", "label": "Dose Description", "name": "AGDOSTXT", "ordinal": "21", "role": "Record Qualifier", "simpleDatatype": "Char"}, {"_links": {"codelist": [{"href": "/mdr/root/ct/sdtmct/codelists/C71620", "title": "Version-agnostic anchor resource for codelist C71620", "type": "Root Value Domain"}], "modelClassVariable": {"href": "/mdr/sdtm/2-0/classes/Interventions/variables/--DOSU", "title": "Dose Units", "type": "SDTM Class Variable"}, "parentDataset": {"href": "/mdr/sdtmig/3-4/datasets/AG", "title": "Procedure Agents", "type": "SDTM Dataset"}, "parentProduct": {"href": "/mdr/sdtmig/3-4", "title": "Study Data Tabulation Model Implementation Guide: Human Clinical Trials", "type": "Implementation Guide"}, "priorVersion": {"href": "/mdr/sdtmig/3-3/datasets/AG/variables/AGDOSU", "title": "Dose Units", "type": "SDTM Dataset Variable"}, "rootItem": {"href": "/mdr/root/sdtmig/datasets/AG/variables/AGDOSU", "title": "Version-agnostic anchor resource for SDTMIG variable AG.AGDOSU", "type": "Root Data Element"}, "self": {"href": "/mdr/sdtmig/3-4/datasets/AG/variables/AGDOSU", "title": "Dose Units", "type": "SDTM Dataset Variable"}}, "core": "Perm", "description": "Units for AGDOSE and AGDOSTXT. Examples: \"ng\", \"mg\", \"mg/kg\".", "label": "Dose Units", "name": "AGDOSU", "ordinal": "22", "role": "Variable Qualifier", "simpleDatatype": "Char"}, {"_links": {"codelist": [{"href": "/mdr/root/ct/sdtmct/codelists/C66726", "title": "Version-agnostic anchor resource for codelist C66726", "type": "Root Value Domain"}], "modelClassVariable": {"href": "/mdr/sdtm/2-0/classes/Interventions/variables/--DOSFRM", "title": "Dose Form", "type": "SDTM Class Variable"}, "parentDataset": {"href": "/mdr/sdtmig/3-4/datasets/AG", "title": "Procedure Agents", "type": "SDTM Dataset"}, "parentProduct": {"href": "/mdr/sdtmig/3-4", "title": "Study Data Tabulation Model Implementation Guide: Human Clinical Trials", "type": "Implementation Guide"}, "priorVersion": {"href": "/mdr/sdtmig/3-3/datasets/AG/variables/AGDOSFRM", "title": "Dose Form", "type": "SDTM Dataset Variable"}, "rootItem": {"href": "/mdr/root/sdtmig/datasets/AG/variables/AGDOSFRM", "title": "Version-agnostic anchor resource for SDTMIG variable AG.AGDOSFRM", "type": "Root Data Element"}, "self": {"href": "/mdr/sdtmig/3-4/datasets/AG/variables/AGDOSFRM", "title": "Dose Form", "type": "SDTM Dataset Variable"}}, "core": "Perm", "description": "Dose form for AGTRT. Examples: \"TABLET\", \"AEROSOL\".", "label": "Dose Form", "name": "AGDOSFRM", "ordinal": "23", "role": "Variable Qualifier", "simpleDatatype": "Char"}, {"_links": {"codelist": [{"href": "/mdr/root/ct/sdtmct/codelists/C71113", "title": "Version-agnostic anchor resource for codelist C71113", "type": "Root Value Domain"}], "modelClassVariable": {"href": "/mdr/sdtm/2-0/classes/Interventions/variables/--DOSFRQ", "title": "Dosing Frequency per Interval", "type": "SDTM Class Variable"}, "parentDataset": {"href": "/mdr/sdtmig/3-4/datasets/AG", "title": "Procedure Agents", "type": "SDTM Dataset"}, "parentProduct": {"href": "/mdr/sdtmig/3-4", "title": "Study Data Tabulation Model Implementation Guide: Human Clinical Trials", "type": "Implementation Guide"}, "priorVersion": {"href": "/mdr/sdtmig/3-3/datasets/AG/variables/AGDOSFRQ", "title": "Dosing Frequency per Interval", "type": "SDTM Dataset Variable"}, "rootItem": {"href": "/mdr/root/sdtmig/datasets/AG/variables/AGDOSFRQ", "title": "Version-agnostic anchor resource for SDTMIG variable AG.AGDOSFRQ", "type": "Root Data Element"}, "self": {"href": "/mdr/sdtmig/3-4/datasets/AG/variables/AGDOSFRQ", "title": "Dosing Frequency per Interval", "type": "SDTM Dataset Variable"}}, "core": "Perm", "description": "Usually expressed as the number of repeated administrations of AGDOSE within a specific time period. Example: \"ONCE\".", "label": "Dosing Frequency per Interval", "name": "AGDOSFRQ", "ordinal": "24", "role": "Record Qualifier", "simpleDatatype": "Char"}, {"_links": {"codelist": [{"href": "/mdr/root/ct/sdtmct/codelists/C66729", "title": "Version-agnostic anchor resource for codelist C66729", "type": "Root Value Domain"}], "modelClassVariable": {"href": "/mdr/sdtm/2-0/classes/Interventions/variables/--ROUTE", "title": "Route of Administration", "type": "SDTM Class Variable"}, "parentDataset": {"href": "/mdr/sdtmig/3-4/datasets/AG", "title": "Procedure Agents", "type": "SDTM Dataset"}, "parentProduct": {"href": "/mdr/sdtmig/3-4", "title": "Study Data Tabulation Model Implementation Guide: Human Clinical Trials", "type": "Implementation Guide"}, "priorVersion": {"href": "/mdr/sdtmig/3-3/datasets/AG/variables/AGROUTE", "title": "Route of Administration", "type": "SDTM Dataset Variable"}, "rootItem": {"href": "/mdr/root/sdtmig/datasets/AG/variables/AGROUTE", "title": "Version-agnostic anchor resource for SDTMIG variable AG.AGROUTE", "type": "Root Data Element"}, "self": {"href": "/mdr/sdtmig/3-4/datasets/AG/variables/AGROUTE", "title": "Route of Administration", "type": "SDTM Dataset Variable"}}, "core": "Perm", "description": "Route of administration for AGTRT. Example: \"ORAL\".", "label": "Route of Administration", "name": "AGROUTE", "ordinal": "25", "role": "Variable Qualifier", "simpleDatatype": "Char"}, {"_links": {"modelClassVariable": {"href": "/mdr/sdtm/2-0/classes/GeneralObservations/variables/VISITNUM", "title": "Visit Number", "type": "SDTM Class Variable"}, "parentDataset": {"href": "/mdr/sdtmig/3-4/datasets/AG", "title": "Procedure Agents", "type": "SDTM Dataset"}, "parentProduct": {"href": "/mdr/sdtmig/3-4", "title": "Study Data Tabulation Model Implementation Guide: Human Clinical Trials", "type": "Implementation Guide"}, "priorVersion": {"href": "/mdr/sdtmig/3-3/datasets/AG/variables/VISITNUM", "title": "Visit Number", "type": "SDTM Dataset Variable"}, "rootItem": {"href": "/mdr/root/sdtmig/datasets/AG/variables/VISITNUM", "title": "Version-agnostic anchor resource for SDTMIG variable AG.VISITNUM", "type": "Root Data Element"}, "self": {"href": "/mdr/sdtmig/3-4/datasets/AG/variables/VISITNUM", "title": "Visit Number", "type": "SDTM Dataset Variable"}}, "core": "Exp", "description": "1. Clinical encounter number. \\n 2. Numeric version of VISIT, used for sorting.", "label": "Visit Number", "name": "VISITNUM", "ordinal": "26", "role": "Timing", "simpleDatatype": "Num"}, {"_links": {"modelClassVariable": {"href": "/mdr/sdtm/2-0/classes/GeneralObservations/variables/VISIT", "title": "Visit Name", "type": "SDTM Class Variable"}, "parentDataset": {"href": "/mdr/sdtmig/3-4/datasets/AG", "title": "Procedure Agents", "type": "SDTM Dataset"}, "parentProduct": {"href": "/mdr/sdtmig/3-4", "title": "Study Data Tabulation Model Implementation Guide: Human Clinical Trials", "type": "Implementation Guide"}, "priorVersion": {"href": "/mdr/sdtmig/3-3/datasets/AG/variables/VISIT", "title": "Visit Name", "type": "SDTM Dataset Variable"}, "rootItem": {"href": "/mdr/root/sdtmig/datasets/AG/variables/VISIT", "title": "Version-agnostic anchor resource for SDTMIG variable AG.VISIT", "type": "Root Data Element"}, "self": {"href": "/mdr/sdtmig/3-4/datasets/AG/variables/VISIT", "title": "Visit Name", "type": "SDTM Dataset Variable"}}, "core": "Perm", "description": "1. Protocol-defined description of clinical encounter. \\n 2. May be used in addition to VISITNUM and/or VISITDY.", "label": "Visit Name", "name": "VISIT", "ordinal": "27", "role": "Timing", "simpleDatatype": "Char"}, {"_links": {"modelClassVariable": {"href": "/mdr/sdtm/2-0/classes/GeneralObservations/variables/VISITDY", "title": "Planned Study Day of Visit", "type": "SDTM Class Variable"}, "parentDataset": {"href": "/mdr/sdtmig/3-4/datasets/AG", "title": "Procedure Agents", "type": "SDTM Dataset"}, "parentProduct": {"href": "/mdr/sdtmig/3-4", "title": "Study Data Tabulation Model Implementation Guide: Human Clinical Trials", "type": "Implementation Guide"}, "priorVersion": {"href": "/mdr/sdtmig/3-3/datasets/AG/variables/VISITDY", "title": "Planned Study Day of Visit", "type": "SDTM Dataset Variable"}, "rootItem": {"href": "/mdr/root/sdtmig/datasets/AG/variables/VISITDY", "title": "Version-agnostic anchor resource for SDTMIG variable AG.VISITDY", "type": "Root Data Element"}, "self": {"href": "/mdr/sdtmig/3-4/datasets/AG/variables/VISITDY", "title": "Planned Study Day of Visit", "type": "SDTM Dataset Variable"}}, "core": "Perm", "description": "Planned study day of the visit based upon RFSTDTC in Demographics.", "label": "Planned Study Day of Visit", "name": "VISITDY", "ordinal": "28", "role": "Timing", "simpleDatatype": "Num"}, {"_links": {"modelClassVariable": {"href": "/mdr/sdtm/2-0/classes/GeneralObservations/variables/TAETORD", "title": "Planned Order of Element Within Arm", "type": "SDTM Class Variable"}, "parentDataset": {"href": "/mdr/sdtmig/3-4/datasets/AG", "title": "Procedure Agents", "type": "SDTM Dataset"}, "parentProduct": {"href": "/mdr/sdtmig/3-4", "title": "Study Data Tabulation Model Implementation Guide: Human Clinical Trials", "type": "Implementation Guide"}, "priorVersion": {"href": "/mdr/sdtmig/3-3/datasets/AG/variables/TAETORD", "title": "Planned Order of Element within Arm", "type": "SDTM Dataset Variable"}, "rootItem": {"href": "/mdr/root/sdtmig/datasets/AG/variables/TAETORD", "title": "Version-agnostic anchor resource for SDTMIG variable AG.TAETORD", "type": "Root Data Element"}, "self": {"href": "/mdr/sdtmig/3-4/datasets/AG/variables/TAETORD", "title": "Planned Order of Element within Arm", "type": "SDTM Dataset Variable"}}, "core": "Perm", "description": "Number that gives the planned order of the element within the arm for the element in which the agent administration started.", "label": "Planned Order of Element within Arm", "name": "TAETORD", "ordinal": "29", "role": "Timing", "simpleDatatype": "Num"}, {"_links": {"codelist": [{"href": "/mdr/root/ct/sdtmct/codelists/C99079", "title": "Version-agnostic anchor resource for codelist C99079", "type": "Root Value Domain"}], "modelClassVariable": {"href": "/mdr/sdtm/2-0/classes/GeneralObservations/variables/EPOCH", "title": "Epoch", "type": "SDTM Class Variable"}, "parentDataset": {"href": "/mdr/sdtmig/3-4/datasets/AG", "title": "Procedure Agents", "type": "SDTM Dataset"}, "parentProduct": {"href": "/mdr/sdtmig/3-4", "title": "Study Data Tabulation Model Implementation Guide: Human Clinical Trials", "type": "Implementation Guide"}, "priorVersion": {"href": "/mdr/sdtmig/3-3/datasets/AG/variables/EPOCH", "title": "Epoch", "type": "SDTM Dataset Variable"}, "rootItem": {"href": "/mdr/root/sdtmig/datasets/AG/variables/EPOCH", "title": "Version-agnostic anchor resource for SDTMIG variable AG.EPOCH", "type": "Root Data Element"}, "self": {"href": "/mdr/sdtmig/3-4/datasets/AG/variables/EPOCH", "title": "Epoch", "type": "SDTM Dataset Variable"}}, "core": "Perm", "description": "Epoch associated with the start date/time of the agent administration started.", "label": "Epoch", "name": "EPOCH", "ordinal": "30", "role": "Timing", "simpleDatatype": "Char"}, {"_links": {"modelClassVariable": {"href": "/mdr/sdtm/2-0/classes/GeneralObservations/variables/--STDTC", "title": "Start Date/Time of Observation", "type": "SDTM Class Variable"}, "parentDataset": {"href": "/mdr/sdtmig/3-4/datasets/AG", "title": "Procedure Agents", "type": "SDTM Dataset"}, "parentProduct": {"href": "/mdr/sdtmig/3-4", "title": "Study Data Tabulation Model Implementation Guide: Human Clinical Trials", "type": "Implementation Guide"}, "priorVersion": {"href": "/mdr/sdtmig/3-3/datasets/AG/variables/AGSTDTC", "title": "Start Date/Time of Agent", "type": "SDTM Dataset Variable"}, "rootItem": {"href": "/mdr/root/sdtmig/datasets/AG/variables/AGSTDTC", "title": "Version-agnostic anchor resource for SDTMIG variable AG.AGSTDTC", "type": "Root Data Element"}, "self": {"href": "/mdr/sdtmig/3-4/datasets/AG/variables/AGSTDTC", "title": "Start Date/Time of Agent", "type": "SDTM Dataset Variable"}}, "core": "Perm", "describedValueDomain": "ISO 8601 datetime or interval", "description": "The date/time when administration of the treatment indicated by AGTRT and the dosing variables began.", "label": "Start Date/Time of Agent", "name": "AGSTDTC", "ordinal": "31", "role": "Timing", "simpleDatatype": "Char"}, {"_links": {"modelClassVariable": {"href": "/mdr/sdtm/2-0/classes/GeneralObservations/variables/--ENDTC", "title": "End Date/Time of Observation", "type": "SDTM Class Variable"}, "parentDataset": {"href": "/mdr/sdtmig/3-4/datasets/AG", "title": "Procedure Agents", "type": "SDTM Dataset"}, "parentProduct": {"href": "/mdr/sdtmig/3-4", "title": "Study Data Tabulation Model Implementation Guide: Human Clinical Trials", "type": "Implementation Guide"}, "priorVersion": {"href": "/mdr/sdtmig/3-3/datasets/AG/variables/AGENDTC", "title": "End Date/Time of Agent", "type": "SDTM Dataset Variable"}, "rootItem": {"href": "/mdr/root/sdtmig/datasets/AG/variables/AGENDTC", "title": "Version-agnostic anchor resource for SDTMIG variable AG.AGENDTC", "type": "Root Data Element"}, "self": {"href": "/mdr/sdtmig/3-4/datasets/AG/variables/AGENDTC", "title": "End Date/Time of Agent", "type": "SDTM Dataset Variable"}}, "core": "Perm", "describedValueDomain": "ISO 8601 datetime or interval", "description": "The date/time when administration of the treatment indicated by AGTRT and the dosing variables ended.", "label": "End Date/Time of Agent", "name": "AGENDTC", "ordinal": "32", "role": "Timing", "simpleDatatype": "Char"}, {"_links": {"modelClassVariable": {"href": "/mdr/sdtm/2-0/classes/GeneralObservations/variables/--STDY", "title": "Study Day of Start of Observation", "type": "SDTM Class Variable"}, "parentDataset": {"href": "/mdr/sdtmig/3-4/datasets/AG", "title": "Procedure Agents", "type": "SDTM Dataset"}, "parentProduct": {"href": "/mdr/sdtmig/3-4", "title": "Study Data Tabulation Model Implementation Guide: Human Clinical Trials", "type": "Implementation Guide"}, "priorVersion": {"href": "/mdr/sdtmig/3-3/datasets/AG/variables/AGSTDY", "title": "Study Day of Start of Agent", "type": "SDTM Dataset Variable"}, "rootItem": {"href": "/mdr/root/sdtmig/datasets/AG/variables/AGSTDY", "title": "Version-agnostic anchor resource for SDTMIG variable AG.AGSTDY", "type": "Root Data Element"}, "self": {"href": "/mdr/sdtmig/3-4/datasets/AG/variables/AGSTDY", "title": "Study Day of Start of Agent", "type": "SDTM Dataset Variable"}}, "core": "Perm", "description": "Study day of start of agent relative to the sponsor-defined RFSTDTC.", "label": "Study Day of Start of Agent", "name": "AGSTDY", "ordinal": "33", "role": "Timing", "simpleDatatype": "Num"}, {"_links": {"modelClassVariable": {"href": "/mdr/sdtm/2-0/classes/GeneralObservations/variables/--ENDY", "title": "Study Day of End of Observation", "type": "SDTM Class Variable"}, "parentDataset": {"href": "/mdr/sdtmig/3-4/datasets/AG", "title": "Procedure Agents", "type": "SDTM Dataset"}, "parentProduct": {"href": "/mdr/sdtmig/3-4", "title": "Study Data Tabulation Model Implementation Guide: Human Clinical Trials", "type": "Implementation Guide"}, "priorVersion": {"href": "/mdr/sdtmig/3-3/datasets/AG/variables/AGENDY", "title": "Study Day of End of Agent", "type": "SDTM Dataset Variable"}, "rootItem": {"href": "/mdr/root/sdtmig/datasets/AG/variables/AGENDY", "title": "Version-agnostic anchor resource for SDTMIG variable AG.AGENDY", "type": "Root Data Element"}, "self": {"href": "/mdr/sdtmig/3-4/datasets/AG/variables/AGENDY", "title": "Study Day of End of Agent", "type": "SDTM Dataset Variable"}}, "core": "Perm", "description": "Study day of end of agent relative to the sponsor-defined RFSTDTC.", "label": "Study Day of End of Agent", "name": "AGENDY", "ordinal": "34", "role": "Timing", "simpleDatatype": "Num"}, {"_links": {"modelClassVariable": {"href": "/mdr/sdtm/2-0/classes/GeneralObservations/variables/--DUR", "title": "Collected Duration", "type": "SDTM Class Variable"}, "parentDataset": {"href": "/mdr/sdtmig/3-4/datasets/AG", "title": "Procedure Agents", "type": "SDTM Dataset"}, "parentProduct": {"href": "/mdr/sdtmig/3-4", "title": "Study Data Tabulation Model Implementation Guide: Human Clinical Trials", "type": "Implementation Guide"}, "priorVersion": {"href": "/mdr/sdtmig/3-3/datasets/AG/variables/AGDUR", "title": "Duration of Agent", "type": "SDTM Dataset Variable"}, "rootItem": {"href": "/mdr/root/sdtmig/datasets/AG/variables/AGDUR", "title": "Version-agnostic anchor resource for SDTMIG variable AG.AGDUR", "type": "Root Data Element"}, "self": {"href": "/mdr/sdtmig/3-4/datasets/AG/variables/AGDUR", "title": "Duration of Agent", "type": "SDTM Dataset Variable"}}, "core": "Perm", "describedValueDomain": "ISO 8601 duration", "description": "Collected duration for an agent episode. Used only if collected on the CRF and not derived from start and end date/times.", "label": "Duration of Agent", "name": "AGDUR", "ordinal": "35", "role": "Timing", "simpleDatatype": "Char"}, {"_links": {"codelist": [{"href": "/mdr/root/ct/sdtmct/codelists/C66728", "title": "Version-agnostic anchor resource for codelist C66728", "type": "Root Value Domain"}], "modelClassVariable": {"href": "/mdr/sdtm/2-0/classes/GeneralObservations/variables/--STRF", "title": "Start Relative to Reference Period", "type": "SDTM Class Variable"}, "parentDataset": {"href": "/mdr/sdtmig/3-4/datasets/AG", "title": "Procedure Agents", "type": "SDTM Dataset"}, "parentProduct": {"href": "/mdr/sdtmig/3-4", "title": "Study Data Tabulation Model Implementation Guide: Human Clinical Trials", "type": "Implementation Guide"}, "priorVersion": {"href": "/mdr/sdtmig/3-3/datasets/AG/variables/AGSTRF", "title": "Start Relative to Reference Period", "type": "SDTM Dataset Variable"}, "rootItem": {"href": "/mdr/root/sdtmig/datasets/AG/variables/AGSTRF", "title": "Version-agnostic anchor resource for SDTMIG variable AG.AGSTRF", "type": "Root Data Element"}, "self": {"href": "/mdr/sdtmig/3-4/datasets/AG/variables/AGSTRF", "title": "Start Relative to Reference Period", "type": "SDTM Dataset Variable"}}, "core": "Perm", "description": "Describes the start of the agent relative to sponsor-defined reference period. The sponsor-defined reference period is a continuous period of time defined by a discrete starting point and a discrete ending point (represented by RFSTDTC and RFENDTC in Demographics). If information such as \"PRIOR\", \"ONGOING\", or \"CONTINUING\" was collected, this information may be translated into AGSTRF. \\n Not all values of the codelist are allowable for this variable. See Section 4.4.7, Use of Relative Timing Variables.", "label": "Start Relative to Reference Period", "name": "AGSTRF", "ordinal": "36", "role": "Timing", "simpleDatatype": "Char"}, {"_links": {"codelist": [{"href": "/mdr/root/ct/sdtmct/codelists/C66728", "title": "Version-agnostic anchor resource for codelist C66728", "type": "Root Value Domain"}], "modelClassVariable": {"href": "/mdr/sdtm/2-0/classes/GeneralObservations/variables/--ENRF", "title": "End Relative to Reference Period", "type": "SDTM Class Variable"}, "parentDataset": {"href": "/mdr/sdtmig/3-4/datasets/AG", "title": "Procedure Agents", "type": "SDTM Dataset"}, "parentProduct": {"href": "/mdr/sdtmig/3-4", "title": "Study Data Tabulation Model Implementation Guide: Human Clinical Trials", "type": "Implementation Guide"}, "priorVersion": {"href": "/mdr/sdtmig/3-3/datasets/AG/variables/AGENRF", "title": "End Relative to Reference Period", "type": "SDTM Dataset Variable"}, "rootItem": {"href": "/mdr/root/sdtmig/datasets/AG/variables/AGENRF", "title": "Version-agnostic anchor resource for SDTMIG variable AG.AGENRF", "type": "Root Data Element"}, "self": {"href": "/mdr/sdtmig/3-4/datasets/AG/variables/AGENRF", "title": "End Relative to Reference Period", "type": "SDTM Dataset Variable"}}, "core": "Perm", "description": "Describes the end of the agent relative to the sponsor-defined reference period. The sponsor-defined reference period is a continuous period of time defined by a discrete starting point and a discrete ending point (represented by RFSTDTC and RFENDTC in Demographics). If information such as \"PRIOR\", \"ONGOING\", or \"CONTINUING\" was collected, this information may be translated into AGENRF. \\n Not all values of the codelist are allowable for this variable. See Section 4.4.7, Use of Relative Timing Variables.", "label": "End Relative to Reference Period", "name": "AGENRF", "ordinal": "37", "role": "Timing", "simpleDatatype": "Char"}, {"_links": {"codelist": [{"href": "/mdr/root/ct/sdtmct/codelists/C66728", "title": "Version-agnostic anchor resource for codelist C66728", "type": "Root Value Domain"}], "modelClassVariable": {"href": "/mdr/sdtm/2-0/classes/GeneralObservations/variables/--STRTPT", "title": "Start Relative to Reference Time Point", "type": "SDTM Class Variable"}, "parentDataset": {"href": "/mdr/sdtmig/3-4/datasets/AG", "title": "Procedure Agents", "type": "SDTM Dataset"}, "parentProduct": {"href": "/mdr/sdtmig/3-4", "title": "Study Data Tabulation Model Implementation Guide: Human Clinical Trials", "type": "Implementation Guide"}, "priorVersion": {"href": "/mdr/sdtmig/3-3/datasets/AG/variables/AGSTRTPT", "title": "Start Relative to Reference Time Point", "type": "SDTM Dataset Variable"}, "rootItem": {"href": "/mdr/root/sdtmig/datasets/AG/variables/AGSTRTPT", "title": "Version-agnostic anchor resource for SDTMIG variable AG.AGSTRTPT", "type": "Root Data Element"}, "self": {"href": "/mdr/sdtmig/3-4/datasets/AG/variables/AGSTRTPT", "title": "Start Relative to Reference Time Point", "type": "SDTM Dataset Variable"}}, "core": "Perm", "description": "Identifies the start of the agent as being before or after the sponsor-defined reference time point defined by variable AGSTTPT. \\n Not all values of the codelist are allowable for this variable. See Section 4.4.7, Use of Relative Timing Variables.", "label": "Start Relative to Reference Time Point", "name": "AGSTRTPT", "ordinal": "38", "role": "Timing", "simpleDatatype": "Char"}, {"_links": {"modelClassVariable": {"href": "/mdr/sdtm/2-0/classes/GeneralObservations/variables/--STTPT", "title": "Start Reference Time Point", "type": "SDTM Class Variable"}, "parentDataset": {"href": "/mdr/sdtmig/3-4/datasets/AG", "title": "Procedure Agents", "type": "SDTM Dataset"}, "parentProduct": {"href": "/mdr/sdtmig/3-4", "title": "Study Data Tabulation Model Implementation Guide: Human Clinical Trials", "type": "Implementation Guide"}, "priorVersion": {"href": "/mdr/sdtmig/3-3/datasets/AG/variables/AGSTTPT", "title": "Start Reference Time Point", "type": "SDTM Dataset Variable"}, "rootItem": {"href": "/mdr/root/sdtmig/datasets/AG/variables/AGSTTPT", "title": "Version-agnostic anchor resource for SDTMIG variable AG.AGSTTPT", "type": "Root Data Element"}, "self": {"href": "/mdr/sdtmig/3-4/datasets/AG/variables/AGSTTPT", "title": "Start Reference Time Point", "type": "SDTM Dataset Variable"}}, "core": "Perm", "description": "Description or date/time in ISO 8601 character format of the reference point referred to by AGSTRTPT. Examples: \"2003-12-15\", \"VISIT 1\".", "label": "Start Reference Time Point", "name": "AGSTTPT", "ordinal": "39", "role": "Timing", "simpleDatatype": "Char"}, {"_links": {"codelist": [{"href": "/mdr/root/ct/sdtmct/codelists/C66728", "title": "Version-agnostic anchor resource for codelist C66728", "type": "Root Value Domain"}], "modelClassVariable": {"href": "/mdr/sdtm/2-0/classes/GeneralObservations/variables/--ENRTPT", "title": "End Relative to Reference Time Point", "type": "SDTM Class Variable"}, "parentDataset": {"href": "/mdr/sdtmig/3-4/datasets/AG", "title": "Procedure Agents", "type": "SDTM Dataset"}, "parentProduct": {"href": "/mdr/sdtmig/3-4", "title": "Study Data Tabulation Model Implementation Guide: Human Clinical Trials", "type": "Implementation Guide"}, "priorVersion": {"href": "/mdr/sdtmig/3-3/datasets/AG/variables/AGENRTPT", "title": "End Relative to Reference Time Point", "type": "SDTM Dataset Variable"}, "rootItem": {"href": "/mdr/root/sdtmig/datasets/AG/variables/AGENRTPT", "title": "Version-agnostic anchor resource for SDTMIG variable AG.AGENRTPT", "type": "Root Data Element"}, "self": {"href": "/mdr/sdtmig/3-4/datasets/AG/variables/AGENRTPT", "title": "End Relative to Reference Time Point", "type": "SDTM Dataset Variable"}}, "core": "Perm", "description": "Identifies the end of the agent as being before or after the reference time point defined by variable AGENTPT. Identifies the end of the agent as being before or after the sponsor-defined reference time point defined by variable AGENTPT. \\n Not all values of the codelist are allowable for this variable. See Section 4.4.7, Use of Relative Timing Variables.", "label": "End Relative to Reference Time Point", "name": "AGENRTPT", "ordinal": "40", "role": "Timing", "simpleDatatype": "Char"}, {"_links": {"modelClassVariable": {"href": "/mdr/sdtm/2-0/classes/GeneralObservations/variables/--ENTPT", "title": "End Reference Time Point", "type": "SDTM Class Variable"}, "parentDataset": {"href": "/mdr/sdtmig/3-4/datasets/AG", "title": "Procedure Agents", "type": "SDTM Dataset"}, "parentProduct": {"href": "/mdr/sdtmig/3-4", "title": "Study Data Tabulation Model Implementation Guide: Human Clinical Trials", "type": "Implementation Guide"}, "priorVersion": {"href": "/mdr/sdtmig/3-3/datasets/AG/variables/AGENTPT", "title": "End Reference Time Point", "type": "SDTM Dataset Variable"}, "rootItem": {"href": "/mdr/root/sdtmig/datasets/AG/variables/AGENTPT", "title": "Version-agnostic anchor resource for SDTMIG variable AG.AGENTPT", "type": "Root Data Element"}, "self": {"href": "/mdr/sdtmig/3-4/datasets/AG/variables/AGENTPT", "title": "End Reference Time Point", "type": "SDTM Dataset Variable"}}, "core": "Perm", "description": "Description or date/time in ISO 8601 character format of the reference point referred to by AGENRTPT. Examples: \"2003-12-25\", \"VISIT 2\".", "label": "End Reference Time Point", "name": "AGENTPT", "ordinal": "41", "role": "Timing", "simpleDatatype": "Char"}], "description": "An interventions domain that contains the agents administered to the subject as part of a procedure or assessment, as opposed to drugs, medications and therapies administered with therapeutic intent.", "label": "Procedure Agents", "name": "AG", "ordinal": "2"}
