{
    "_links": {
        "modelDataset": {
            "href": "/mdr/sdtm/2-0/datasets/CO",
            "title": "Comments",
            "type": "SDTM Dataset"
        },
        "parentClass": {
            "href": "/mdr/sdtmig/3-4/classes/SpecialPurpose",
            "title": "Special-Purpose",
            "type": "Class"
        },
        "parentProduct": {
            "href": "/mdr/sdtmig/3-4",
            "title": "Study Data Tabulation Model Implementation Guide: Human Clinical Trials",
            "type": "Implementation Guide"
        },
        "priorVersion": {
            "href": "/mdr/sdtmig/3-3/datasets/CO",
            "title": "Comments",
            "type": "SDTM Dataset"
        },
        "self": {
            "href": "/mdr/sdtmig/3-4/datasets/CO",
            "title": "Comments",
            "type": "SDTM Dataset"
        }
    },
    "datasetStructure": "One record per comment per subject",
    "datasetVariables": [
        {
            "_links": {
                "modelDatasetVariable": {
                    "href": "/mdr/sdtm/2-0/datasets/CO/variables/STUDYID",
                    "title": "Study Identifier",
                    "type": "SDTM Dataset Variable"
                },
                "parentDataset": {
                    "href": "/mdr/sdtmig/3-4/datasets/CO",
                    "title": "Comments",
                    "type": "SDTM Dataset"
                },
                "parentProduct": {
                    "href": "/mdr/sdtmig/3-4",
                    "title": "Study Data Tabulation Model Implementation Guide: Human Clinical Trials",
                    "type": "Implementation Guide"
                },
                "priorVersion": {
                    "href": "/mdr/sdtmig/3-3/datasets/CO/variables/STUDYID",
                    "title": "Study Identifier",
                    "type": "SDTM Dataset Variable"
                },
                "rootItem": {
                    "href": "/mdr/root/sdtmig/datasets/CO/variables/STUDYID",
                    "title": "Version-agnostic anchor resource for SDTMIG variable CO.STUDYID",
                    "type": "Root Data Element"
                },
                "self": {
                    "href": "/mdr/sdtmig/3-4/datasets/CO/variables/STUDYID",
                    "title": "Study Identifier",
                    "type": "SDTM Dataset Variable"
                }
            },
            "core": "Req",
            "description": "Unique identifier for a study.",
            "label": "Study Identifier",
            "name": "STUDYID",
            "ordinal": "1",
            "role": "Identifier",
            "simpleDatatype": "Char"
        },
        {
            "_links": {
                "modelDatasetVariable": {
                    "href": "/mdr/sdtm/2-0/datasets/CO/variables/DOMAIN",
                    "title": "Domain Abbreviation",
                    "type": "SDTM Dataset Variable"
                },
                "parentDataset": {
                    "href": "/mdr/sdtmig/3-4/datasets/CO",
                    "title": "Comments",
                    "type": "SDTM Dataset"
                },
                "parentProduct": {
                    "href": "/mdr/sdtmig/3-4",
                    "title": "Study Data Tabulation Model Implementation Guide: Human Clinical Trials",
                    "type": "Implementation Guide"
                },
                "priorVersion": {
                    "href": "/mdr/sdtmig/3-3/datasets/CO/variables/DOMAIN",
                    "title": "Domain Abbreviation",
                    "type": "SDTM Dataset Variable"
                },
                "rootItem": {
                    "href": "/mdr/root/sdtmig/datasets/CO/variables/DOMAIN",
                    "title": "Version-agnostic anchor resource for SDTMIG variable CO.DOMAIN",
                    "type": "Root Data Element"
                },
                "self": {
                    "href": "/mdr/sdtmig/3-4/datasets/CO/variables/DOMAIN",
                    "title": "Domain Abbreviation",
                    "type": "SDTM Dataset Variable"
                }
            },
            "core": "Req",
            "description": "Two-character abbreviation for the domain.",
            "label": "Domain Abbreviation",
            "name": "DOMAIN",
            "ordinal": "2",
            "role": "Identifier",
            "simpleDatatype": "Char",
            "valueList": [
                "CO"
            ]
        },
        {
            "_links": {
                "codelist": [
                    {
                        "href": "/mdr/root/ct/sdtmct/codelists/C66734",
                        "title": "Version-agnostic anchor resource for codelist C66734",
                        "type": "Root Value Domain"
                    }
                ],
                "modelDatasetVariable": {
                    "href": "/mdr/sdtm/2-0/datasets/CO/variables/RDOMAIN",
                    "title": "Related Domain Abbreviation",
                    "type": "SDTM Dataset Variable"
                },
                "parentDataset": {
                    "href": "/mdr/sdtmig/3-4/datasets/CO",
                    "title": "Comments",
                    "type": "SDTM Dataset"
                },
                "parentProduct": {
                    "href": "/mdr/sdtmig/3-4",
                    "title": "Study Data Tabulation Model Implementation Guide: Human Clinical Trials",
                    "type": "Implementation Guide"
                },
                "priorVersion": {
                    "href": "/mdr/sdtmig/3-3/datasets/CO/variables/RDOMAIN",
                    "title": "Related Domain Abbreviation",
                    "type": "SDTM Dataset Variable"
                },
                "rootItem": {
                    "href": "/mdr/root/sdtmig/datasets/CO/variables/RDOMAIN",
                    "title": "Version-agnostic anchor resource for SDTMIG variable CO.RDOMAIN",
                    "type": "Root Data Element"
                },
                "self": {
                    "href": "/mdr/sdtmig/3-4/datasets/CO/variables/RDOMAIN",
                    "title": "Related Domain Abbreviation",
                    "type": "SDTM Dataset Variable"
                }
            },
            "core": "Perm",
            "description": "Two-character abbreviation for the domain of the parent record(s). Null for comments collected on a general comments or additional information CRF page.",
            "label": "Related Domain Abbreviation",
            "name": "RDOMAIN",
            "ordinal": "3",
            "role": "Record Qualifier",
            "simpleDatatype": "Char"
        },
        {
            "_links": {
                "modelDatasetVariable": {
                    "href": "/mdr/sdtm/2-0/datasets/CO/variables/USUBJID",
                    "title": "Unique Subject Identifier",
                    "type": "SDTM Dataset Variable"
                },
                "parentDataset": {
                    "href": "/mdr/sdtmig/3-4/datasets/CO",
                    "title": "Comments",
                    "type": "SDTM Dataset"
                },
                "parentProduct": {
                    "href": "/mdr/sdtmig/3-4",
                    "title": "Study Data Tabulation Model Implementation Guide: Human Clinical Trials",
                    "type": "Implementation Guide"
                },
                "priorVersion": {
                    "href": "/mdr/sdtmig/3-3/datasets/CO/variables/USUBJID",
                    "title": "Unique Subject Identifier",
                    "type": "SDTM Dataset Variable"
                },
                "rootItem": {
                    "href": "/mdr/root/sdtmig/datasets/CO/variables/USUBJID",
                    "title": "Version-agnostic anchor resource for SDTMIG variable CO.USUBJID",
                    "type": "Root Data Element"
                },
                "self": {
                    "href": "/mdr/sdtmig/3-4/datasets/CO/variables/USUBJID",
                    "title": "Unique Subject Identifier",
                    "type": "SDTM Dataset Variable"
                }
            },
            "core": "Req",
            "description": "Identifier used to uniquely identify a subject across all studies for all applications or submissions involving the product.",
            "label": "Unique Subject Identifier",
            "name": "USUBJID",
            "ordinal": "4",
            "role": "Identifier",
            "simpleDatatype": "Char"
        },
        {
            "_links": {
                "modelDatasetVariable": {
                    "href": "/mdr/sdtm/2-0/datasets/CO/variables/COSEQ",
                    "title": "Sequence Number",
                    "type": "SDTM Dataset Variable"
                },
                "parentDataset": {
                    "href": "/mdr/sdtmig/3-4/datasets/CO",
                    "title": "Comments",
                    "type": "SDTM Dataset"
                },
                "parentProduct": {
                    "href": "/mdr/sdtmig/3-4",
                    "title": "Study Data Tabulation Model Implementation Guide: Human Clinical Trials",
                    "type": "Implementation Guide"
                },
                "priorVersion": {
                    "href": "/mdr/sdtmig/3-3/datasets/CO/variables/COSEQ",
                    "title": "Sequence Number",
                    "type": "SDTM Dataset Variable"
                },
                "rootItem": {
                    "href": "/mdr/root/sdtmig/datasets/CO/variables/COSEQ",
                    "title": "Version-agnostic anchor resource for SDTMIG variable CO.COSEQ",
                    "type": "Root Data Element"
                },
                "self": {
                    "href": "/mdr/sdtmig/3-4/datasets/CO/variables/COSEQ",
                    "title": "Sequence Number",
                    "type": "SDTM Dataset Variable"
                }
            },
            "core": "Req",
            "description": "Sequence Number given to ensure uniqueness of subject records within a domain. May be any valid number.",
            "label": "Sequence Number",
            "name": "COSEQ",
            "ordinal": "5",
            "role": "Identifier",
            "simpleDatatype": "Num"
        },
        {
            "_links": {
                "modelDatasetVariable": {
                    "href": "/mdr/sdtm/2-0/datasets/CO/variables/IDVAR",
                    "title": "Identifying Variable",
                    "type": "SDTM Dataset Variable"
                },
                "parentDataset": {
                    "href": "/mdr/sdtmig/3-4/datasets/CO",
                    "title": "Comments",
                    "type": "SDTM Dataset"
                },
                "parentProduct": {
                    "href": "/mdr/sdtmig/3-4",
                    "title": "Study Data Tabulation Model Implementation Guide: Human Clinical Trials",
                    "type": "Implementation Guide"
                },
                "priorVersion": {
                    "href": "/mdr/sdtmig/3-3/datasets/CO/variables/IDVAR",
                    "title": "Identifying Variable",
                    "type": "SDTM Dataset Variable"
                },
                "rootItem": {
                    "href": "/mdr/root/sdtmig/datasets/CO/variables/IDVAR",
                    "title": "Version-agnostic anchor resource for SDTMIG variable CO.IDVAR",
                    "type": "Root Data Element"
                },
                "self": {
                    "href": "/mdr/sdtmig/3-4/datasets/CO/variables/IDVAR",
                    "title": "Identifying Variable",
                    "type": "SDTM Dataset Variable"
                }
            },
            "core": "Perm",
            "description": "Identifying variable in the parent dataset that identifies the record(s) to which the comment applies. Examples AESEQ or CMGRPID. Used only when individual comments are related to domain records. Null for comments collected on separate CRFs.",
            "label": "Identifying Variable",
            "name": "IDVAR",
            "ordinal": "6",
            "role": "Record Qualifier",
            "simpleDatatype": "Char"
        },
        {
            "_links": {
                "modelDatasetVariable": {
                    "href": "/mdr/sdtm/2-0/datasets/CO/variables/IDVARVAL",
                    "title": "Identifying Variable Value",
                    "type": "SDTM Dataset Variable"
                },
                "parentDataset": {
                    "href": "/mdr/sdtmig/3-4/datasets/CO",
                    "title": "Comments",
                    "type": "SDTM Dataset"
                },
                "parentProduct": {
                    "href": "/mdr/sdtmig/3-4",
                    "title": "Study Data Tabulation Model Implementation Guide: Human Clinical Trials",
                    "type": "Implementation Guide"
                },
                "priorVersion": {
                    "href": "/mdr/sdtmig/3-3/datasets/CO/variables/IDVARVAL",
                    "title": "Identifying Variable Value",
                    "type": "SDTM Dataset Variable"
                },
                "rootItem": {
                    "href": "/mdr/root/sdtmig/datasets/CO/variables/IDVARVAL",
                    "title": "Version-agnostic anchor resource for SDTMIG variable CO.IDVARVAL",
                    "type": "Root Data Element"
                },
                "self": {
                    "href": "/mdr/sdtmig/3-4/datasets/CO/variables/IDVARVAL",
                    "title": "Identifying Variable Value",
                    "type": "SDTM Dataset Variable"
                }
            },
            "core": "Perm",
            "description": "Value of identifying variable of the parent record(s). Used only when individual comments are related to domain records. Null for comments collected on separate CRFs.",
            "label": "Identifying Variable Value",
            "name": "IDVARVAL",
            "ordinal": "7",
            "role": "Record Qualifier",
            "simpleDatatype": "Char"
        },
        {
            "_links": {
                "modelDatasetVariable": {
                    "href": "/mdr/sdtm/2-0/datasets/CO/variables/COREF",
                    "title": "Comment Reference",
                    "type": "SDTM Dataset Variable"
                },
                "parentDataset": {
                    "href": "/mdr/sdtmig/3-4/datasets/CO",
                    "title": "Comments",
                    "type": "SDTM Dataset"
                },
                "parentProduct": {
                    "href": "/mdr/sdtmig/3-4",
                    "title": "Study Data Tabulation Model Implementation Guide: Human Clinical Trials",
                    "type": "Implementation Guide"
                },
                "priorVersion": {
                    "href": "/mdr/sdtmig/3-3/datasets/CO/variables/COREF",
                    "title": "Comment Reference",
                    "type": "SDTM Dataset Variable"
                },
                "rootItem": {
                    "href": "/mdr/root/sdtmig/datasets/CO/variables/COREF",
                    "title": "Version-agnostic anchor resource for SDTMIG variable CO.COREF",
                    "type": "Root Data Element"
                },
                "self": {
                    "href": "/mdr/sdtmig/3-4/datasets/CO/variables/COREF",
                    "title": "Comment Reference",
                    "type": "SDTM Dataset Variable"
                }
            },
            "core": "Perm",
            "description": "Sponsor-defined reference associated with the comment. May be the CRF page number (e.g., 650), or a module name (e.g., DEMOG), or a combination of information that identifies the reference (e.g. 650-VITALS-VISIT 2).",
            "label": "Comment Reference",
            "name": "COREF",
            "ordinal": "8",
            "role": "Record Qualifier",
            "simpleDatatype": "Char"
        },
        {
            "_links": {
                "modelDatasetVariable": {
                    "href": "/mdr/sdtm/2-0/datasets/CO/variables/COVAL",
                    "title": "Comment",
                    "type": "SDTM Dataset Variable"
                },
                "parentDataset": {
                    "href": "/mdr/sdtmig/3-4/datasets/CO",
                    "title": "Comments",
                    "type": "SDTM Dataset"
                },
                "parentProduct": {
                    "href": "/mdr/sdtmig/3-4",
                    "title": "Study Data Tabulation Model Implementation Guide: Human Clinical Trials",
                    "type": "Implementation Guide"
                },
                "priorVersion": {
                    "href": "/mdr/sdtmig/3-3/datasets/CO/variables/COVAL",
                    "title": "Comment",
                    "type": "SDTM Dataset Variable"
                },
                "rootItem": {
                    "href": "/mdr/root/sdtmig/datasets/CO/variables/COVAL",
                    "title": "Version-agnostic anchor resource for SDTMIG variable CO.COVAL",
                    "type": "Root Data Element"
                },
                "self": {
                    "href": "/mdr/sdtmig/3-4/datasets/CO/variables/COVAL",
                    "title": "Comment",
                    "type": "SDTM Dataset Variable"
                }
            },
            "core": "Req",
            "description": "The text of the comment. Text over 200 characters can be added to additional columns COVAL1-COVALn. See Assumption 3.",
            "label": "Comment",
            "name": "COVAL",
            "ordinal": "9",
            "role": "Topic",
            "simpleDatatype": "Char"
        },
        {
            "_links": {
                "codelist": [
                    {
                        "href": "/mdr/root/ct/sdtmct/codelists/C78735",
                        "title": "Version-agnostic anchor resource for codelist C78735",
                        "type": "Root Value Domain"
                    }
                ],
                "modelDatasetVariable": {
                    "href": "/mdr/sdtm/2-0/datasets/CO/variables/COEVAL",
                    "title": "Evaluator",
                    "type": "SDTM Dataset Variable"
                },
                "parentDataset": {
                    "href": "/mdr/sdtmig/3-4/datasets/CO",
                    "title": "Comments",
                    "type": "SDTM Dataset"
                },
                "parentProduct": {
                    "href": "/mdr/sdtmig/3-4",
                    "title": "Study Data Tabulation Model Implementation Guide: Human Clinical Trials",
                    "type": "Implementation Guide"
                },
                "priorVersion": {
                    "href": "/mdr/sdtmig/3-3/datasets/CO/variables/COEVAL",
                    "title": "Evaluator",
                    "type": "SDTM Dataset Variable"
                },
                "rootItem": {
                    "href": "/mdr/root/sdtmig/datasets/CO/variables/COEVAL",
                    "title": "Version-agnostic anchor resource for SDTMIG variable CO.COEVAL",
                    "type": "Root Data Element"
                },
                "self": {
                    "href": "/mdr/sdtmig/3-4/datasets/CO/variables/COEVAL",
                    "title": "Evaluator",
                    "type": "SDTM Dataset Variable"
                }
            },
            "core": "Perm",
            "description": "Role of the person who provided the evaluation. Used only for results that are subjective (e.g., assigned by a person or a group). Example: \"INVESTIGATOR\".",
            "label": "Evaluator",
            "name": "COEVAL",
            "ordinal": "10",
            "role": "Record Qualifier",
            "simpleDatatype": "Char"
        },
        {
            "_links": {
                "codelist": [
                    {
                        "href": "/mdr/root/ct/sdtmct/codelists/C96777",
                        "title": "Version-agnostic anchor resource for codelist C96777",
                        "type": "Root Value Domain"
                    }
                ],
                "modelDatasetVariable": {
                    "href": "/mdr/sdtm/2-0/datasets/CO/variables/COEVALID",
                    "title": "Evaluator Identifier",
                    "type": "SDTM Dataset Variable"
                },
                "parentDataset": {
                    "href": "/mdr/sdtmig/3-4/datasets/CO",
                    "title": "Comments",
                    "type": "SDTM Dataset"
                },
                "parentProduct": {
                    "href": "/mdr/sdtmig/3-4",
                    "title": "Study Data Tabulation Model Implementation Guide: Human Clinical Trials",
                    "type": "Implementation Guide"
                },
                "priorVersion": {
                    "href": "/mdr/sdtmig/3-3/datasets/CO/variables/COEVALID",
                    "title": "Evaluator Identifier",
                    "type": "SDTM Dataset Variable"
                },
                "rootItem": {
                    "href": "/mdr/root/sdtmig/datasets/CO/variables/COEVALID",
                    "title": "Version-agnostic anchor resource for SDTMIG variable CO.COEVALID",
                    "type": "Root Data Element"
                },
                "self": {
                    "href": "/mdr/sdtmig/3-4/datasets/CO/variables/COEVALID",
                    "title": "Evaluator Identifier",
                    "type": "SDTM Dataset Variable"
                }
            },
            "core": "Perm",
            "description": "Used to distinguish multiple evaluators with the same role recorded in --EVAL. Examples: \"RADIOLOGIST\", \"RADIOLOGIST 1\", \"RADIOLOGIST 2\".",
            "label": "Evaluator Identifier",
            "name": "COEVALID",
            "ordinal": "11",
            "role": "Record Qualifier",
            "simpleDatatype": "Char"
        },
        {
            "_links": {
                "modelDatasetVariable": {
                    "href": "/mdr/sdtm/2-0/datasets/CO/variables/CODTC",
                    "title": "Date/Time of Comment",
                    "type": "SDTM Dataset Variable"
                },
                "parentDataset": {
                    "href": "/mdr/sdtmig/3-4/datasets/CO",
                    "title": "Comments",
                    "type": "SDTM Dataset"
                },
                "parentProduct": {
                    "href": "/mdr/sdtmig/3-4",
                    "title": "Study Data Tabulation Model Implementation Guide: Human Clinical Trials",
                    "type": "Implementation Guide"
                },
                "priorVersion": {
                    "href": "/mdr/sdtmig/3-3/datasets/CO/variables/CODTC",
                    "title": "Date/Time of Comment",
                    "type": "SDTM Dataset Variable"
                },
                "rootItem": {
                    "href": "/mdr/root/sdtmig/datasets/CO/variables/CODTC",
                    "title": "Version-agnostic anchor resource for SDTMIG variable CO.CODTC",
                    "type": "Root Data Element"
                },
                "self": {
                    "href": "/mdr/sdtmig/3-4/datasets/CO/variables/CODTC",
                    "title": "Date/Time of Comment",
                    "type": "SDTM Dataset Variable"
                }
            },
            "core": "Perm",
            "describedValueDomain": "ISO 8601 datetime or interval",
            "description": "Date/time of comment on dedicated comment form. Should be null if this is a child record of another domain or if comment date was not collected.",
            "label": "Date/Time of Comment",
            "name": "CODTC",
            "ordinal": "12",
            "role": "Timing",
            "simpleDatatype": "Char"
        },
        {
            "_links": {
                "modelDatasetVariable": {
                    "href": "/mdr/sdtm/2-0/datasets/CO/variables/CODY",
                    "title": "Study Day of Comment",
                    "type": "SDTM Dataset Variable"
                },
                "parentDataset": {
                    "href": "/mdr/sdtmig/3-4/datasets/CO",
                    "title": "Comments",
                    "type": "SDTM Dataset"
                },
                "parentProduct": {
                    "href": "/mdr/sdtmig/3-4",
                    "title": "Study Data Tabulation Model Implementation Guide: Human Clinical Trials",
                    "type": "Implementation Guide"
                },
                "priorVersion": {
                    "href": "/mdr/sdtmig/3-3/datasets/CO/variables/CODY",
                    "title": "Study Day of Comment",
                    "type": "SDTM Dataset Variable"
                },
                "rootItem": {
                    "href": "/mdr/root/sdtmig/datasets/CO/variables/CODY",
                    "title": "Version-agnostic anchor resource for SDTMIG variable CO.CODY",
                    "type": "Root Data Element"
                },
                "self": {
                    "href": "/mdr/sdtmig/3-4/datasets/CO/variables/CODY",
                    "title": "Study Day of Comment",
                    "type": "SDTM Dataset Variable"
                }
            },
            "core": "Perm",
            "description": "Study day of the comment, in integer days. The algorithm for calculations must be relative to the sponsor-defined RFSTDTC variable in the Demographics (DM) domain.",
            "label": "Study Day of Comment",
            "name": "CODY",
            "ordinal": "13",
            "role": "Timing",
            "simpleDatatype": "Num"
        }
    ],
    "description": "A special-purpose domain that contains comments that may be collected alongside other data.",
    "label": "Comments",
    "name": "CO",
    "ordinal": "7"
}