{"_links": {"parentClass": {"href": "/mdr/sdtmig/3-4/classes/Findings", "title": "Findings", "type": "Class"}, "parentProduct": {"href": "/mdr/sdtmig/3-4", "title": "Study Data Tabulation Model Implementation Guide: Human Clinical Trials", "type": "Implementation Guide"}, "self": {"href": "/mdr/sdtmig/3-4/datasets/CP", "title": "Cell Phenotype Findings", "type": "SDTM Dataset"}}, "datasetStructure": "One record per test per specimen per timepoint per visit per subject", "datasetVariables": [{"_links": {"modelClassVariable": {"href": "/mdr/sdtm/2-0/classes/GeneralObservations/variables/STUDYID", "title": "Study Identifier", "type": "SDTM Class Variable"}, "parentDataset": {"href": "/mdr/sdtmig/3-4/datasets/CP", "title": "Cell Phenotype Findings", "type": "SDTM Dataset"}, "parentProduct": {"href": "/mdr/sdtmig/3-4", "title": "Study Data Tabulation Model Implementation Guide: Human Clinical Trials", "type": "Implementation Guide"}, "rootItem": {"href": "/mdr/root/sdtmig/datasets/CP/variables/STUDYID", "title": "Version-agnostic anchor resource for SDTMIG variable CP.STUDYID", "type": "Root Data Element"}, "self": {"href": "/mdr/sdtmig/3-4/datasets/CP/variables/STUDYID", "title": "Study Identifier", "type": "SDTM Dataset Variable"}}, "core": "Req", "description": "Unique identifier for a study.", "label": "Study Identifier", "name": "STUDYID", "ordinal": "1", "role": "Identifier", "simpleDatatype": "Char"}, {"_links": {"modelClassVariable": {"href": "/mdr/sdtm/2-0/classes/GeneralObservations/variables/DOMAIN", "title": "Domain Abbreviation", "type": "SDTM Class Variable"}, "parentDataset": {"href": "/mdr/sdtmig/3-4/datasets/CP", "title": "Cell Phenotype Findings", "type": "SDTM Dataset"}, "parentProduct": {"href": "/mdr/sdtmig/3-4", "title": "Study Data Tabulation Model Implementation Guide: Human Clinical Trials", "type": "Implementation Guide"}, "rootItem": {"href": "/mdr/root/sdtmig/datasets/CP/variables/DOMAIN", "title": "Version-agnostic anchor resource for SDTMIG variable CP.DOMAIN", "type": "Root Data Element"}, "self": {"href": "/mdr/sdtmig/3-4/datasets/CP/variables/DOMAIN", "title": "Domain Abbreviation", "type": "SDTM Dataset Variable"}}, "core": "Req", "description": "Two-character abbreviation for the domain.", "label": "Domain Abbreviation", "name": "DOMAIN", "ordinal": "2", "role": "Identifier", "simpleDatatype": "Char", "valueList": ["CP"]}, {"_links": {"modelClassVariable": {"href": "/mdr/sdtm/2-0/classes/GeneralObservations/variables/USUBJID", "title": "Unique Subject Identifier", "type": "SDTM Class Variable"}, "parentDataset": {"href": "/mdr/sdtmig/3-4/datasets/CP", "title": "Cell Phenotype Findings", "type": "SDTM Dataset"}, "parentProduct": {"href": "/mdr/sdtmig/3-4", "title": "Study Data Tabulation Model Implementation Guide: Human Clinical Trials", "type": "Implementation Guide"}, "rootItem": {"href": "/mdr/root/sdtmig/datasets/CP/variables/USUBJID", "title": "Version-agnostic anchor resource for SDTMIG variable CP.USUBJID", "type": "Root Data Element"}, "self": {"href": "/mdr/sdtmig/3-4/datasets/CP/variables/USUBJID", "title": "Unique Subject Identifier", "type": "SDTM Dataset Variable"}}, "core": "Req", "description": "Identifier used to uniquely identify a subject across all studies for all applications or submissions involving the product.", "label": "Unique Subject Identifier", "name": "USUBJID", "ordinal": "3", "role": "Identifier", "simpleDatatype": "Char"}, {"_links": {"modelClassVariable": {"href": "/mdr/sdtm/2-0/classes/GeneralObservations/variables/--SEQ", "title": "Sequence Number", "type": "SDTM Class Variable"}, "parentDataset": {"href": "/mdr/sdtmig/3-4/datasets/CP", "title": "Cell Phenotype Findings", "type": "SDTM Dataset"}, "parentProduct": {"href": "/mdr/sdtmig/3-4", "title": "Study Data Tabulation Model Implementation Guide: Human Clinical Trials", "type": "Implementation Guide"}, "rootItem": {"href": "/mdr/root/sdtmig/datasets/CP/variables/CPSEQ", "title": "Version-agnostic anchor resource for SDTMIG variable CP.CPSEQ", "type": "Root Data Element"}, "self": {"href": "/mdr/sdtmig/3-4/datasets/CP/variables/CPSEQ", "title": "Sequence Number", "type": "SDTM Dataset Variable"}}, "core": "Req", "description": "Sequence number to ensure uniqueness of subject records within a domain. May be any valid number.", "label": "Sequence Number", "name": "CPSEQ", "ordinal": "4", "role": "Identifier", "simpleDatatype": "Num"}, {"_links": {"modelClassVariable": {"href": "/mdr/sdtm/2-0/classes/GeneralObservations/variables/--GRPID", "title": "Group ID", "type": "SDTM Class Variable"}, "parentDataset": {"href": "/mdr/sdtmig/3-4/datasets/CP", "title": "Cell Phenotype Findings", "type": "SDTM Dataset"}, "parentProduct": {"href": "/mdr/sdtmig/3-4", "title": "Study Data Tabulation Model Implementation Guide: Human Clinical Trials", "type": "Implementation Guide"}, "rootItem": {"href": "/mdr/root/sdtmig/datasets/CP/variables/CPGRPID", "title": "Version-agnostic anchor resource for SDTMIG variable CP.CPGRPID", "type": "Root Data Element"}, "self": {"href": "/mdr/sdtmig/3-4/datasets/CP/variables/CPGRPID", "title": "Group ID", "type": "SDTM Dataset Variable"}}, "core": "Perm", "description": "Used to tie together a block of related records in a single domain for a subject.", "label": "Group ID", "name": "CPGRPID", "ordinal": "5", "role": "Identifier", "simpleDatatype": "Char"}, {"_links": {"modelClassVariable": {"href": "/mdr/sdtm/2-0/classes/GeneralObservations/variables/--REFID", "title": "Reference ID", "type": "SDTM Class Variable"}, "parentDataset": {"href": "/mdr/sdtmig/3-4/datasets/CP", "title": "Cell Phenotype Findings", "type": "SDTM Dataset"}, "parentProduct": {"href": "/mdr/sdtmig/3-4", "title": "Study Data Tabulation Model Implementation Guide: Human Clinical Trials", "type": "Implementation Guide"}, "rootItem": {"href": "/mdr/root/sdtmig/datasets/CP/variables/CPREFID", "title": "Version-agnostic anchor resource for SDTMIG variable CP.CPREFID", "type": "Root Data Element"}, "self": {"href": "/mdr/sdtmig/3-4/datasets/CP/variables/CPREFID", "title": "Reference ID", "type": "SDTM Dataset Variable"}}, "core": "Perm", "description": "Internal or external specimen identifier.", "label": "Reference ID", "name": "CPREFID", "ordinal": "6", "role": "Identifier", "simpleDatatype": "Char"}, {"_links": {"modelClassVariable": {"href": "/mdr/sdtm/2-0/classes/GeneralObservations/variables/--SPID", "title": "Sponsor-Defined Identifier", "type": "SDTM Class Variable"}, "parentDataset": {"href": "/mdr/sdtmig/3-4/datasets/CP", "title": "Cell Phenotype Findings", "type": "SDTM Dataset"}, "parentProduct": {"href": "/mdr/sdtmig/3-4", "title": "Study Data Tabulation Model Implementation Guide: Human Clinical Trials", "type": "Implementation Guide"}, "rootItem": {"href": "/mdr/root/sdtmig/datasets/CP/variables/CPSPID", "title": "Version-agnostic anchor resource for SDTMIG variable CP.CPSPID", "type": "Root Data Element"}, "self": {"href": "/mdr/sdtmig/3-4/datasets/CP/variables/CPSPID", "title": "Sponsor-Defined Identifier", "type": "SDTM Dataset Variable"}}, "core": "Perm", "description": "Sponsor-defined reference number. May be preprinted on the CRF as an explicit line identifier or defined in the sponsor's operational database. Example: Line number on the lab page.", "label": "Sponsor-Defined Identifier", "name": "CPSPID", "ordinal": "7", "role": "Identifier", "simpleDatatype": "Char"}, {"_links": {"modelClassVariable": {"href": "/mdr/sdtm/2-0/classes/GeneralObservations/variables/--LNKID", "title": "Link ID", "type": "SDTM Class Variable"}, "parentDataset": {"href": "/mdr/sdtmig/3-4/datasets/CP", "title": "Cell Phenotype Findings", "type": "SDTM Dataset"}, "parentProduct": {"href": "/mdr/sdtmig/3-4", "title": "Study Data Tabulation Model Implementation Guide: Human Clinical Trials", "type": "Implementation Guide"}, "rootItem": {"href": "/mdr/root/sdtmig/datasets/CP/variables/CPLNKID", "title": "Version-agnostic anchor resource for SDTMIG variable CP.CPLNKID", "type": "Root Data Element"}, "self": {"href": "/mdr/sdtmig/3-4/datasets/CP/variables/CPLNKID", "title": "Link ID", "type": "SDTM Dataset Variable"}}, "core": "Perm", "description": "Identifier used to link related records across domains. This may be a one-to-one or a one-to-many relationship.", "label": "Link ID", "name": "CPLNKID", "ordinal": "8", "role": "Identifier", "simpleDatatype": "Char"}, {"_links": {"modelClassVariable": {"href": "/mdr/sdtm/2-0/classes/GeneralObservations/variables/--LNKGRP", "title": "Link Group ID", "type": "SDTM Class Variable"}, "parentDataset": {"href": "/mdr/sdtmig/3-4/datasets/CP", "title": "Cell Phenotype Findings", "type": "SDTM Dataset"}, "parentProduct": {"href": "/mdr/sdtmig/3-4", "title": "Study Data Tabulation Model Implementation Guide: Human Clinical Trials", "type": "Implementation Guide"}, "rootItem": {"href": "/mdr/root/sdtmig/datasets/CP/variables/CPLNKGRP", "title": "Version-agnostic anchor resource for SDTMIG variable CP.CPLNKGRP", "type": "Root Data Element"}, "self": {"href": "/mdr/sdtmig/3-4/datasets/CP/variables/CPLNKGRP", "title": "Link Group ID", "type": "SDTM Dataset Variable"}}, "core": "Perm", "description": "Identifier used to link related records across domains. This will usually be a many-to-one relationship.", "label": "Link Group ID", "name": "CPLNKGRP", "ordinal": "9", "role": "Identifier", "simpleDatatype": "Char"}, {"_links": {"codelist": [{"href": "/mdr/root/ct/sdtmct/codelists/C181173", "title": "Version-agnostic anchor resource for codelist C181173", "type": "Root Value Domain"}], "modelClassVariable": {"href": "/mdr/sdtm/2-0/classes/Findings/variables/--TESTCD", "title": "Short Name of Measurement, Test, or Exam", "type": "SDTM Class Variable"}, "parentDataset": {"href": "/mdr/sdtmig/3-4/datasets/CP", "title": "Cell Phenotype Findings", "type": "SDTM Dataset"}, "parentProduct": {"href": "/mdr/sdtmig/3-4", "title": "Study Data Tabulation Model Implementation Guide: Human Clinical Trials", "type": "Implementation Guide"}, "rootItem": {"href": "/mdr/root/sdtmig/datasets/CP/variables/CPTESTCD", "title": "Version-agnostic anchor resource for SDTMIG variable CP.CPTESTCD", "type": "Root Data Element"}, "self": {"href": "/mdr/sdtmig/3-4/datasets/CP/variables/CPTESTCD", "title": "Test or Examination Short Name", "type": "SDTM Dataset Variable"}}, "core": "Req", "description": "Short name of the measurement, test, or examination described in CPTEST. It can be used as a column name when converting a dataset from a vertical to a horizontal format. The value in CPTESTCD cannot be longer than 8 characters, nor can it start with a number (e.g., \"1TEST\" is not valid). CPTESTCD cannot contain characters other than letters, numbers, or underscores. Examples: \"MONO\", \"MNS\".", "label": "Test or Examination Short Name", "name": "CPTESTCD", "ordinal": "10", "role": "Topic", "simpleDatatype": "Char"}, {"_links": {"codelist": [{"href": "/mdr/root/ct/sdtmct/codelists/C181174", "title": "Version-agnostic anchor resource for codelist C181174", "type": "Root Value Domain"}], "modelClassVariable": {"href": "/mdr/sdtm/2-0/classes/Findings/variables/--TEST", "title": "Name of Measurement, Test, or Exam", "type": "SDTM Class Variable"}, "parentDataset": {"href": "/mdr/sdtmig/3-4/datasets/CP", "title": "Cell Phenotype Findings", "type": "SDTM Dataset"}, "parentProduct": {"href": "/mdr/sdtmig/3-4", "title": "Study Data Tabulation Model Implementation Guide: Human Clinical Trials", "type": "Implementation Guide"}, "rootItem": {"href": "/mdr/root/sdtmig/datasets/CP/variables/CPTEST", "title": "Version-agnostic anchor resource for SDTMIG variable CP.CPTEST", "type": "Root Data Element"}, "self": {"href": "/mdr/sdtmig/3-4/datasets/CP/variables/CPTEST", "title": "Name of Measurement, Test or Examination", "type": "SDTM Dataset Variable"}}, "core": "Req", "description": "Long name for CPTESTCD. For cell phenotyping, the name (often abbreviated) of the cell population, as it is generally accepted by the scientific community, is populated (rather than a colloquial designation based on a primary marker, e.g., TLym Help rather than CD4). When the test is for a sublineage which can only be identified by specifying additional markers (i.e., has not been given a name) or which is further restricted to a subpopulation based on a particular cell state (e.g., activated, proliferating, apoptotic), the Sublineage Marker String (CPSBMRKS), Cell State (CPCELSTA), and Cell State Marker String (CPCSMRKS) variables are additionally populated and the value in CPTEST is suffixed with \"Sub\" to denote that it is a subset of the population identified in CPTEST (e.g., Monocytes Sub). \\n The value in CPTEST cannot be longer than 40 characters.", "label": "Name of Measurement, Test or Examination", "name": "CPTEST", "ordinal": "11", "role": "Synonym Qualifier", "simpleDatatype": "Char"}, {"_links": {"modelClassVariable": {"href": "/mdr/sdtm/2-0/classes/Findings/variables/--SBMRKS", "title": "Sublineage Marker String", "type": "SDTM Class Variable"}, "parentDataset": {"href": "/mdr/sdtmig/3-4/datasets/CP", "title": "Cell Phenotype Findings", "type": "SDTM Dataset"}, "parentProduct": {"href": "/mdr/sdtmig/3-4", "title": "Study Data Tabulation Model Implementation Guide: Human Clinical Trials", "type": "Implementation Guide"}, "rootItem": {"href": "/mdr/root/sdtmig/datasets/CP/variables/CPSBMRKS", "title": "Version-agnostic anchor resource for SDTMIG variable CP.CPSBMRKS", "type": "Root Data Element"}, "self": {"href": "/mdr/sdtmig/3-4/datasets/CP/variables/CPSBMRKS", "title": "Sublineage Marker String", "type": "SDTM Dataset Variable"}}, "core": "Perm", "description": "Used to further subset the cell population identified in CPTEST based on the use of additional marker(s) that define a sublineage. The value in CPSBMRKS is used in combination with values in CPTEST and CPCELSTA to fully describe the cell population being measured. As such, it is an essential component of the full test name. \\n For example, three unnamed sublineages of monocytes have been identified as: CCR2+CD16-, CCR2-CD16+, and CCR2+CD16+. Whereas the entire monocyte cell population can be defined as CD14+ cells, the additional CCR2 and CD16 markers are used to differentiate one sublineage from another. As none of these sublineages have been given names, they are only known by the CCR2 and CD16 marker combinations. By associating the CPTEST value of \"Monocytes Sub\" with, for example, a value of \"CCR2+CD16-\" in CPSBMRKS, the full test is defined to be the CCR2+CD16- monocyte subpopulation.", "label": "Sublineage Marker String", "name": "CPSBMRKS", "ordinal": "12", "role": "Variable Qualifier", "simpleDatatype": "Char"}, {"_links": {"codelist": [{"href": "/mdr/root/ct/sdtmct/codelists/C181172", "title": "Version-agnostic anchor resource for codelist C181172", "type": "Root Value Domain"}], "modelClassVariable": {"href": "/mdr/sdtm/2-0/classes/Findings/variables/--CELSTA", "title": "Cell State", "type": "SDTM Class Variable"}, "parentDataset": {"href": "/mdr/sdtmig/3-4/datasets/CP", "title": "Cell Phenotype Findings", "type": "SDTM Dataset"}, "parentProduct": {"href": "/mdr/sdtmig/3-4", "title": "Study Data Tabulation Model Implementation Guide: Human Clinical Trials", "type": "Implementation Guide"}, "rootItem": {"href": "/mdr/root/sdtmig/datasets/CP/variables/CPCELSTA", "title": "Version-agnostic anchor resource for SDTMIG variable CP.CPCELSTA", "type": "Root Data Element"}, "self": {"href": "/mdr/sdtmig/3-4/datasets/CP/variables/CPCELSTA", "title": "Cell State", "type": "SDTM Dataset Variable"}}, "core": "Perm", "description": "A textual description of a subset of the cell population identified in CPTEST based on a particular functional and/or biological state (e.g., \"ACTIVATED\", \"PROLIFERATING\", \"SENESCENT\"). When populated, the values in CPCELSTA and CPSMRKS, in combination with the values in CPTEST and CPSBMRKS, fully describe the cell population being measured.", "label": "Cell State", "name": "CPCELSTA", "ordinal": "13", "role": "Variable Qualifier", "simpleDatatype": "Char"}, {"_links": {"modelClassVariable": {"href": "/mdr/sdtm/2-0/classes/Findings/variables/--CSMRKS", "title": "Cell State Marker String", "type": "SDTM Class Variable"}, "parentDataset": {"href": "/mdr/sdtmig/3-4/datasets/CP", "title": "Cell Phenotype Findings", "type": "SDTM Dataset"}, "parentProduct": {"href": "/mdr/sdtmig/3-4", "title": "Study Data Tabulation Model Implementation Guide: Human Clinical Trials", "type": "Implementation Guide"}, "rootItem": {"href": "/mdr/root/sdtmig/datasets/CP/variables/CPCSMRKS", "title": "Version-agnostic anchor resource for SDTMIG variable CP.CPCSMRKS", "type": "Root Data Element"}, "self": {"href": "/mdr/sdtmig/3-4/datasets/CP/variables/CPCSMRKS", "title": "Cell State Marker String", "type": "SDTM Dataset Variable"}}, "core": "Perm", "description": "Identifies the marker(s) or indicator(s) used to define the cell state (i.e., the value in CPCELSTA). \\n For example, when Ki67 expression is used to determine that a cell population is in a proliferating state (i.e., CPCELSTA value=\"PROLIFERATING\"), the value \"Ki67+\" in CPCSMRKS indicates that positive expression of Ki67 was used to define the population as proliferating. Similarly, a value of \"Ki67-\" in CPCSMRKS would indicate that lack of expression of Ki67 defined the \"NON-PROLIFERATING\" cell state in CPCELSTA. The CPCSMRKS value is useful for quickly determining which marker(s) were used to classify (i.e., operationally define) a cell population based on a functional/biological state.", "label": "Cell State Marker String", "name": "CPCSMRKS", "ordinal": "14", "role": "Variable Qualifier", "simpleDatatype": "Char"}, {"_links": {"codelist": [{"href": "/mdr/root/ct/sdtmct/codelists/C181175", "title": "Version-agnostic anchor resource for codelist C181175", "type": "Root Value Domain"}], "modelClassVariable": {"href": "/mdr/sdtm/2-0/classes/Findings/variables/--TSTCND", "title": "Test Condition", "type": "SDTM Class Variable"}, "parentDataset": {"href": "/mdr/sdtmig/3-4/datasets/CP", "title": "Cell Phenotype Findings", "type": "SDTM Dataset"}, "parentProduct": {"href": "/mdr/sdtmig/3-4", "title": "Study Data Tabulation Model Implementation Guide: Human Clinical Trials", "type": "Implementation Guide"}, "rootItem": {"href": "/mdr/root/sdtmig/datasets/CP/variables/CPTSTCND", "title": "Version-agnostic anchor resource for SDTMIG variable CP.CPTSTCND", "type": "Root Data Element"}, "self": {"href": "/mdr/sdtmig/3-4/datasets/CP/variables/CPTSTCND", "title": "Test Condition", "type": "SDTM Dataset Variable"}}, "core": "Perm", "description": "Identifies any planned condition imposed by the assay system on the specimen at the time the test is performed. --TSTCND is generally used to distinguish between two or more records where the same assay is performed under varying (as opposed to fixed) conditions, usually for the purpose of making a comparison. For example, when the same assay (identified in --TEST) is performed under stimulated and non-stimulated conditions, the --TSTCND variable is used distinguish between the records.", "label": "Test Condition", "name": "CPTSTCND", "ordinal": "15", "role": "Variable Qualifier", "simpleDatatype": "Char"}, {"_links": {"modelClassVariable": {"href": "/mdr/sdtm/2-0/classes/Findings/variables/--CNDAGT", "title": "Test Condition Agent", "type": "SDTM Class Variable"}, "parentDataset": {"href": "/mdr/sdtmig/3-4/datasets/CP", "title": "Cell Phenotype Findings", "type": "SDTM Dataset"}, "parentProduct": {"href": "/mdr/sdtmig/3-4", "title": "Study Data Tabulation Model Implementation Guide: Human Clinical Trials", "type": "Implementation Guide"}, "rootItem": {"href": "/mdr/root/sdtmig/datasets/CP/variables/CPCNDAGT", "title": "Version-agnostic anchor resource for SDTMIG variable CP.CPCNDAGT", "type": "Root Data Element"}, "self": {"href": "/mdr/sdtmig/3-4/datasets/CP/variables/CPCNDAGT", "title": "Test Condition Agent", "type": "SDTM Dataset Variable"}}, "core": "Perm", "description": "The textual description of the agent, if applicable, used to impose the condition identified in CPTSTCND. For example, records might be produced for the same assay run under stimulating (CPTSTCND value = \"STIMULATED\") conditions produced by different stimulating agents (e.g., phorbol myristate acetate, concanavalin A, PHA-P, TNF-alpha, Ionomycin, candida antigen).", "label": "Test Condition Agent", "name": "CPCNDAGT", "ordinal": "16", "role": "Record Qualifier", "simpleDatatype": "Char"}, {"_links": {"modelClassVariable": {"href": "/mdr/sdtm/2-0/classes/Findings/variables/--BDAGNT", "title": "Binding Agent", "type": "SDTM Class Variable"}, "parentDataset": {"href": "/mdr/sdtmig/3-4/datasets/CP", "title": "Cell Phenotype Findings", "type": "SDTM Dataset"}, "parentProduct": {"href": "/mdr/sdtmig/3-4", "title": "Study Data Tabulation Model Implementation Guide: Human Clinical Trials", "type": "Implementation Guide"}, "rootItem": {"href": "/mdr/root/sdtmig/datasets/CP/variables/CPBDAGNT", "title": "Version-agnostic anchor resource for SDTMIG variable CP.CPBDAGNT", "type": "Root Data Element"}, "self": {"href": "/mdr/sdtmig/3-4/datasets/CP/variables/CPBDAGNT", "title": "Binding Agent", "type": "SDTM Dataset Variable"}}, "core": "Perm", "description": "The textual description of the agent that is binding to the entity in the CPTEST variable. The CPBDAGNT variable is used to indicate that there is a binding relationship between the entities in the CPTEST and CPBDAGNT variables, regardless of direction. \\n The binding agent may be, but is not limited to, a test article; a portion of a test article; a substance related to a test article; an endogenous molecule; an allergen; an infectious agent; or a reagent (e.g., primary antibody) that confers the binding specificity for the measurement defined in CPTEST when it is needed to uniquely identify the test.", "label": "Binding Agent", "name": "CPBDAGNT", "ordinal": "17", "role": "Record Qualifier", "simpleDatatype": "Char"}, {"_links": {"modelClassVariable": {"href": "/mdr/sdtm/2-0/classes/Findings/variables/--ABCLID", "title": "Antibody Clone Identifier", "type": "SDTM Class Variable"}, "parentDataset": {"href": "/mdr/sdtmig/3-4/datasets/CP", "title": "Cell Phenotype Findings", "type": "SDTM Dataset"}, "parentProduct": {"href": "/mdr/sdtmig/3-4", "title": "Study Data Tabulation Model Implementation Guide: Human Clinical Trials", "type": "Implementation Guide"}, "rootItem": {"href": "/mdr/root/sdtmig/datasets/CP/variables/CPABCLID", "title": "Version-agnostic anchor resource for SDTMIG variable CP.CPABCLID", "type": "Root Data Element"}, "self": {"href": "/mdr/sdtmig/3-4/datasets/CP/variables/CPABCLID", "title": "Antibody Clone Identifier", "type": "SDTM Dataset Variable"}}, "core": "Perm", "description": "Identifies the antibody clone (e.g., supplier-provided catalog name) used to confer specificity for the binding agent specified in CPBDAGNT.", "label": "Antibody Clone Identifier", "name": "CPABCLID", "ordinal": "18", "role": "Record Qualifier", "simpleDatatype": "Char"}, {"_links": {"modelClassVariable": {"href": "/mdr/sdtm/2-0/classes/Findings/variables/--MRKSTR", "title": "Marker String", "type": "SDTM Class Variable"}, "parentDataset": {"href": "/mdr/sdtmig/3-4/datasets/CP", "title": "Cell Phenotype Findings", "type": "SDTM Dataset"}, "parentProduct": {"href": "/mdr/sdtmig/3-4", "title": "Study Data Tabulation Model Implementation Guide: Human Clinical Trials", "type": "Implementation Guide"}, "rootItem": {"href": "/mdr/root/sdtmig/datasets/CP/variables/CPMRKSTR", "title": "Version-agnostic anchor resource for SDTMIG variable CP.CPMRKSTR", "type": "Root Data Element"}, "self": {"href": "/mdr/sdtmig/3-4/datasets/CP/variables/CPMRKSTR", "title": "Marker String", "type": "SDTM Dataset Variable"}}, "core": "Exp", "description": "The text string identifying the full set of markers/indicators used by the laboratory to operationally define the complete test based on the combination of CPTEST, CPSBMRKS, and CPCELSTA. Because laboratories often use different markers/indicators to identify a cell population, the relationship between a named cell population in CPTEST (as combined with CPSBMRKS and CPCELSTA values) and the set of markers used to identify that population is many-to-one. To ensure nuances important for accurately interpreting the data are accounted for and which arise from the use of different sets of markers, it is necessary to operationally define the test in terms of the complete set of markers/indicators used to perform that test.", "label": "Marker String", "name": "CPMRKSTR", "ordinal": "19", "role": "Record Qualifier", "simpleDatatype": "Char"}, {"_links": {"modelClassVariable": {"href": "/mdr/sdtm/2-0/classes/Findings/variables/--GATE", "title": "Gate", "type": "SDTM Class Variable"}, "parentDataset": {"href": "/mdr/sdtmig/3-4/datasets/CP", "title": "Cell Phenotype Findings", "type": "SDTM Dataset"}, "parentProduct": {"href": "/mdr/sdtmig/3-4", "title": "Study Data Tabulation Model Implementation Guide: Human Clinical Trials", "type": "Implementation Guide"}, "rootItem": {"href": "/mdr/root/sdtmig/datasets/CP/variables/CPGATE", "title": "Version-agnostic anchor resource for SDTMIG variable CP.CPGATE", "type": "Root Data Element"}, "self": {"href": "/mdr/sdtmig/3-4/datasets/CP/variables/CPGATE", "title": "Gate", "type": "SDTM Dataset Variable"}}, "core": "Perm", "description": "The sponsor-defined name assigned to a gate. Gates are electronic (i.e., a device setting or software-defined) boundaries set by a user to virtually parse a specimen into discrete populations based on a set of defined characteristics (e.g., presence, absence, or intensity of expression of various markers; physical size; internal complexity or granularity). Gates are used to constrain data collection or analysis to a specific cell population or region of interest within the specimen.", "label": "Gate", "name": "CPGATE", "ordinal": "20", "role": "Record Qualifier", "simpleDatatype": "Char"}, {"_links": {"modelClassVariable": {"href": "/mdr/sdtm/2-0/classes/Findings/variables/--GATDEF", "title": "Gate Definition", "type": "SDTM Class Variable"}, "parentDataset": {"href": "/mdr/sdtmig/3-4/datasets/CP", "title": "Cell Phenotype Findings", "type": "SDTM Dataset"}, "parentProduct": {"href": "/mdr/sdtmig/3-4", "title": "Study Data Tabulation Model Implementation Guide: Human Clinical Trials", "type": "Implementation Guide"}, "rootItem": {"href": "/mdr/root/sdtmig/datasets/CP/variables/CPGATDEF", "title": "Version-agnostic anchor resource for SDTMIG variable CP.CPGATDEF", "type": "Root Data Element"}, "self": {"href": "/mdr/sdtmig/3-4/datasets/CP/variables/CPGATDEF", "title": "Gate Definition", "type": "SDTM Dataset Variable"}}, "core": "Perm", "description": "The text string identifying the set of parameters and the order in which they are applied to define the gating strategy. In practice, a series of 2-dimensional sub-gates based on different cell characteristics (i.e., markers/indicators/physical properties) are most often combined until the cell population of interest is sufficiently resolved (i.e., electronically isolated) from other cell populations contained within the specimen. \\n For complex analyses, differences in gating strategies can produce subtle differences in results obtained for a test. To ensure nuances important for accurately interpreting the data are accounted for and which arise from the use of different gating strategies, it is often necessary to qualify the test in terms of the gating strategy. For some purposes, however, and at the discretion of the sponsor, only the ultimate or penultimate gate is identified. When specifying the gating strategy in CPGATDEF, each sub-gate should be listed in the order it was applied and separated from the next sub-gate using the pipe/vertical line (\"|\") character.", "label": "Gate Definition", "name": "CPGATDEF", "ordinal": "21", "role": "Record Qualifier", "simpleDatatype": "Char"}, {"_links": {"modelClassVariable": {"href": "/mdr/sdtm/2-0/classes/Findings/variables/--SPTSTD", "title": "Sponsor Test Description", "type": "SDTM Class Variable"}, "parentDataset": {"href": "/mdr/sdtmig/3-4/datasets/CP", "title": "Cell Phenotype Findings", "type": "SDTM Dataset"}, "parentProduct": {"href": "/mdr/sdtmig/3-4", "title": "Study Data Tabulation Model Implementation Guide: Human Clinical Trials", "type": "Implementation Guide"}, "rootItem": {"href": "/mdr/root/sdtmig/datasets/CP/variables/CPSPTSTD", "title": "Version-agnostic anchor resource for SDTMIG variable CP.CPSPTSTD", "type": "Root Data Element"}, "self": {"href": "/mdr/sdtmig/3-4/datasets/CP/variables/CPSPTSTD", "title": "Sponsor Test Description", "type": "SDTM Dataset Variable"}}, "core": "Perm", "description": "Sponsor's description of a test. The variable is intended to contain highly structured test description metadata used by a sponsor to unambiguously define (label) a test. Such values generally reside in a sponsor/laboratory test metadata repository. CPSPTSTD is not intended for unstructured (spontaneous) free text. \\n An example of appropriate usage is when it is necessary to include identifying information for a target cell population on which a test is conducted when the target population is not part of the test name, e.g., tests for quantitative expression of a particular marker on a specific cell population.", "label": "Sponsor Test Description", "name": "CPSPTSTD", "ordinal": "22", "role": "Record Qualifier", "simpleDatatype": "Char"}, {"_links": {"codelist": [{"href": "/mdr/root/ct/sdtmct/codelists/C181171", "title": "Version-agnostic anchor resource for codelist C181171", "type": "Root Value Domain"}], "modelClassVariable": {"href": "/mdr/sdtm/2-0/classes/Findings/variables/--CAT", "title": "Category", "type": "SDTM Class Variable"}, "parentDataset": {"href": "/mdr/sdtmig/3-4/datasets/CP", "title": "Cell Phenotype Findings", "type": "SDTM Dataset"}, "parentProduct": {"href": "/mdr/sdtmig/3-4", "title": "Study Data Tabulation Model Implementation Guide: Human Clinical Trials", "type": "Implementation Guide"}, "rootItem": {"href": "/mdr/root/sdtmig/datasets/CP/variables/CPCAT", "title": "Version-agnostic anchor resource for SDTMIG variable CP.CPCAT", "type": "Root Data Element"}, "self": {"href": "/mdr/sdtmig/3-4/datasets/CP/variables/CPCAT", "title": "Category", "type": "SDTM Dataset Variable"}}, "core": "Perm", "description": "Used to define a category of topic-variable values across subjects. Examples: \"IMMUNOPHENOTYPING\", \"CELL FUNCTION\", \"TARGET ENGAGEMENT\".", "label": "Category", "name": "CPCAT", "ordinal": "23", "role": "Grouping Qualifier", "simpleDatatype": "Char"}, {"_links": {"modelClassVariable": {"href": "/mdr/sdtm/2-0/classes/Findings/variables/--SCAT", "title": "Subcategory", "type": "SDTM Class Variable"}, "parentDataset": {"href": "/mdr/sdtmig/3-4/datasets/CP", "title": "Cell Phenotype Findings", "type": "SDTM Dataset"}, "parentProduct": {"href": "/mdr/sdtmig/3-4", "title": "Study Data Tabulation Model Implementation Guide: Human Clinical Trials", "type": "Implementation Guide"}, "rootItem": {"href": "/mdr/root/sdtmig/datasets/CP/variables/CPSCAT", "title": "Version-agnostic anchor resource for SDTMIG variable CP.CPSCAT", "type": "Root Data Element"}, "self": {"href": "/mdr/sdtmig/3-4/datasets/CP/variables/CPSCAT", "title": "Subcategory", "type": "SDTM Dataset Variable"}}, "core": "Perm", "description": "A further categorization of CPCAT.", "label": "Subcategory", "name": "CPSCAT", "ordinal": "24", "role": "Grouping Qualifier", "simpleDatatype": "Char"}, {"_links": {"modelClassVariable": {"href": "/mdr/sdtm/2-0/classes/Findings/variables/--TSTPNL", "title": "Test Panel", "type": "SDTM Class Variable"}, "parentDataset": {"href": "/mdr/sdtmig/3-4/datasets/CP", "title": "Cell Phenotype Findings", "type": "SDTM Dataset"}, "parentProduct": {"href": "/mdr/sdtmig/3-4", "title": "Study Data Tabulation Model Implementation Guide: Human Clinical Trials", "type": "Implementation Guide"}, "rootItem": {"href": "/mdr/root/sdtmig/datasets/CP/variables/CPTSTPNL", "title": "Version-agnostic anchor resource for SDTMIG variable CP.CPTSTPNL", "type": "Root Data Element"}, "self": {"href": "/mdr/sdtmig/3-4/datasets/CP/variables/CPTSTPNL", "title": "Test Panel", "type": "SDTM Dataset Variable"}}, "core": "Perm", "description": "Sponsor-defined textual description used to group tests run together as part of a test panel. Can be used with --GRPID to ensure that relationships between associated tests are accurately identified.", "label": "Test Panel", "name": "CPTSTPNL", "ordinal": "25", "role": "Grouping Qualifier", "simpleDatatype": "Char"}, {"_links": {"modelClassVariable": {"href": "/mdr/sdtm/2-0/classes/Findings/variables/--ORRES", "title": "Result or Finding in Original Units", "type": "SDTM Class Variable"}, "parentDataset": {"href": "/mdr/sdtmig/3-4/datasets/CP", "title": "Cell Phenotype Findings", "type": "SDTM Dataset"}, "parentProduct": {"href": "/mdr/sdtmig/3-4", "title": "Study Data Tabulation Model Implementation Guide: Human Clinical Trials", "type": "Implementation Guide"}, "rootItem": {"href": "/mdr/root/sdtmig/datasets/CP/variables/CPORRES", "title": "Version-agnostic anchor resource for SDTMIG variable CP.CPORRES", "type": "Root Data Element"}, "self": {"href": "/mdr/sdtmig/3-4/datasets/CP/variables/CPORRES", "title": "Result or Finding in Original Units", "type": "SDTM Dataset Variable"}}, "core": "Exp", "description": "Result of the measurement or finding as originally received or collected.", "label": "Result or Finding in Original Units", "name": "CPORRES", "ordinal": "26", "role": "Result Qualifier", "simpleDatatype": "Char"}, {"_links": {"codelist": [{"href": "/mdr/root/ct/sdtmct/codelists/C71620", "title": "Version-agnostic anchor resource for codelist C71620", "type": "Root Value Domain"}], "modelClassVariable": {"href": "/mdr/sdtm/2-0/classes/Findings/variables/--ORRESU", "title": "Original Units", "type": "SDTM Class Variable"}, "parentDataset": {"href": "/mdr/sdtmig/3-4/datasets/CP", "title": "Cell Phenotype Findings", "type": "SDTM Dataset"}, "parentProduct": {"href": "/mdr/sdtmig/3-4", "title": "Study Data Tabulation Model Implementation Guide: Human Clinical Trials", "type": "Implementation Guide"}, "rootItem": {"href": "/mdr/root/sdtmig/datasets/CP/variables/CPORRESU", "title": "Version-agnostic anchor resource for SDTMIG variable CP.CPORRESU", "type": "Root Data Element"}, "self": {"href": "/mdr/sdtmig/3-4/datasets/CP/variables/CPORRESU", "title": "Original Units", "type": "SDTM Dataset Variable"}}, "core": "Perm", "description": "Original units in which the data were collected. The unit for CPORRES. Examples: \"10^6/L\", \"%\", \"MESF\".", "label": "Original Units", "name": "CPORRESU", "ordinal": "27", "role": "Variable Qualifier", "simpleDatatype": "Char"}, {"_links": {"codelist": [{"href": "/mdr/root/ct/sdtmct/codelists/C177910", "title": "Version-agnostic anchor resource for codelist C177910", "type": "Root Value Domain"}], "modelClassVariable": {"href": "/mdr/sdtm/2-0/classes/Findings/variables/--RESSCL", "title": "Result Scale", "type": "SDTM Class Variable"}, "parentDataset": {"href": "/mdr/sdtmig/3-4/datasets/CP", "title": "Cell Phenotype Findings", "type": "SDTM Dataset"}, "parentProduct": {"href": "/mdr/sdtmig/3-4", "title": "Study Data Tabulation Model Implementation Guide: Human Clinical Trials", "type": "Implementation Guide"}, "rootItem": {"href": "/mdr/root/sdtmig/datasets/CP/variables/CPRESSCL", "title": "Version-agnostic anchor resource for SDTMIG variable CP.CPRESSCL", "type": "Root Data Element"}, "self": {"href": "/mdr/sdtmig/3-4/datasets/CP/variables/CPRESSCL", "title": "Result Scale", "type": "SDTM Dataset Variable"}}, "core": "Perm", "description": "Classifies the scale of the original result value with respect to whether the result is quantitative, ordinal, nominal, or narrative.", "label": "Result Scale", "name": "CPRESSCL", "ordinal": "28", "role": "Record Qualifier", "simpleDatatype": "Char"}, {"_links": {"codelist": [{"href": "/mdr/root/ct/sdtmct/codelists/C179588", "title": "Version-agnostic anchor resource for codelist C179588", "type": "Root Value Domain"}], "modelClassVariable": {"href": "/mdr/sdtm/2-0/classes/Findings/variables/--RESTYP", "title": "Result Type", "type": "SDTM Class Variable"}, "parentDataset": {"href": "/mdr/sdtmig/3-4/datasets/CP", "title": "Cell Phenotype Findings", "type": "SDTM Dataset"}, "parentProduct": {"href": "/mdr/sdtmig/3-4", "title": "Study Data Tabulation Model Implementation Guide: Human Clinical Trials", "type": "Implementation Guide"}, "rootItem": {"href": "/mdr/root/sdtmig/datasets/CP/variables/CPRESTYP", "title": "Version-agnostic anchor resource for SDTMIG variable CP.CPRESTYP", "type": "Root Data Element"}, "self": {"href": "/mdr/sdtmig/3-4/datasets/CP/variables/CPRESTYP", "title": "Result Type", "type": "SDTM Dataset Variable"}}, "core": "Perm", "description": "Classifies the kind of result (i.e., property type) originally reported for the test. Examples: \"NUMBER CONCENTRATION\", \"NUMBER FRACTION\", \"RATIO\".", "label": "Result Type", "name": "CPRESTYP", "ordinal": "29", "role": "Record Qualifier", "simpleDatatype": "Char"}, {"_links": {"codelist": [{"href": "/mdr/root/ct/sdtmct/codelists/C177908", "title": "Version-agnostic anchor resource for codelist C177908", "type": "Root Value Domain"}], "modelClassVariable": {"href": "/mdr/sdtm/2-0/classes/Findings/variables/--COLSRT", "title": "Collected Summary Result Type", "type": "SDTM Class Variable"}, "parentDataset": {"href": "/mdr/sdtmig/3-4/datasets/CP", "title": "Cell Phenotype Findings", "type": "SDTM Dataset"}, "parentProduct": {"href": "/mdr/sdtmig/3-4", "title": "Study Data Tabulation Model Implementation Guide: Human Clinical Trials", "type": "Implementation Guide"}, "rootItem": {"href": "/mdr/root/sdtmig/datasets/CP/variables/CPCOLSRT", "title": "Version-agnostic anchor resource for SDTMIG variable CP.CPCOLSRT", "type": "Root Data Element"}, "self": {"href": "/mdr/sdtmig/3-4/datasets/CP/variables/CPCOLSRT", "title": "Collected Summary Result Type", "type": "SDTM Dataset Variable"}}, "core": "Perm", "description": "Used to indicate the type of collected summary result. This includes source summary results collected on a CRF or provided by an external vendor (e.g., central lab). If the summary result is derived using individual source data records, this summary result should be represented in ADaM. If a sponsor has both a collected summary result and a derived summary result, the collected summary result should be represented in SDTM and the derived summary result should be represented in ADaM.", "label": "Collected Summary Result Type", "name": "CPCOLSRT", "ordinal": "30", "role": "Record Qualifier", "simpleDatatype": "Char"}, {"_links": {"modelClassVariable": {"href": "/mdr/sdtm/2-0/classes/Findings/variables/--ORNRLO", "title": "Normal Range Lower Limit-Original Units", "type": "SDTM Class Variable"}, "parentDataset": {"href": "/mdr/sdtmig/3-4/datasets/CP", "title": "Cell Phenotype Findings", "type": "SDTM Dataset"}, "parentProduct": {"href": "/mdr/sdtmig/3-4", "title": "Study Data Tabulation Model Implementation Guide: Human Clinical Trials", "type": "Implementation Guide"}, "rootItem": {"href": "/mdr/root/sdtmig/datasets/CP/variables/CPORNRLO", "title": "Version-agnostic anchor resource for SDTMIG variable CP.CPORNRLO", "type": "Root Data Element"}, "self": {"href": "/mdr/sdtmig/3-4/datasets/CP/variables/CPORNRLO", "title": "Reference Range Lower Limit in Orig Unit", "type": "SDTM Dataset Variable"}}, "core": "Perm", "description": "Lower end of reference range for continuous measurement in original units. Should be populated only for continuous results.", "label": "Reference Range Lower Limit in Orig Unit", "name": "CPORNRLO", "ordinal": "31", "role": "Variable Qualifier", "simpleDatatype": "Char"}, {"_links": {"modelClassVariable": {"href": "/mdr/sdtm/2-0/classes/Findings/variables/--ORNRHI", "title": "Normal Range Upper Limit-Original Units", "type": "SDTM Class Variable"}, "parentDataset": {"href": "/mdr/sdtmig/3-4/datasets/CP", "title": "Cell Phenotype Findings", "type": "SDTM Dataset"}, "parentProduct": {"href": "/mdr/sdtmig/3-4", "title": "Study Data Tabulation Model Implementation Guide: Human Clinical Trials", "type": "Implementation Guide"}, "rootItem": {"href": "/mdr/root/sdtmig/datasets/CP/variables/CPORNRHI", "title": "Version-agnostic anchor resource for SDTMIG variable CP.CPORNRHI", "type": "Root Data Element"}, "self": {"href": "/mdr/sdtmig/3-4/datasets/CP/variables/CPORNRHI", "title": "Reference Range Upper Limit in Orig Unit", "type": "SDTM Dataset Variable"}}, "core": "Perm", "description": "Upper end of reference range for continuous measurement in original units. Should be populated only for continuous results.", "label": "Reference Range Upper Limit in Orig Unit", "name": "CPORNRHI", "ordinal": "32", "role": "Variable Qualifier", "simpleDatatype": "Char"}, {"_links": {"modelClassVariable": {"href": "/mdr/sdtm/2-0/classes/Findings/variables/--STRESC", "title": "Result or Finding in Standard Format", "type": "SDTM Class Variable"}, "parentDataset": {"href": "/mdr/sdtmig/3-4/datasets/CP", "title": "Cell Phenotype Findings", "type": "SDTM Dataset"}, "parentProduct": {"href": "/mdr/sdtmig/3-4", "title": "Study Data Tabulation Model Implementation Guide: Human Clinical Trials", "type": "Implementation Guide"}, "rootItem": {"href": "/mdr/root/sdtmig/datasets/CP/variables/CPSTRESC", "title": "Version-agnostic anchor resource for SDTMIG variable CP.CPSTRESC", "type": "Root Data Element"}, "self": {"href": "/mdr/sdtmig/3-4/datasets/CP/variables/CPSTRESC", "title": "Result or Finding in Standard Format", "type": "SDTM Dataset Variable"}}, "core": "Exp", "description": "Contains the result value for all findings, copied or derived from CPORRES in a standard format or in standard units. CPSTRESC should store all results or findings in character format; if results are numeric, they should also be stored in numeric format in CPSTRESN.", "label": "Result or Finding in Standard Format", "name": "CPSTRESC", "ordinal": "33", "role": "Result Qualifier", "simpleDatatype": "Char"}, {"_links": {"modelClassVariable": {"href": "/mdr/sdtm/2-0/classes/Findings/variables/--STRESN", "title": "Numeric Result/Finding in Standard Units", "type": "SDTM Class Variable"}, "parentDataset": {"href": "/mdr/sdtmig/3-4/datasets/CP", "title": "Cell Phenotype Findings", "type": "SDTM Dataset"}, "parentProduct": {"href": "/mdr/sdtmig/3-4", "title": "Study Data Tabulation Model Implementation Guide: Human Clinical Trials", "type": "Implementation Guide"}, "rootItem": {"href": "/mdr/root/sdtmig/datasets/CP/variables/CPSTRESN", "title": "Version-agnostic anchor resource for SDTMIG variable CP.CPSTRESN", "type": "Root Data Element"}, "self": {"href": "/mdr/sdtmig/3-4/datasets/CP/variables/CPSTRESN", "title": "Numeric Result/Finding in Standard Units", "type": "SDTM Dataset Variable"}}, "core": "Perm", "description": "Used for continuous or numeric results or findings in standard format; copied in numeric format from CPSTRESC. CPSTRESN should store all numeric test results or findings.", "label": "Numeric Result/Finding in Standard Units", "name": "CPSTRESN", "ordinal": "34", "role": "Result Qualifier", "simpleDatatype": "Num"}, {"_links": {"codelist": [{"href": "/mdr/root/ct/sdtmct/codelists/C71620", "title": "Version-agnostic anchor resource for codelist C71620", "type": "Root Value Domain"}], "modelClassVariable": {"href": "/mdr/sdtm/2-0/classes/Findings/variables/--STRESU", "title": "Standard Units", "type": "SDTM Class Variable"}, "parentDataset": {"href": "/mdr/sdtmig/3-4/datasets/CP", "title": "Cell Phenotype Findings", "type": "SDTM Dataset"}, "parentProduct": {"href": "/mdr/sdtmig/3-4", "title": "Study Data Tabulation Model Implementation Guide: Human Clinical Trials", "type": "Implementation Guide"}, "rootItem": {"href": "/mdr/root/sdtmig/datasets/CP/variables/CPSTRESU", "title": "Version-agnostic anchor resource for SDTMIG variable CP.CPSTRESU", "type": "Root Data Element"}, "self": {"href": "/mdr/sdtmig/3-4/datasets/CP/variables/CPSTRESU", "title": "Standard Units", "type": "SDTM Dataset Variable"}}, "core": "Perm", "description": "Standardized unit used for CPSTRESC or CPSTRESN.", "label": "Standard Units", "name": "CPSTRESU", "ordinal": "35", "role": "Variable Qualifier", "simpleDatatype": "Char"}, {"_links": {"modelClassVariable": {"href": "/mdr/sdtm/2-0/classes/Findings/variables/--STNRLO", "title": "Normal Range Lower Limit-Standard Units", "type": "SDTM Class Variable"}, "parentDataset": {"href": "/mdr/sdtmig/3-4/datasets/CP", "title": "Cell Phenotype Findings", "type": "SDTM Dataset"}, "parentProduct": {"href": "/mdr/sdtmig/3-4", "title": "Study Data Tabulation Model Implementation Guide: Human Clinical Trials", "type": "Implementation Guide"}, "rootItem": {"href": "/mdr/root/sdtmig/datasets/CP/variables/CPSTNRLO", "title": "Version-agnostic anchor resource for SDTMIG variable CP.CPSTNRLO", "type": "Root Data Element"}, "self": {"href": "/mdr/sdtmig/3-4/datasets/CP/variables/CPSTNRLO", "title": "Reference Range Lower Limit-Std Units", "type": "SDTM Dataset Variable"}}, "core": "Perm", "description": "Lower end of reference range for continuous measurements for CPSTRESC/CPSTRESN in standardized units. Should be populated only for continuous results.", "label": "Reference Range Lower Limit-Std Units", "name": "CPSTNRLO", "ordinal": "36", "role": "Variable Qualifier", "simpleDatatype": "Num"}, {"_links": {"modelClassVariable": {"href": "/mdr/sdtm/2-0/classes/Findings/variables/--STNRHI", "title": "Normal Range Upper Limit-Standard Units", "type": "SDTM Class Variable"}, "parentDataset": {"href": "/mdr/sdtmig/3-4/datasets/CP", "title": "Cell Phenotype Findings", "type": "SDTM Dataset"}, "parentProduct": {"href": "/mdr/sdtmig/3-4", "title": "Study Data Tabulation Model Implementation Guide: Human Clinical Trials", "type": "Implementation Guide"}, "rootItem": {"href": "/mdr/root/sdtmig/datasets/CP/variables/CPSTNRHI", "title": "Version-agnostic anchor resource for SDTMIG variable CP.CPSTNRHI", "type": "Root Data Element"}, "self": {"href": "/mdr/sdtmig/3-4/datasets/CP/variables/CPSTNRHI", "title": "Reference Range Upper Limit-Std Units", "type": "SDTM Dataset Variable"}}, "core": "Perm", "description": "Upper end of reference range for continuous measurements in standardized units. Should be populated only for continuous results.", "label": "Reference Range Upper Limit-Std Units", "name": "CPSTNRHI", "ordinal": "37", "role": "Variable Qualifier", "simpleDatatype": "Num"}, {"_links": {"codelist": [{"href": "/mdr/root/ct/sdtmct/codelists/C78736", "title": "Version-agnostic anchor resource for codelist C78736", "type": "Root Value Domain"}], "modelClassVariable": {"href": "/mdr/sdtm/2-0/classes/Findings/variables/--NRIND", "title": "Normal/Reference Range Indicator", "type": "SDTM Class Variable"}, "parentDataset": {"href": "/mdr/sdtmig/3-4/datasets/CP", "title": "Cell Phenotype Findings", "type": "SDTM Dataset"}, "parentProduct": {"href": "/mdr/sdtmig/3-4", "title": "Study Data Tabulation Model Implementation Guide: Human Clinical Trials", "type": "Implementation Guide"}, "rootItem": {"href": "/mdr/root/sdtmig/datasets/CP/variables/CPNRIND", "title": "Version-agnostic anchor resource for SDTMIG variable CP.CPNRIND", "type": "Root Data Element"}, "self": {"href": "/mdr/sdtmig/3-4/datasets/CP/variables/CPNRIND", "title": "Reference Range Indicator", "type": "SDTM Dataset Variable"}}, "core": "Perm", "description": "Indicates where the value falls with respect to reference range defined by CPORNRLO and CPORNRHI, CPSTNRLO and CPSTNRHI, or by CPSTNRC. Examples: \"NORMAL\", \"ABNORMAL\", \"HIGH\", \"LOW\". Sponsors should specify in the study metadata (Comments column in the Define-XML document) whether CPNRIND refers to the original or standard reference ranges and results. CPNRIND should not be used to indicate clinical significance.", "label": "Reference Range Indicator", "name": "CPNRIND", "ordinal": "38", "role": "Variable Qualifier", "simpleDatatype": "Char"}, {"_links": {"codelist": [{"href": "/mdr/root/ct/sdtmct/codelists/C66789", "title": "Version-agnostic anchor resource for codelist C66789", "type": "Root Value Domain"}], "modelClassVariable": {"href": "/mdr/sdtm/2-0/classes/Findings/variables/--STAT", "title": "Completion Status", "type": "SDTM Class Variable"}, "parentDataset": {"href": "/mdr/sdtmig/3-4/datasets/CP", "title": "Cell Phenotype Findings", "type": "SDTM Dataset"}, "parentProduct": {"href": "/mdr/sdtmig/3-4", "title": "Study Data Tabulation Model Implementation Guide: Human Clinical Trials", "type": "Implementation Guide"}, "rootItem": {"href": "/mdr/root/sdtmig/datasets/CP/variables/CPSTAT", "title": "Version-agnostic anchor resource for SDTMIG variable CP.CPSTAT", "type": "Root Data Element"}, "self": {"href": "/mdr/sdtmig/3-4/datasets/CP/variables/CPSTAT", "title": "Completion Status", "type": "SDTM Dataset Variable"}}, "core": "Perm", "description": "Used to indicate that the test was not performed or that it was attempted but did not generate a result. Should be null if a result exists in CPORRES.", "label": "Completion Status", "name": "CPSTAT", "ordinal": "39", "role": "Record Qualifier", "simpleDatatype": "Char"}, {"_links": {"modelClassVariable": {"href": "/mdr/sdtm/2-0/classes/Findings/variables/--REASND", "title": "Reason Not Done", "type": "SDTM Class Variable"}, "parentDataset": {"href": "/mdr/sdtmig/3-4/datasets/CP", "title": "Cell Phenotype Findings", "type": "SDTM Dataset"}, "parentProduct": {"href": "/mdr/sdtmig/3-4", "title": "Study Data Tabulation Model Implementation Guide: Human Clinical Trials", "type": "Implementation Guide"}, "rootItem": {"href": "/mdr/root/sdtmig/datasets/CP/variables/CPREASND", "title": "Version-agnostic anchor resource for SDTMIG variable CP.CPREASND", "type": "Root Data Element"}, "self": {"href": "/mdr/sdtmig/3-4/datasets/CP/variables/CPREASND", "title": "Reason Not Done", "type": "SDTM Dataset Variable"}}, "core": "Perm", "description": "Describes why a test was not performed, e.g., \"BROKEN EQUIPMENT\", \"SUBJECT REFUSED\", \"SPECIMEN LOST\". Used in conjunction with CPSTAT when value is \"NOT DONE\".", "label": "Reason Not Done", "name": "CPREASND", "ordinal": "40", "role": "Record Qualifier", "simpleDatatype": "Char"}, {"_links": {"modelClassVariable": {"href": "/mdr/sdtm/2-0/classes/Findings/variables/--NAM", "title": "Laboratory/Vendor Name", "type": "SDTM Class Variable"}, "parentDataset": {"href": "/mdr/sdtmig/3-4/datasets/CP", "title": "Cell Phenotype Findings", "type": "SDTM Dataset"}, "parentProduct": {"href": "/mdr/sdtmig/3-4", "title": "Study Data Tabulation Model Implementation Guide: Human Clinical Trials", "type": "Implementation Guide"}, "rootItem": {"href": "/mdr/root/sdtmig/datasets/CP/variables/CPNAM", "title": "Version-agnostic anchor resource for SDTMIG variable CP.CPNAM", "type": "Root Data Element"}, "self": {"href": "/mdr/sdtmig/3-4/datasets/CP/variables/CPNAM", "title": "Vendor Name", "type": "SDTM Dataset Variable"}}, "core": "Perm", "description": "The name or identifier of the laboratory that performed the test.", "label": "Vendor Name", "name": "CPNAM", "ordinal": "41", "role": "Record Qualifier", "simpleDatatype": "Char"}, {"_links": {"modelClassVariable": {"href": "/mdr/sdtm/2-0/classes/Findings/variables/--LOINC", "title": "LOINC Code", "type": "SDTM Class Variable"}, "parentDataset": {"href": "/mdr/sdtmig/3-4/datasets/CP", "title": "Cell Phenotype Findings", "type": "SDTM Dataset"}, "parentProduct": {"href": "/mdr/sdtmig/3-4", "title": "Study Data Tabulation Model Implementation Guide: Human Clinical Trials", "type": "Implementation Guide"}, "rootItem": {"href": "/mdr/root/sdtmig/datasets/CP/variables/CPLOINC", "title": "Version-agnostic anchor resource for SDTMIG variable CP.CPLOINC", "type": "Root Data Element"}, "self": {"href": "/mdr/sdtmig/3-4/datasets/CP/variables/CPLOINC", "title": "LOINC Code", "type": "SDTM Dataset Variable"}}, "core": "Perm", "describedValueDomain": "LOINC", "description": "Code for the test from the LOINC code system. The sponsor is expected to provide the dictionary name and version used to map the terms utilizing the Define-XML external codelist attributes.", "label": "LOINC Code", "name": "CPLOINC", "ordinal": "42", "role": "Synonym Qualifier", "simpleDatatype": "Char"}, {"_links": {"codelist": [{"href": "/mdr/root/ct/sdtmct/codelists/C78734", "title": "Version-agnostic anchor resource for codelist C78734", "type": "Root Value Domain"}], "modelClassVariable": {"href": "/mdr/sdtm/2-0/classes/Findings/variables/--SPEC", "title": "Specimen Material Type", "type": "SDTM Class Variable"}, "parentDataset": {"href": "/mdr/sdtmig/3-4/datasets/CP", "title": "Cell Phenotype Findings", "type": "SDTM Dataset"}, "parentProduct": {"href": "/mdr/sdtmig/3-4", "title": "Study Data Tabulation Model Implementation Guide: Human Clinical Trials", "type": "Implementation Guide"}, "rootItem": {"href": "/mdr/root/sdtmig/datasets/CP/variables/CPSPEC", "title": "Version-agnostic anchor resource for SDTMIG variable CP.CPSPEC", "type": "Root Data Element"}, "self": {"href": "/mdr/sdtmig/3-4/datasets/CP/variables/CPSPEC", "title": "Specimen Type", "type": "SDTM Dataset Variable"}}, "core": "Perm", "description": "Defines the type of specimen used for a measurement. Examples: \"BLOOD\", \"BONE MARROW\".", "label": "Specimen Type", "name": "CPSPEC", "ordinal": "43", "role": "Record Qualifier", "simpleDatatype": "Char"}, {"_links": {"codelist": [{"href": "/mdr/root/ct/sdtmct/codelists/C78733", "title": "Version-agnostic anchor resource for codelist C78733", "type": "Root Value Domain"}], "modelClassVariable": {"href": "/mdr/sdtm/2-0/classes/Findings/variables/--SPCCND", "title": "Specimen Condition", "type": "SDTM Class Variable"}, "parentDataset": {"href": "/mdr/sdtmig/3-4/datasets/CP", "title": "Cell Phenotype Findings", "type": "SDTM Dataset"}, "parentProduct": {"href": "/mdr/sdtmig/3-4", "title": "Study Data Tabulation Model Implementation Guide: Human Clinical Trials", "type": "Implementation Guide"}, "rootItem": {"href": "/mdr/root/sdtmig/datasets/CP/variables/CPSPCCND", "title": "Version-agnostic anchor resource for SDTMIG variable CP.CPSPCCND", "type": "Root Data Element"}, "self": {"href": "/mdr/sdtmig/3-4/datasets/CP/variables/CPSPCCND", "title": "Specimen Condition", "type": "SDTM Dataset Variable"}}, "core": "Perm", "description": "The physical state or quality of a specimen for an assessment. Example: \"CLOTTED\".", "label": "Specimen Condition", "name": "CPSPCCND", "ordinal": "44", "role": "Record Qualifier", "simpleDatatype": "Char"}, {"_links": {"codelist": [{"href": "/mdr/root/ct/sdtmct/codelists/C85492", "title": "Version-agnostic anchor resource for codelist C85492", "type": "Root Value Domain"}], "modelClassVariable": {"href": "/mdr/sdtm/2-0/classes/Findings/variables/--METHOD", "title": "Method of Test or Examination", "type": "SDTM Class Variable"}, "parentDataset": {"href": "/mdr/sdtmig/3-4/datasets/CP", "title": "Cell Phenotype Findings", "type": "SDTM Dataset"}, "parentProduct": {"href": "/mdr/sdtmig/3-4", "title": "Study Data Tabulation Model Implementation Guide: Human Clinical Trials", "type": "Implementation Guide"}, "rootItem": {"href": "/mdr/root/sdtmig/datasets/CP/variables/CPMETHOD", "title": "Version-agnostic anchor resource for SDTMIG variable CP.CPMETHOD", "type": "Root Data Element"}, "self": {"href": "/mdr/sdtmig/3-4/datasets/CP/variables/CPMETHOD", "title": "Method of Test or Examination", "type": "SDTM Dataset Variable"}}, "core": "Perm", "description": "Method of the test or examination. Example: \"FLOW CYTOMETRY\".", "label": "Method of Test or Examination", "name": "CPMETHOD", "ordinal": "45", "role": "Record Qualifier", "simpleDatatype": "Char"}, {"_links": {"modelClassVariable": {"href": "/mdr/sdtm/2-0/classes/Findings/variables/--ANMETH", "title": "Analysis Method", "type": "SDTM Class Variable"}, "parentDataset": {"href": "/mdr/sdtmig/3-4/datasets/CP", "title": "Cell Phenotype Findings", "type": "SDTM Dataset"}, "parentProduct": {"href": "/mdr/sdtmig/3-4", "title": "Study Data Tabulation Model Implementation Guide: Human Clinical Trials", "type": "Implementation Guide"}, "rootItem": {"href": "/mdr/root/sdtmig/datasets/CP/variables/CPANMETH", "title": "Version-agnostic anchor resource for SDTMIG variable CP.CPANMETH", "type": "Root Data Element"}, "self": {"href": "/mdr/sdtmig/3-4/datasets/CP/variables/CPANMETH", "title": "Analysis Method", "type": "SDTM Dataset Variable"}}, "core": "Perm", "description": "Analysis method applied to obtain a summarized result. Analysis method describes the method of secondary processing applied to a complex observation result.", "label": "Analysis Method", "name": "CPANMETH", "ordinal": "46", "role": "Record Qualifier", "simpleDatatype": "Char"}, {"_links": {"codelist": [{"href": "/mdr/root/ct/sdtmct/codelists/C66742", "title": "Version-agnostic anchor resource for codelist C66742", "type": "Root Value Domain"}], "modelClassVariable": {"href": "/mdr/sdtm/2-0/classes/Findings/variables/--LOBXFL", "title": "Last Observation Before Exposure Flag", "type": "SDTM Class Variable"}, "parentDataset": {"href": "/mdr/sdtmig/3-4/datasets/CP", "title": "Cell Phenotype Findings", "type": "SDTM Dataset"}, "parentProduct": {"href": "/mdr/sdtmig/3-4", "title": "Study Data Tabulation Model Implementation Guide: Human Clinical Trials", "type": "Implementation Guide"}, "rootItem": {"href": "/mdr/root/sdtmig/datasets/CP/variables/CPLOBXFL", "title": "Version-agnostic anchor resource for SDTMIG variable CP.CPLOBXFL", "type": "Root Data Element"}, "self": {"href": "/mdr/sdtmig/3-4/datasets/CP/variables/CPLOBXFL", "title": "Last Observation Before Exposure Flag", "type": "SDTM Dataset Variable"}}, "core": "Perm", "description": "Operationally-derived indicator used to identify the last non-missing value prior to RFXSTDTC. The value should be \"Y\" or null.", "label": "Last Observation Before Exposure Flag", "name": "CPLOBXFL", "ordinal": "47", "role": "Record Qualifier", "simpleDatatype": "Char"}, {"_links": {"codelist": [{"href": "/mdr/root/ct/sdtmct/codelists/C66742", "title": "Version-agnostic anchor resource for codelist C66742", "type": "Root Value Domain"}], "modelClassVariable": {"href": "/mdr/sdtm/2-0/classes/Findings/variables/--BLFL", "title": "Baseline Flag", "type": "SDTM Class Variable"}, "parentDataset": {"href": "/mdr/sdtmig/3-4/datasets/CP", "title": "Cell Phenotype Findings", "type": "SDTM Dataset"}, "parentProduct": {"href": "/mdr/sdtmig/3-4", "title": "Study Data Tabulation Model Implementation Guide: Human Clinical Trials", "type": "Implementation Guide"}, "rootItem": {"href": "/mdr/root/sdtmig/datasets/CP/variables/CPBLFL", "title": "Version-agnostic anchor resource for SDTMIG variable CP.CPBLFL", "type": "Root Data Element"}, "self": {"href": "/mdr/sdtmig/3-4/datasets/CP/variables/CPBLFL", "title": "Baseline Flag", "type": "SDTM Dataset Variable"}}, "core": "Perm", "description": "Indicator used to identify a baseline value. The value should be \"Y\" or null.", "label": "Baseline Flag", "name": "CPBLFL", "ordinal": "48", "role": "Record Qualifier", "simpleDatatype": "Char"}, {"_links": {"codelist": [{"href": "/mdr/root/ct/sdtmct/codelists/C66742", "title": "Version-agnostic anchor resource for codelist C66742", "type": "Root Value Domain"}], "modelClassVariable": {"href": "/mdr/sdtm/2-0/classes/Findings/variables/--DRVFL", "title": "Derived Flag", "type": "SDTM Class Variable"}, "parentDataset": {"href": "/mdr/sdtmig/3-4/datasets/CP", "title": "Cell Phenotype Findings", "type": "SDTM Dataset"}, "parentProduct": {"href": "/mdr/sdtmig/3-4", "title": "Study Data Tabulation Model Implementation Guide: Human Clinical Trials", "type": "Implementation Guide"}, "rootItem": {"href": "/mdr/root/sdtmig/datasets/CP/variables/CPDRVFL", "title": "Version-agnostic anchor resource for SDTMIG variable CP.CPDRVFL", "type": "Root Data Element"}, "self": {"href": "/mdr/sdtmig/3-4/datasets/CP/variables/CPDRVFL", "title": "Derived Flag", "type": "SDTM Dataset Variable"}}, "core": "Perm", "description": "Used to indicate a derived record. The value should be \"Y\" or null. Records that represent the average of other records, or do not come from the CRF, or are not as originally received or collected are examples of records that might be derived for the submission datasets. If CPDRVFL = \"Y\", then CPORRES may be null, with CPSTRESC and (if numeric) CPSTRESN having the derived value.", "label": "Derived Flag", "name": "CPDRVFL", "ordinal": "49", "role": "Record Qualifier", "simpleDatatype": "Char"}, {"_links": {"codelist": [{"href": "/mdr/root/ct/sdtmct/codelists/C66742", "title": "Version-agnostic anchor resource for codelist C66742", "type": "Root Value Domain"}], "modelClassVariable": {"href": "/mdr/sdtm/2-0/classes/Findings/variables/--CLSIG", "title": "Clinically Significant, Collected", "type": "SDTM Class Variable"}, "parentDataset": {"href": "/mdr/sdtmig/3-4/datasets/CP", "title": "Cell Phenotype Findings", "type": "SDTM Dataset"}, "parentProduct": {"href": "/mdr/sdtmig/3-4", "title": "Study Data Tabulation Model Implementation Guide: Human Clinical Trials", "type": "Implementation Guide"}, "rootItem": {"href": "/mdr/root/sdtmig/datasets/CP/variables/CPCLSIG", "title": "Version-agnostic anchor resource for SDTMIG variable CP.CPCLSIG", "type": "Root Data Element"}, "self": {"href": "/mdr/sdtmig/3-4/datasets/CP/variables/CPCLSIG", "title": "Clinically Significant, Collected", "type": "SDTM Dataset Variable"}}, "core": "Perm", "description": "Used to indicate whether a collected observation is clinically significant based on judgement.", "label": "Clinically Significant, Collected", "name": "CPCLSIG", "ordinal": "50", "role": "Record Qualifier", "simpleDatatype": "Char"}, {"_links": {"modelClassVariable": {"href": "/mdr/sdtm/2-0/classes/GeneralObservations/variables/VISITNUM", "title": "Visit Number", "type": "SDTM Class Variable"}, "parentDataset": {"href": "/mdr/sdtmig/3-4/datasets/CP", "title": "Cell Phenotype Findings", "type": "SDTM Dataset"}, "parentProduct": {"href": "/mdr/sdtmig/3-4", "title": "Study Data Tabulation Model Implementation Guide: Human Clinical Trials", "type": "Implementation Guide"}, "rootItem": {"href": "/mdr/root/sdtmig/datasets/CP/variables/VISITNUM", "title": "Version-agnostic anchor resource for SDTMIG variable CP.VISITNUM", "type": "Root Data Element"}, "self": {"href": "/mdr/sdtmig/3-4/datasets/CP/variables/VISITNUM", "title": "Visit Number", "type": "SDTM Dataset Variable"}}, "core": "Perm", "description": "Clinical encounter number. Numeric version of VISIT, used for sorting.", "label": "Visit Number", "name": "VISITNUM", "ordinal": "51", "role": "Timing", "simpleDatatype": "Num"}, {"_links": {"modelClassVariable": {"href": "/mdr/sdtm/2-0/classes/GeneralObservations/variables/VISIT", "title": "Visit Name", "type": "SDTM Class Variable"}, "parentDataset": {"href": "/mdr/sdtmig/3-4/datasets/CP", "title": "Cell Phenotype Findings", "type": "SDTM Dataset"}, "parentProduct": {"href": "/mdr/sdtmig/3-4", "title": "Study Data Tabulation Model Implementation Guide: Human Clinical Trials", "type": "Implementation Guide"}, "rootItem": {"href": "/mdr/root/sdtmig/datasets/CP/variables/VISIT", "title": "Version-agnostic anchor resource for SDTMIG variable CP.VISIT", "type": "Root Data Element"}, "self": {"href": "/mdr/sdtmig/3-4/datasets/CP/variables/VISIT", "title": "Visit Name", "type": "SDTM Dataset Variable"}}, "core": "Perm", "description": "Protocol-defined description of clinical encounter. May be used in addition to VISITNUM and/or VISITDY.", "label": "Visit Name", "name": "VISIT", "ordinal": "52", "role": "Timing", "simpleDatatype": "Char"}, {"_links": {"modelClassVariable": {"href": "/mdr/sdtm/2-0/classes/GeneralObservations/variables/VISITDY", "title": "Planned Study Day of Visit", "type": "SDTM Class Variable"}, "parentDataset": {"href": "/mdr/sdtmig/3-4/datasets/CP", "title": "Cell Phenotype Findings", "type": "SDTM Dataset"}, "parentProduct": {"href": "/mdr/sdtmig/3-4", "title": "Study Data Tabulation Model Implementation Guide: Human Clinical Trials", "type": "Implementation Guide"}, "rootItem": {"href": "/mdr/root/sdtmig/datasets/CP/variables/VISITDY", "title": "Version-agnostic anchor resource for SDTMIG variable CP.VISITDY", "type": "Root Data Element"}, "self": {"href": "/mdr/sdtmig/3-4/datasets/CP/variables/VISITDY", "title": "Planned Study Day of Visit", "type": "SDTM Dataset Variable"}}, "core": "Perm", "description": "Planned study day of the visit based upon RFSTDTC in Demographics. Should be an integer.", "label": "Planned Study Day of Visit", "name": "VISITDY", "ordinal": "53", "role": "Timing", "simpleDatatype": "Num"}, {"_links": {"modelClassVariable": {"href": "/mdr/sdtm/2-0/classes/GeneralObservations/variables/TAETORD", "title": "Planned Order of Element Within Arm", "type": "SDTM Class Variable"}, "parentDataset": {"href": "/mdr/sdtmig/3-4/datasets/CP", "title": "Cell Phenotype Findings", "type": "SDTM Dataset"}, "parentProduct": {"href": "/mdr/sdtmig/3-4", "title": "Study Data Tabulation Model Implementation Guide: Human Clinical Trials", "type": "Implementation Guide"}, "rootItem": {"href": "/mdr/root/sdtmig/datasets/CP/variables/TAETORD", "title": "Version-agnostic anchor resource for SDTMIG variable CP.TAETORD", "type": "Root Data Element"}, "self": {"href": "/mdr/sdtmig/3-4/datasets/CP/variables/TAETORD", "title": "Planned Order of Element within Arm", "type": "SDTM Dataset Variable"}}, "core": "Perm", "description": "Number that gives the planned order of the element within the arm.", "label": "Planned Order of Element within Arm", "name": "TAETORD", "ordinal": "54", "role": "Timing", "simpleDatatype": "Num"}, {"_links": {"codelist": [{"href": "/mdr/root/ct/sdtmct/codelists/C99079", "title": "Version-agnostic anchor resource for codelist C99079", "type": "Root Value Domain"}], "modelClassVariable": {"href": "/mdr/sdtm/2-0/classes/GeneralObservations/variables/EPOCH", "title": "Epoch", "type": "SDTM Class Variable"}, "parentDataset": {"href": "/mdr/sdtmig/3-4/datasets/CP", "title": "Cell Phenotype Findings", "type": "SDTM Dataset"}, "parentProduct": {"href": "/mdr/sdtmig/3-4", "title": "Study Data Tabulation Model Implementation Guide: Human Clinical Trials", "type": "Implementation Guide"}, "rootItem": {"href": "/mdr/root/sdtmig/datasets/CP/variables/EPOCH", "title": "Version-agnostic anchor resource for SDTMIG variable CP.EPOCH", "type": "Root Data Element"}, "self": {"href": "/mdr/sdtmig/3-4/datasets/CP/variables/EPOCH", "title": "Epoch", "type": "SDTM Dataset Variable"}}, "core": "Perm", "description": "Epoch associated with the start date/time of the observation, or the date/time of collection if start date/time is not collected.", "label": "Epoch", "name": "EPOCH", "ordinal": "55", "role": "Timing", "simpleDatatype": "Char"}, {"_links": {"modelClassVariable": {"href": "/mdr/sdtm/2-0/classes/GeneralObservations/variables/--DTC", "title": "Date/Time of Collection", "type": "SDTM Class Variable"}, "parentDataset": {"href": "/mdr/sdtmig/3-4/datasets/CP", "title": "Cell Phenotype Findings", "type": "SDTM Dataset"}, "parentProduct": {"href": "/mdr/sdtmig/3-4", "title": "Study Data Tabulation Model Implementation Guide: Human Clinical Trials", "type": "Implementation Guide"}, "rootItem": {"href": "/mdr/root/sdtmig/datasets/CP/variables/CPDTC", "title": "Version-agnostic anchor resource for SDTMIG variable CP.CPDTC", "type": "Root Data Element"}, "self": {"href": "/mdr/sdtmig/3-4/datasets/CP/variables/CPDTC", "title": "Date/Time of Collection", "type": "SDTM Dataset Variable"}}, "core": "Exp", "describedValueDomain": "ISO 8601 datetime or interval", "description": "Date/time of specimen collection represented in ISO 8601 character format.", "label": "Date/Time of Collection", "name": "CPDTC", "ordinal": "56", "role": "Timing", "simpleDatatype": "Char"}, {"_links": {"modelClassVariable": {"href": "/mdr/sdtm/2-0/classes/GeneralObservations/variables/--DY", "title": "Study Day of Visit/Collection/Exam", "type": "SDTM Class Variable"}, "parentDataset": {"href": "/mdr/sdtmig/3-4/datasets/CP", "title": "Cell Phenotype Findings", "type": "SDTM Dataset"}, "parentProduct": {"href": "/mdr/sdtmig/3-4", "title": "Study Data Tabulation Model Implementation Guide: Human Clinical Trials", "type": "Implementation Guide"}, "rootItem": {"href": "/mdr/root/sdtmig/datasets/CP/variables/CPDY", "title": "Version-agnostic anchor resource for SDTMIG variable CP.CPDY", "type": "Root Data Element"}, "self": {"href": "/mdr/sdtmig/3-4/datasets/CP/variables/CPDY", "title": "Study Day of Visit/Collection/Exam", "type": "SDTM Dataset Variable"}}, "core": "Perm", "description": "Study day of specimen collection, measured in integer days. Algorithm for calculations must be relative to the sponsor-defined RFSTDTC value in Demographics.", "label": "Study Day of Visit/Collection/Exam", "name": "CPDY", "ordinal": "57", "role": "Timing", "simpleDatatype": "Num"}, {"_links": {"modelClassVariable": {"href": "/mdr/sdtm/2-0/classes/GeneralObservations/variables/--TPT", "title": "Planned Time Point Name", "type": "SDTM Class Variable"}, "parentDataset": {"href": "/mdr/sdtmig/3-4/datasets/CP", "title": "Cell Phenotype Findings", "type": "SDTM Dataset"}, "parentProduct": {"href": "/mdr/sdtmig/3-4", "title": "Study Data Tabulation Model Implementation Guide: Human Clinical Trials", "type": "Implementation Guide"}, "rootItem": {"href": "/mdr/root/sdtmig/datasets/CP/variables/CPTPT", "title": "Version-agnostic anchor resource for SDTMIG variable CP.CPTPT", "type": "Root Data Element"}, "self": {"href": "/mdr/sdtmig/3-4/datasets/CP/variables/CPTPT", "title": "Planned Time Point Name", "type": "SDTM Dataset Variable"}}, "core": "Perm", "description": "Text description of time when a specimen is to be taken, as defined in the protocol. This may be represented as an elapsed time relative to a fixed reference point (i.e., to the value in CPTPTREF). Example: \"1 hour post\".", "label": "Planned Time Point Name", "name": "CPTPT", "ordinal": "58", "role": "Timing", "simpleDatatype": "Char"}, {"_links": {"modelClassVariable": {"href": "/mdr/sdtm/2-0/classes/GeneralObservations/variables/--TPTNUM", "title": "Planned Time Point Number", "type": "SDTM Class Variable"}, "parentDataset": {"href": "/mdr/sdtmig/3-4/datasets/CP", "title": "Cell Phenotype Findings", "type": "SDTM Dataset"}, "parentProduct": {"href": "/mdr/sdtmig/3-4", "title": "Study Data Tabulation Model Implementation Guide: Human Clinical Trials", "type": "Implementation Guide"}, "rootItem": {"href": "/mdr/root/sdtmig/datasets/CP/variables/CPTPTNUM", "title": "Version-agnostic anchor resource for SDTMIG variable CP.CPTPTNUM", "type": "Root Data Element"}, "self": {"href": "/mdr/sdtmig/3-4/datasets/CP/variables/CPTPTNUM", "title": "Planned Time Point Number", "type": "SDTM Dataset Variable"}}, "core": "Perm", "description": "Numerical version of CPTPT to aid in sorting. When CPTPT is represented as an elapsed time relative to a fixed reference point (i.e., to the value in CPTPTREF), the values in CPTPTNUM should be assigned in ascending order relative to the value in CPTPTREF. For example, records for time points where CPTPT = \"5 minutes post\", 1 hour post\", and \"4 hours post\" could be represented in CPTPTNUM as \"1\", \"2\", and \"3\", which maintains the order between CPTPT and CPTPTNUM with respect to the fixed time point reference in CPTPTREF.", "label": "Planned Time Point Number", "name": "CPTPTNUM", "ordinal": "59", "role": "Timing", "simpleDatatype": "Num"}, {"_links": {"modelClassVariable": {"href": "/mdr/sdtm/2-0/classes/GeneralObservations/variables/--ELTM", "title": "Planned Elapsed Time from Time Point Ref", "type": "SDTM Class Variable"}, "parentDataset": {"href": "/mdr/sdtmig/3-4/datasets/CP", "title": "Cell Phenotype Findings", "type": "SDTM Dataset"}, "parentProduct": {"href": "/mdr/sdtmig/3-4", "title": "Study Data Tabulation Model Implementation Guide: Human Clinical Trials", "type": "Implementation Guide"}, "rootItem": {"href": "/mdr/root/sdtmig/datasets/CP/variables/CPELTM", "title": "Version-agnostic anchor resource for SDTMIG variable CP.CPELTM", "type": "Root Data Element"}, "self": {"href": "/mdr/sdtmig/3-4/datasets/CP/variables/CPELTM", "title": "Planned Elapsed Time from Time Point Ref", "type": "SDTM Dataset Variable"}}, "core": "Perm", "describedValueDomain": "ISO 8601 duration", "description": "Planned elapsed time relative to the planned fixed reference value in CPTPTREF, represented in ISO 8601 duration format. Examples: \"-PT15M\" to represent 15 minutes prior to the reference time point indicated by CPTPTREF, \"T8H\" to represent 8 hours after the reference time point represented by CPTPTREF.", "label": "Planned Elapsed Time from Time Point Ref", "name": "CPELTM", "ordinal": "60", "role": "Timing", "simpleDatatype": "Char"}, {"_links": {"modelClassVariable": {"href": "/mdr/sdtm/2-0/classes/GeneralObservations/variables/--TPTREF", "title": "Time Point Reference", "type": "SDTM Class Variable"}, "parentDataset": {"href": "/mdr/sdtmig/3-4/datasets/CP", "title": "Cell Phenotype Findings", "type": "SDTM Dataset"}, "parentProduct": {"href": "/mdr/sdtmig/3-4", "title": "Study Data Tabulation Model Implementation Guide: Human Clinical Trials", "type": "Implementation Guide"}, "rootItem": {"href": "/mdr/root/sdtmig/datasets/CP/variables/CPTPTREF", "title": "Version-agnostic anchor resource for SDTMIG variable CP.CPTPTREF", "type": "Root Data Element"}, "self": {"href": "/mdr/sdtmig/3-4/datasets/CP/variables/CPTPTREF", "title": "Time Point Reference", "type": "SDTM Dataset Variable"}}, "core": "Perm", "description": "Descriptive name of the fixed reference point referred to by CPTPT, CPTPTNUM, and CPELTM. Examples: \"PREVIOUS DOSE\", \"PREVIOUS MEAL\".", "label": "Time Point Reference", "name": "CPTPTREF", "ordinal": "61", "role": "Timing", "simpleDatatype": "Char"}, {"_links": {"modelClassVariable": {"href": "/mdr/sdtm/2-0/classes/GeneralObservations/variables/--RFTDTC", "title": "Date/Time of Reference Time Point", "type": "SDTM Class Variable"}, "parentDataset": {"href": "/mdr/sdtmig/3-4/datasets/CP", "title": "Cell Phenotype Findings", "type": "SDTM Dataset"}, "parentProduct": {"href": "/mdr/sdtmig/3-4", "title": "Study Data Tabulation Model Implementation Guide: Human Clinical Trials", "type": "Implementation Guide"}, "rootItem": {"href": "/mdr/root/sdtmig/datasets/CP/variables/CPRFTDTC", "title": "Version-agnostic anchor resource for SDTMIG variable CP.CPRFTDTC", "type": "Root Data Element"}, "self": {"href": "/mdr/sdtmig/3-4/datasets/CP/variables/CPRFTDTC", "title": "Date/Time of Reference Time Point", "type": "SDTM Dataset Variable"}}, "core": "Perm", "describedValueDomain": "ISO 8601 datetime or interval", "description": "Date/time for a fixed reference time point defined by CPTPTREF.", "label": "Date/Time of Reference Time Point", "name": "CPRFTDTC", "ordinal": "62", "role": "Timing", "simpleDatatype": "Char"}], "description": "A findings domain that contains data related to the characterization of cell phenotype, lineage, and function based on expression of specific markers in single cell or particle suspensions.", "label": "Cell Phenotype Findings", "name": "CP", "ordinal": "8"}
