{"_links": {"parentClass": {"href": "/mdr/sdtmig/3-4/classes/Findings", "title": "Findings", "type": "Class"}, "parentProduct": {"href": "/mdr/sdtmig/3-4", "title": "Study Data Tabulation Model Implementation Guide: Human Clinical Trials", "type": "Implementation Guide"}, "priorVersion": {"href": "/mdr/sdtmig/3-3/datasets/MK", "title": "Musculoskeletal System Findings", "type": "SDTM Dataset"}, "self": {"href": "/mdr/sdtmig/3-4/datasets/MK", "title": "Musculoskeletal System Findings", "type": "SDTM Dataset"}}, "datasetStructure": "One record per assessment per visit per subject", "datasetVariables": [{"_links": {"modelClassVariable": {"href": "/mdr/sdtm/2-0/classes/GeneralObservations/variables/STUDYID", "title": "Study Identifier", "type": "SDTM Class Variable"}, "parentDataset": {"href": "/mdr/sdtmig/3-4/datasets/MK", "title": "Musculoskeletal System Findings", "type": "SDTM Dataset"}, "parentProduct": {"href": "/mdr/sdtmig/3-4", "title": "Study Data Tabulation Model Implementation Guide: Human Clinical Trials", "type": "Implementation Guide"}, "priorVersion": {"href": "/mdr/sdtmig/3-3/datasets/MK/variables/STUDYID", "title": "Study Identifier", "type": "SDTM Dataset Variable"}, "rootItem": {"href": "/mdr/root/sdtmig/datasets/MK/variables/STUDYID", "title": "Version-agnostic anchor resource for SDTMIG variable MK.STUDYID", "type": "Root Data Element"}, "self": {"href": "/mdr/sdtmig/3-4/datasets/MK/variables/STUDYID", "title": "Study Identifier", "type": "SDTM Dataset Variable"}}, "core": "Req", "description": "Unique identifier for a study.", "label": "Study Identifier", "name": "STUDYID", "ordinal": "1", "role": "Identifier", "simpleDatatype": "Char"}, {"_links": {"modelClassVariable": {"href": "/mdr/sdtm/2-0/classes/GeneralObservations/variables/DOMAIN", "title": "Domain Abbreviation", "type": "SDTM Class Variable"}, "parentDataset": {"href": "/mdr/sdtmig/3-4/datasets/MK", "title": "Musculoskeletal System Findings", "type": "SDTM Dataset"}, "parentProduct": {"href": "/mdr/sdtmig/3-4", "title": "Study Data Tabulation Model Implementation Guide: Human Clinical Trials", "type": "Implementation Guide"}, "priorVersion": {"href": "/mdr/sdtmig/3-3/datasets/MK/variables/DOMAIN", "title": "Domain Abbreviation", "type": "SDTM Dataset Variable"}, "rootItem": {"href": "/mdr/root/sdtmig/datasets/MK/variables/DOMAIN", "title": "Version-agnostic anchor resource for SDTMIG variable MK.DOMAIN", "type": "Root Data Element"}, "self": {"href": "/mdr/sdtmig/3-4/datasets/MK/variables/DOMAIN", "title": "Domain Abbreviation", "type": "SDTM Dataset Variable"}}, "core": "Req", "description": "Two-character abbreviation for the domain.", "label": "Domain Abbreviation", "name": "DOMAIN", "ordinal": "2", "role": "Identifier", "simpleDatatype": "Char", "valueList": ["MK"]}, {"_links": {"modelClassVariable": {"href": "/mdr/sdtm/2-0/classes/GeneralObservations/variables/USUBJID", "title": "Unique Subject Identifier", "type": "SDTM Class Variable"}, "parentDataset": {"href": "/mdr/sdtmig/3-4/datasets/MK", "title": "Musculoskeletal System Findings", "type": "SDTM Dataset"}, "parentProduct": {"href": "/mdr/sdtmig/3-4", "title": "Study Data Tabulation Model Implementation Guide: Human Clinical Trials", "type": "Implementation Guide"}, "priorVersion": {"href": "/mdr/sdtmig/3-3/datasets/MK/variables/USUBJID", "title": "Unique Subject Identifier", "type": "SDTM Dataset Variable"}, "rootItem": {"href": "/mdr/root/sdtmig/datasets/MK/variables/USUBJID", "title": "Version-agnostic anchor resource for SDTMIG variable MK.USUBJID", "type": "Root Data Element"}, "self": {"href": "/mdr/sdtmig/3-4/datasets/MK/variables/USUBJID", "title": "Unique Subject Identifier", "type": "SDTM Dataset Variable"}}, "core": "Req", "description": "Identifier used to uniquely identify a subject across all studies for all applications or submissions involving the product.", "label": "Unique Subject Identifier", "name": "USUBJID", "ordinal": "3", "role": "Identifier", "simpleDatatype": "Char"}, {"_links": {"modelClassVariable": {"href": "/mdr/sdtm/2-0/classes/GeneralObservations/variables/--SEQ", "title": "Sequence Number", "type": "SDTM Class Variable"}, "parentDataset": {"href": "/mdr/sdtmig/3-4/datasets/MK", "title": "Musculoskeletal System Findings", "type": "SDTM Dataset"}, "parentProduct": {"href": "/mdr/sdtmig/3-4", "title": "Study Data Tabulation Model Implementation Guide: Human Clinical Trials", "type": "Implementation Guide"}, "priorVersion": {"href": "/mdr/sdtmig/3-3/datasets/MK/variables/MKSEQ", "title": "Sequence Number", "type": "SDTM Dataset Variable"}, "rootItem": {"href": "/mdr/root/sdtmig/datasets/MK/variables/MKSEQ", "title": "Version-agnostic anchor resource for SDTMIG variable MK.MKSEQ", "type": "Root Data Element"}, "self": {"href": "/mdr/sdtmig/3-4/datasets/MK/variables/MKSEQ", "title": "Sequence Number", "type": "SDTM Dataset Variable"}}, "core": "Req", "description": "Sequence number to ensure uniqueness of records within a dataset for a subject (or within a parameter, in the case of the Trial Summary domain). May be any valid number (including decimals) and does not have to start at 1.", "label": "Sequence Number", "name": "MKSEQ", "ordinal": "4", "role": "Identifier", "simpleDatatype": "Num"}, {"_links": {"modelClassVariable": {"href": "/mdr/sdtm/2-0/classes/GeneralObservations/variables/--GRPID", "title": "Group ID", "type": "SDTM Class Variable"}, "parentDataset": {"href": "/mdr/sdtmig/3-4/datasets/MK", "title": "Musculoskeletal System Findings", "type": "SDTM Dataset"}, "parentProduct": {"href": "/mdr/sdtmig/3-4", "title": "Study Data Tabulation Model Implementation Guide: Human Clinical Trials", "type": "Implementation Guide"}, "priorVersion": {"href": "/mdr/sdtmig/3-3/datasets/MK/variables/MKGRPID", "title": "Group ID", "type": "SDTM Dataset Variable"}, "rootItem": {"href": "/mdr/root/sdtmig/datasets/MK/variables/MKGRPID", "title": "Version-agnostic anchor resource for SDTMIG variable MK.MKGRPID", "type": "Root Data Element"}, "self": {"href": "/mdr/sdtmig/3-4/datasets/MK/variables/MKGRPID", "title": "Group ID", "type": "SDTM Dataset Variable"}}, "core": "Perm", "description": "Used to link together a block of related records within a subject in a domain.", "label": "Group ID", "name": "MKGRPID", "ordinal": "5", "role": "Identifier", "simpleDatatype": "Char"}, {"_links": {"modelClassVariable": {"href": "/mdr/sdtm/2-0/classes/GeneralObservations/variables/--REFID", "title": "Reference ID", "type": "SDTM Class Variable"}, "parentDataset": {"href": "/mdr/sdtmig/3-4/datasets/MK", "title": "Musculoskeletal System Findings", "type": "SDTM Dataset"}, "parentProduct": {"href": "/mdr/sdtmig/3-4", "title": "Study Data Tabulation Model Implementation Guide: Human Clinical Trials", "type": "Implementation Guide"}, "priorVersion": {"href": "/mdr/sdtmig/3-3/datasets/MK/variables/MKREFID", "title": "Reference ID", "type": "SDTM Dataset Variable"}, "rootItem": {"href": "/mdr/root/sdtmig/datasets/MK/variables/MKREFID", "title": "Version-agnostic anchor resource for SDTMIG variable MK.MKREFID", "type": "Root Data Element"}, "self": {"href": "/mdr/sdtmig/3-4/datasets/MK/variables/MKREFID", "title": "Reference ID", "type": "SDTM Dataset Variable"}}, "core": "Perm", "description": "Optional internal or external identifier such as lab specimen ID or a medical image.", "label": "Reference ID", "name": "MKREFID", "ordinal": "6", "role": "Identifier", "simpleDatatype": "Char"}, {"_links": {"modelClassVariable": {"href": "/mdr/sdtm/2-0/classes/GeneralObservations/variables/--SPID", "title": "Sponsor-Defined Identifier", "type": "SDTM Class Variable"}, "parentDataset": {"href": "/mdr/sdtmig/3-4/datasets/MK", "title": "Musculoskeletal System Findings", "type": "SDTM Dataset"}, "parentProduct": {"href": "/mdr/sdtmig/3-4", "title": "Study Data Tabulation Model Implementation Guide: Human Clinical Trials", "type": "Implementation Guide"}, "priorVersion": {"href": "/mdr/sdtmig/3-3/datasets/MK/variables/MKSPID", "title": "Sponsor-Defined Identifier", "type": "SDTM Dataset Variable"}, "rootItem": {"href": "/mdr/root/sdtmig/datasets/MK/variables/MKSPID", "title": "Version-agnostic anchor resource for SDTMIG variable MK.MKSPID", "type": "Root Data Element"}, "self": {"href": "/mdr/sdtmig/3-4/datasets/MK/variables/MKSPID", "title": "Sponsor-Defined Identifier", "type": "SDTM Dataset Variable"}}, "core": "Perm", "description": "Sponsor-defined identifier. Example: Preprinted line identifier on a Concomitant Medications page.", "label": "Sponsor-Defined Identifier", "name": "MKSPID", "ordinal": "7", "role": "Identifier", "simpleDatatype": "Char"}, {"_links": {"modelClassVariable": {"href": "/mdr/sdtm/2-0/classes/GeneralObservations/variables/--LNKID", "title": "Link ID", "type": "SDTM Class Variable"}, "parentDataset": {"href": "/mdr/sdtmig/3-4/datasets/MK", "title": "Musculoskeletal System Findings", "type": "SDTM Dataset"}, "parentProduct": {"href": "/mdr/sdtmig/3-4", "title": "Study Data Tabulation Model Implementation Guide: Human Clinical Trials", "type": "Implementation Guide"}, "priorVersion": {"href": "/mdr/sdtmig/3-3/datasets/MK/variables/MKLNKID", "title": "Link ID", "type": "SDTM Dataset Variable"}, "rootItem": {"href": "/mdr/root/sdtmig/datasets/MK/variables/MKLNKID", "title": "Version-agnostic anchor resource for SDTMIG variable MK.MKLNKID", "type": "Root Data Element"}, "self": {"href": "/mdr/sdtmig/3-4/datasets/MK/variables/MKLNKID", "title": "Link ID", "type": "SDTM Dataset Variable"}}, "core": "Perm", "description": "Identifier used to link related records across domains. This may be a one-to-one or a one-to-many relationship.", "label": "Link ID", "name": "MKLNKID", "ordinal": "8", "role": "Identifier", "simpleDatatype": "Char"}, {"_links": {"modelClassVariable": {"href": "/mdr/sdtm/2-0/classes/GeneralObservations/variables/--LNKGRP", "title": "Link Group ID", "type": "SDTM Class Variable"}, "parentDataset": {"href": "/mdr/sdtmig/3-4/datasets/MK", "title": "Musculoskeletal System Findings", "type": "SDTM Dataset"}, "parentProduct": {"href": "/mdr/sdtmig/3-4", "title": "Study Data Tabulation Model Implementation Guide: Human Clinical Trials", "type": "Implementation Guide"}, "priorVersion": {"href": "/mdr/sdtmig/3-3/datasets/MK/variables/MKLNKGRP", "title": "Link Group ID", "type": "SDTM Dataset Variable"}, "rootItem": {"href": "/mdr/root/sdtmig/datasets/MK/variables/MKLNKGRP", "title": "Version-agnostic anchor resource for SDTMIG variable MK.MKLNKGRP", "type": "Root Data Element"}, "self": {"href": "/mdr/sdtmig/3-4/datasets/MK/variables/MKLNKGRP", "title": "Link Group ID", "type": "SDTM Dataset Variable"}}, "core": "Perm", "description": "Identifier used to link related records across domains. This will usually be a many-to-one relationship.", "label": "Link Group ID", "name": "MKLNKGRP", "ordinal": "9", "role": "Identifier", "simpleDatatype": "Char"}, {"_links": {"codelist": [{"href": "/mdr/root/ct/sdtmct/codelists/C127269", "title": "Version-agnostic anchor resource for codelist C127269", "type": "Root Value Domain"}], "modelClassVariable": {"href": "/mdr/sdtm/2-0/classes/Findings/variables/--TESTCD", "title": "Short Name of Measurement, Test, or Exam", "type": "SDTM Class Variable"}, "parentDataset": {"href": "/mdr/sdtmig/3-4/datasets/MK", "title": "Musculoskeletal System Findings", "type": "SDTM Dataset"}, "parentProduct": {"href": "/mdr/sdtmig/3-4", "title": "Study Data Tabulation Model Implementation Guide: Human Clinical Trials", "type": "Implementation Guide"}, "priorVersion": {"href": "/mdr/sdtmig/3-3/datasets/MK/variables/MKTESTCD", "title": "Short Name of Musculoskeletal Test", "type": "SDTM Dataset Variable"}, "rootItem": {"href": "/mdr/root/sdtmig/datasets/MK/variables/MKTESTCD", "title": "Version-agnostic anchor resource for SDTMIG variable MK.MKTESTCD", "type": "Root Data Element"}, "self": {"href": "/mdr/sdtmig/3-4/datasets/MK/variables/MKTESTCD", "title": "Short Name of Musculoskeletal Test", "type": "SDTM Dataset Variable"}}, "core": "Req", "description": "Short character value for MKTEST used as a column name when converting a dataset from a vertical format to a horizontal format. The value in MKTESTCD cannot be longer than 8 characters, nor can it start with a number (e.g., \"1TEST\" is not valid). MKTESTCD cannot contain characters other than letters, numbers, or underscores. Examples: \"TNDRIND\", \"SWLLIND\", \"SGJSNSCR\".", "label": "Short Name of Musculoskeletal Test", "name": "MKTESTCD", "ordinal": "10", "role": "Topic", "simpleDatatype": "Char"}, {"_links": {"codelist": [{"href": "/mdr/root/ct/sdtmct/codelists/C127270", "title": "Version-agnostic anchor resource for codelist C127270", "type": "Root Value Domain"}], "modelClassVariable": {"href": "/mdr/sdtm/2-0/classes/Findings/variables/--TEST", "title": "Name of Measurement, Test, or Exam", "type": "SDTM Class Variable"}, "parentDataset": {"href": "/mdr/sdtmig/3-4/datasets/MK", "title": "Musculoskeletal System Findings", "type": "SDTM Dataset"}, "parentProduct": {"href": "/mdr/sdtmig/3-4", "title": "Study Data Tabulation Model Implementation Guide: Human Clinical Trials", "type": "Implementation Guide"}, "priorVersion": {"href": "/mdr/sdtmig/3-3/datasets/MK/variables/MKTEST", "title": "Name of Musculoskeletal Test", "type": "SDTM Dataset Variable"}, "rootItem": {"href": "/mdr/root/sdtmig/datasets/MK/variables/MKTEST", "title": "Version-agnostic anchor resource for SDTMIG variable MK.MKTEST", "type": "Root Data Element"}, "self": {"href": "/mdr/sdtmig/3-4/datasets/MK/variables/MKTEST", "title": "Name of Musculoskeletal Test", "type": "SDTM Dataset Variable"}}, "core": "Req", "description": "Long name For MKTESTCD. Examples: \"Tenderness Indicator\", \"Swollen Indicator\", \"Sharp/Genant JSN Score\".", "label": "Name of Musculoskeletal Test", "name": "MKTEST", "ordinal": "11", "role": "Synonym Qualifier", "simpleDatatype": "Char"}, {"_links": {"modelClassVariable": {"href": "/mdr/sdtm/2-0/classes/Findings/variables/--CAT", "title": "Category", "type": "SDTM Class Variable"}, "parentDataset": {"href": "/mdr/sdtmig/3-4/datasets/MK", "title": "Musculoskeletal System Findings", "type": "SDTM Dataset"}, "parentProduct": {"href": "/mdr/sdtmig/3-4", "title": "Study Data Tabulation Model Implementation Guide: Human Clinical Trials", "type": "Implementation Guide"}, "priorVersion": {"href": "/mdr/sdtmig/3-3/datasets/MK/variables/MKCAT", "title": "Category for Musculoskeletal Test", "type": "SDTM Dataset Variable"}, "rootItem": {"href": "/mdr/root/sdtmig/datasets/MK/variables/MKCAT", "title": "Version-agnostic anchor resource for SDTMIG variable MK.MKCAT", "type": "Root Data Element"}, "self": {"href": "/mdr/sdtmig/3-4/datasets/MK/variables/MKCAT", "title": "Category for Musculoskeletal Test", "type": "SDTM Dataset Variable"}}, "core": "Perm", "description": "Used to define a category of topic-variable values. Examples: \"SWOLLEN/TENDER JOINT ASSESSMENT\".", "label": "Category for Musculoskeletal Test", "name": "MKCAT", "ordinal": "12", "role": "Grouping Qualifier", "simpleDatatype": "Char"}, {"_links": {"modelClassVariable": {"href": "/mdr/sdtm/2-0/classes/Findings/variables/--SCAT", "title": "Subcategory", "type": "SDTM Class Variable"}, "parentDataset": {"href": "/mdr/sdtmig/3-4/datasets/MK", "title": "Musculoskeletal System Findings", "type": "SDTM Dataset"}, "parentProduct": {"href": "/mdr/sdtmig/3-4", "title": "Study Data Tabulation Model Implementation Guide: Human Clinical Trials", "type": "Implementation Guide"}, "priorVersion": {"href": "/mdr/sdtmig/3-3/datasets/MK/variables/MKSCAT", "title": "Subcategory for Musculoskeletal Test", "type": "SDTM Dataset Variable"}, "rootItem": {"href": "/mdr/root/sdtmig/datasets/MK/variables/MKSCAT", "title": "Version-agnostic anchor resource for SDTMIG variable MK.MKSCAT", "type": "Root Data Element"}, "self": {"href": "/mdr/sdtmig/3-4/datasets/MK/variables/MKSCAT", "title": "Subcategory for Musculoskeletal Test", "type": "SDTM Dataset Variable"}}, "core": "Perm", "description": "Used to define a further categorization of MKCAT values.", "label": "Subcategory for Musculoskeletal Test", "name": "MKSCAT", "ordinal": "13", "role": "Grouping Qualifier", "simpleDatatype": "Char"}, {"_links": {"codelist": [{"href": "/mdr/root/ct/sdtmct/codelists/C71148", "title": "Version-agnostic anchor resource for codelist C71148", "type": "Root Value Domain"}], "modelClassVariable": {"href": "/mdr/sdtm/2-0/classes/Findings/variables/--POS", "title": "Position of Subject During Observation", "type": "SDTM Class Variable"}, "parentDataset": {"href": "/mdr/sdtmig/3-4/datasets/MK", "title": "Musculoskeletal System Findings", "type": "SDTM Dataset"}, "parentProduct": {"href": "/mdr/sdtmig/3-4", "title": "Study Data Tabulation Model Implementation Guide: Human Clinical Trials", "type": "Implementation Guide"}, "priorVersion": {"href": "/mdr/sdtmig/3-3/datasets/MK/variables/MKPOS", "title": "Position of Subject", "type": "SDTM Dataset Variable"}, "rootItem": {"href": "/mdr/root/sdtmig/datasets/MK/variables/MKPOS", "title": "Version-agnostic anchor resource for SDTMIG variable MK.MKPOS", "type": "Root Data Element"}, "self": {"href": "/mdr/sdtmig/3-4/datasets/MK/variables/MKPOS", "title": "Position of Subject", "type": "SDTM Dataset Variable"}}, "core": "Perm", "description": "Position of the subject during a measurement or examination. Examples: \"SUPINE\", \"STANDING\", \"SITTING\".", "label": "Position of Subject", "name": "MKPOS", "ordinal": "14", "role": "Record Qualifier", "simpleDatatype": "Char"}, {"_links": {"modelClassVariable": {"href": "/mdr/sdtm/2-0/classes/Findings/variables/--ORRES", "title": "Result or Finding in Original Units", "type": "SDTM Class Variable"}, "parentDataset": {"href": "/mdr/sdtmig/3-4/datasets/MK", "title": "Musculoskeletal System Findings", "type": "SDTM Dataset"}, "parentProduct": {"href": "/mdr/sdtmig/3-4", "title": "Study Data Tabulation Model Implementation Guide: Human Clinical Trials", "type": "Implementation Guide"}, "priorVersion": {"href": "/mdr/sdtmig/3-3/datasets/MK/variables/MKORRES", "title": "Result or Finding in Original Units", "type": "SDTM Dataset Variable"}, "rootItem": {"href": "/mdr/root/sdtmig/datasets/MK/variables/MKORRES", "title": "Version-agnostic anchor resource for SDTMIG variable MK.MKORRES", "type": "Root Data Element"}, "self": {"href": "/mdr/sdtmig/3-4/datasets/MK/variables/MKORRES", "title": "Result or Finding in Original Units", "type": "SDTM Dataset Variable"}}, "core": "Exp", "description": "Result of the measurement or finding as originally received or collected.", "label": "Result or Finding in Original Units", "name": "MKORRES", "ordinal": "15", "role": "Result Qualifier", "simpleDatatype": "Char"}, {"_links": {"codelist": [{"href": "/mdr/root/ct/sdtmct/codelists/C71620", "title": "Version-agnostic anchor resource for codelist C71620", "type": "Root Value Domain"}], "modelClassVariable": {"href": "/mdr/sdtm/2-0/classes/Findings/variables/--ORRESU", "title": "Original Units", "type": "SDTM Class Variable"}, "parentDataset": {"href": "/mdr/sdtmig/3-4/datasets/MK", "title": "Musculoskeletal System Findings", "type": "SDTM Dataset"}, "parentProduct": {"href": "/mdr/sdtmig/3-4", "title": "Study Data Tabulation Model Implementation Guide: Human Clinical Trials", "type": "Implementation Guide"}, "priorVersion": {"href": "/mdr/sdtmig/3-3/datasets/MK/variables/MKORRESU", "title": "Original Units", "type": "SDTM Dataset Variable"}, "rootItem": {"href": "/mdr/root/sdtmig/datasets/MK/variables/MKORRESU", "title": "Version-agnostic anchor resource for SDTMIG variable MK.MKORRESU", "type": "Root Data Element"}, "self": {"href": "/mdr/sdtmig/3-4/datasets/MK/variables/MKORRESU", "title": "Original Units", "type": "SDTM Dataset Variable"}}, "core": "Perm", "description": "Unit for MKORRES.", "label": "Original Units", "name": "MKORRESU", "ordinal": "16", "role": "Variable Qualifier", "simpleDatatype": "Char"}, {"_links": {"modelClassVariable": {"href": "/mdr/sdtm/2-0/classes/Findings/variables/--STRESC", "title": "Result or Finding in Standard Format", "type": "SDTM Class Variable"}, "parentDataset": {"href": "/mdr/sdtmig/3-4/datasets/MK", "title": "Musculoskeletal System Findings", "type": "SDTM Dataset"}, "parentProduct": {"href": "/mdr/sdtmig/3-4", "title": "Study Data Tabulation Model Implementation Guide: Human Clinical Trials", "type": "Implementation Guide"}, "priorVersion": {"href": "/mdr/sdtmig/3-3/datasets/MK/variables/MKSTRESC", "title": "Character Result/Finding in Std Format", "type": "SDTM Dataset Variable"}, "rootItem": {"href": "/mdr/root/sdtmig/datasets/MK/variables/MKSTRESC", "title": "Version-agnostic anchor resource for SDTMIG variable MK.MKSTRESC", "type": "Root Data Element"}, "self": {"href": "/mdr/sdtmig/3-4/datasets/MK/variables/MKSTRESC", "title": "Character Result/Finding in Std Format", "type": "SDTM Dataset Variable"}}, "core": "Exp", "description": "Contains the result value for all findings, copied or derived from MKORRES in a standard format or in standard units. MKSTRESC should store all results or findings in character format; if results are numeric, they should also be stored in numeric format in MKSTRESN. For example, if various tests have results \"NONE\", \"NEG\", and \"NEGATIVE\" in MKORRES and these results effectively have the same meaning, they could be represented in standard format in MKSTRESC as \"NEGATIVE\".", "label": "Character Result/Finding in Std Format", "name": "MKSTRESC", "ordinal": "17", "role": "Result Qualifier", "simpleDatatype": "Char"}, {"_links": {"modelClassVariable": {"href": "/mdr/sdtm/2-0/classes/Findings/variables/--STRESN", "title": "Numeric Result/Finding in Standard Units", "type": "SDTM Class Variable"}, "parentDataset": {"href": "/mdr/sdtmig/3-4/datasets/MK", "title": "Musculoskeletal System Findings", "type": "SDTM Dataset"}, "parentProduct": {"href": "/mdr/sdtmig/3-4", "title": "Study Data Tabulation Model Implementation Guide: Human Clinical Trials", "type": "Implementation Guide"}, "priorVersion": {"href": "/mdr/sdtmig/3-3/datasets/MK/variables/MKSTRESN", "title": "Numeric Result/Finding in Standard Units", "type": "SDTM Dataset Variable"}, "rootItem": {"href": "/mdr/root/sdtmig/datasets/MK/variables/MKSTRESN", "title": "Version-agnostic anchor resource for SDTMIG variable MK.MKSTRESN", "type": "Root Data Element"}, "self": {"href": "/mdr/sdtmig/3-4/datasets/MK/variables/MKSTRESN", "title": "Numeric Result/Finding in Standard Units", "type": "SDTM Dataset Variable"}}, "core": "Perm", "description": "Used for continuous or numeric results or findings in standard format; copied in numeric format from MKSTRESC. MKSTRESN should store all numeric test results or findings.", "label": "Numeric Result/Finding in Standard Units", "name": "MKSTRESN", "ordinal": "18", "role": "Result Qualifier", "simpleDatatype": "Num"}, {"_links": {"codelist": [{"href": "/mdr/root/ct/sdtmct/codelists/C71620", "title": "Version-agnostic anchor resource for codelist C71620", "type": "Root Value Domain"}], "modelClassVariable": {"href": "/mdr/sdtm/2-0/classes/Findings/variables/--STRESU", "title": "Standard Units", "type": "SDTM Class Variable"}, "parentDataset": {"href": "/mdr/sdtmig/3-4/datasets/MK", "title": "Musculoskeletal System Findings", "type": "SDTM Dataset"}, "parentProduct": {"href": "/mdr/sdtmig/3-4", "title": "Study Data Tabulation Model Implementation Guide: Human Clinical Trials", "type": "Implementation Guide"}, "priorVersion": {"href": "/mdr/sdtmig/3-3/datasets/MK/variables/MKSTRESU", "title": "Standard Units", "type": "SDTM Dataset Variable"}, "rootItem": {"href": "/mdr/root/sdtmig/datasets/MK/variables/MKSTRESU", "title": "Version-agnostic anchor resource for SDTMIG variable MK.MKSTRESU", "type": "Root Data Element"}, "self": {"href": "/mdr/sdtmig/3-4/datasets/MK/variables/MKSTRESU", "title": "Standard Units", "type": "SDTM Dataset Variable"}}, "core": "Perm", "description": "Standardized units used for MKSTRESC and MKSTRESN.", "label": "Standard Units", "name": "MKSTRESU", "ordinal": "19", "role": "Variable Qualifier", "simpleDatatype": "Char"}, {"_links": {"codelist": [{"href": "/mdr/root/ct/sdtmct/codelists/C66789", "title": "Version-agnostic anchor resource for codelist C66789", "type": "Root Value Domain"}], "modelClassVariable": {"href": "/mdr/sdtm/2-0/classes/Findings/variables/--STAT", "title": "Completion Status", "type": "SDTM Class Variable"}, "parentDataset": {"href": "/mdr/sdtmig/3-4/datasets/MK", "title": "Musculoskeletal System Findings", "type": "SDTM Dataset"}, "parentProduct": {"href": "/mdr/sdtmig/3-4", "title": "Study Data Tabulation Model Implementation Guide: Human Clinical Trials", "type": "Implementation Guide"}, "priorVersion": {"href": "/mdr/sdtmig/3-3/datasets/MK/variables/MKSTAT", "title": "Completion Status", "type": "SDTM Dataset Variable"}, "rootItem": {"href": "/mdr/root/sdtmig/datasets/MK/variables/MKSTAT", "title": "Version-agnostic anchor resource for SDTMIG variable MK.MKSTAT", "type": "Root Data Element"}, "self": {"href": "/mdr/sdtmig/3-4/datasets/MK/variables/MKSTAT", "title": "Completion Status", "type": "SDTM Dataset Variable"}}, "core": "Perm", "description": "Used to indicate that a question was not asked or a test was not done, or that a test was attempted but did not generate a result. Should be null if a result exists in MKORRES.", "label": "Completion Status", "name": "MKSTAT", "ordinal": "20", "role": "Record Qualifier", "simpleDatatype": "Char"}, {"_links": {"modelClassVariable": {"href": "/mdr/sdtm/2-0/classes/Findings/variables/--REASND", "title": "Reason Not Done", "type": "SDTM Class Variable"}, "parentDataset": {"href": "/mdr/sdtmig/3-4/datasets/MK", "title": "Musculoskeletal System Findings", "type": "SDTM Dataset"}, "parentProduct": {"href": "/mdr/sdtmig/3-4", "title": "Study Data Tabulation Model Implementation Guide: Human Clinical Trials", "type": "Implementation Guide"}, "priorVersion": {"href": "/mdr/sdtmig/3-3/datasets/MK/variables/MKREASND", "title": "Reason Not Done", "type": "SDTM Dataset Variable"}, "rootItem": {"href": "/mdr/root/sdtmig/datasets/MK/variables/MKREASND", "title": "Version-agnostic anchor resource for SDTMIG variable MK.MKREASND", "type": "Root Data Element"}, "self": {"href": "/mdr/sdtmig/3-4/datasets/MK/variables/MKREASND", "title": "Reason Not Done", "type": "SDTM Dataset Variable"}}, "core": "Perm", "description": "Reason not done. Used in conjunction with MKSTAT when value is \"NOT DONE\".", "label": "Reason Not Done", "name": "MKREASND", "ordinal": "21", "role": "Record Qualifier", "simpleDatatype": "Char"}, {"_links": {"codelist": [{"href": "/mdr/root/ct/sdtmct/codelists/C74456", "title": "Version-agnostic anchor resource for codelist C74456", "type": "Root Value Domain"}], "modelClassVariable": {"href": "/mdr/sdtm/2-0/classes/Findings/variables/--LOC", "title": "Location Used for the Measurement", "type": "SDTM Class Variable"}, "parentDataset": {"href": "/mdr/sdtmig/3-4/datasets/MK", "title": "Musculoskeletal System Findings", "type": "SDTM Dataset"}, "parentProduct": {"href": "/mdr/sdtmig/3-4", "title": "Study Data Tabulation Model Implementation Guide: Human Clinical Trials", "type": "Implementation Guide"}, "priorVersion": {"href": "/mdr/sdtmig/3-3/datasets/MK/variables/MKLOC", "title": "Location Used for the Measurement", "type": "SDTM Dataset Variable"}, "rootItem": {"href": "/mdr/root/sdtmig/datasets/MK/variables/MKLOC", "title": "Version-agnostic anchor resource for SDTMIG variable MK.MKLOC", "type": "Root Data Element"}, "self": {"href": "/mdr/sdtmig/3-4/datasets/MK/variables/MKLOC", "title": "Location Used for the Measurement", "type": "SDTM Dataset Variable"}}, "core": "Exp", "description": "Anatomical location of the subject relevant to the collection of the measurement. Examples: \"INTERPHALANGEAL JOINT 1\", \"SHOULDER JOINT\".", "label": "Location Used for the Measurement", "name": "MKLOC", "ordinal": "22", "role": "Record Qualifier", "simpleDatatype": "Char"}, {"_links": {"codelist": [{"href": "/mdr/root/ct/sdtmct/codelists/C99073", "title": "Version-agnostic anchor resource for codelist C99073", "type": "Root Value Domain"}], "modelClassVariable": {"href": "/mdr/sdtm/2-0/classes/Findings/variables/--LAT", "title": "Laterality", "type": "SDTM Class Variable"}, "parentDataset": {"href": "/mdr/sdtmig/3-4/datasets/MK", "title": "Musculoskeletal System Findings", "type": "SDTM Dataset"}, "parentProduct": {"href": "/mdr/sdtmig/3-4", "title": "Study Data Tabulation Model Implementation Guide: Human Clinical Trials", "type": "Implementation Guide"}, "priorVersion": {"href": "/mdr/sdtmig/3-3/datasets/MK/variables/MKLAT", "title": "Laterality", "type": "SDTM Dataset Variable"}, "rootItem": {"href": "/mdr/root/sdtmig/datasets/MK/variables/MKLAT", "title": "Version-agnostic anchor resource for SDTMIG variable MK.MKLAT", "type": "Root Data Element"}, "self": {"href": "/mdr/sdtmig/3-4/datasets/MK/variables/MKLAT", "title": "Laterality", "type": "SDTM Dataset Variable"}}, "core": "Perm", "description": "Qualifier for anatomical location or specimen further detailing laterality. Examples: \"RIGHT\", \"LEFT\", \"BILATERAL\".", "label": "Laterality", "name": "MKLAT", "ordinal": "23", "role": "Variable Qualifier", "simpleDatatype": "Char"}, {"_links": {"codelist": [{"href": "/mdr/root/ct/sdtmct/codelists/C99074", "title": "Version-agnostic anchor resource for codelist C99074", "type": "Root Value Domain"}], "modelClassVariable": {"href": "/mdr/sdtm/2-0/classes/Findings/variables/--DIR", "title": "Directionality", "type": "SDTM Class Variable"}, "parentDataset": {"href": "/mdr/sdtmig/3-4/datasets/MK", "title": "Musculoskeletal System Findings", "type": "SDTM Dataset"}, "parentProduct": {"href": "/mdr/sdtmig/3-4", "title": "Study Data Tabulation Model Implementation Guide: Human Clinical Trials", "type": "Implementation Guide"}, "priorVersion": {"href": "/mdr/sdtmig/3-3/datasets/MK/variables/MKDIR", "title": "Directionality", "type": "SDTM Dataset Variable"}, "rootItem": {"href": "/mdr/root/sdtmig/datasets/MK/variables/MKDIR", "title": "Version-agnostic anchor resource for SDTMIG variable MK.MKDIR", "type": "Root Data Element"}, "self": {"href": "/mdr/sdtmig/3-4/datasets/MK/variables/MKDIR", "title": "Directionality", "type": "SDTM Dataset Variable"}}, "core": "Perm", "description": "Qualifier for anatomical location further detailing directionality. Examples: \"ANTERIOR\", \"LOWER\", \"PROXIMAL\".", "label": "Directionality", "name": "MKDIR", "ordinal": "24", "role": "Variable Qualifier", "simpleDatatype": "Char"}, {"_links": {"codelist": [{"href": "/mdr/root/ct/sdtmct/codelists/C85492", "title": "Version-agnostic anchor resource for codelist C85492", "type": "Root Value Domain"}], "modelClassVariable": {"href": "/mdr/sdtm/2-0/classes/Findings/variables/--METHOD", "title": "Method of Test or Examination", "type": "SDTM Class Variable"}, "parentDataset": {"href": "/mdr/sdtmig/3-4/datasets/MK", "title": "Musculoskeletal System Findings", "type": "SDTM Dataset"}, "parentProduct": {"href": "/mdr/sdtmig/3-4", "title": "Study Data Tabulation Model Implementation Guide: Human Clinical Trials", "type": "Implementation Guide"}, "priorVersion": {"href": "/mdr/sdtmig/3-3/datasets/MK/variables/MKMETHOD", "title": "Method of Test or Examination", "type": "SDTM Dataset Variable"}, "rootItem": {"href": "/mdr/root/sdtmig/datasets/MK/variables/MKMETHOD", "title": "Version-agnostic anchor resource for SDTMIG variable MK.MKMETHOD", "type": "Root Data Element"}, "self": {"href": "/mdr/sdtmig/3-4/datasets/MK/variables/MKMETHOD", "title": "Method of Test or Examination", "type": "SDTM Dataset Variable"}}, "core": "Perm", "description": "Method of the test or examination. Examples: \"X-RAY\", \"MRI\", \"CT SCAN\".", "label": "Method of Test or Examination", "name": "MKMETHOD", "ordinal": "25", "role": "Record Qualifier", "simpleDatatype": "Char"}, {"_links": {"codelist": [{"href": "/mdr/root/ct/sdtmct/codelists/C66742", "title": "Version-agnostic anchor resource for codelist C66742", "type": "Root Value Domain"}], "modelClassVariable": {"href": "/mdr/sdtm/2-0/classes/Findings/variables/--LOBXFL", "title": "Last Observation Before Exposure Flag", "type": "SDTM Class Variable"}, "parentDataset": {"href": "/mdr/sdtmig/3-4/datasets/MK", "title": "Musculoskeletal System Findings", "type": "SDTM Dataset"}, "parentProduct": {"href": "/mdr/sdtmig/3-4", "title": "Study Data Tabulation Model Implementation Guide: Human Clinical Trials", "type": "Implementation Guide"}, "priorVersion": {"href": "/mdr/sdtmig/3-3/datasets/MK/variables/MKLOBXFL", "title": "Last Observation Before Exposure Flag", "type": "SDTM Dataset Variable"}, "rootItem": {"href": "/mdr/root/sdtmig/datasets/MK/variables/MKLOBXFL", "title": "Version-agnostic anchor resource for SDTMIG variable MK.MKLOBXFL", "type": "Root Data Element"}, "self": {"href": "/mdr/sdtmig/3-4/datasets/MK/variables/MKLOBXFL", "title": "Last Observation Before Exposure Flag", "type": "SDTM Dataset Variable"}}, "core": "Exp", "description": "Operationally derived indicator used to identify the last non-missing value prior to RFXSTDTC. The value should be \"Y\" or null.", "label": "Last Observation Before Exposure Flag", "name": "MKLOBXFL", "ordinal": "26", "role": "Record Qualifier", "simpleDatatype": "Char"}, {"_links": {"codelist": [{"href": "/mdr/root/ct/sdtmct/codelists/C66742", "title": "Version-agnostic anchor resource for codelist C66742", "type": "Root Value Domain"}], "modelClassVariable": {"href": "/mdr/sdtm/2-0/classes/Findings/variables/--BLFL", "title": "Baseline Flag", "type": "SDTM Class Variable"}, "parentDataset": {"href": "/mdr/sdtmig/3-4/datasets/MK", "title": "Musculoskeletal System Findings", "type": "SDTM Dataset"}, "parentProduct": {"href": "/mdr/sdtmig/3-4", "title": "Study Data Tabulation Model Implementation Guide: Human Clinical Trials", "type": "Implementation Guide"}, "priorVersion": {"href": "/mdr/sdtmig/3-3/datasets/MK/variables/MKBLFL", "title": "Baseline Flag", "type": "SDTM Dataset Variable"}, "rootItem": {"href": "/mdr/root/sdtmig/datasets/MK/variables/MKBLFL", "title": "Version-agnostic anchor resource for SDTMIG variable MK.MKBLFL", "type": "Root Data Element"}, "self": {"href": "/mdr/sdtmig/3-4/datasets/MK/variables/MKBLFL", "title": "Baseline Flag", "type": "SDTM Dataset Variable"}}, "core": "Perm", "description": "Indicator used to identify a baseline value. Should be \"Y\" or null. Note that MKBLFL is retained for backward compatibility. The authoritative baseline for statistical analysis is in an ADaM dataset.", "label": "Baseline Flag", "name": "MKBLFL", "ordinal": "27", "role": "Record Qualifier", "simpleDatatype": "Char"}, {"_links": {"codelist": [{"href": "/mdr/root/ct/sdtmct/codelists/C66742", "title": "Version-agnostic anchor resource for codelist C66742", "type": "Root Value Domain"}], "modelClassVariable": {"href": "/mdr/sdtm/2-0/classes/Findings/variables/--DRVFL", "title": "Derived Flag", "type": "SDTM Class Variable"}, "parentDataset": {"href": "/mdr/sdtmig/3-4/datasets/MK", "title": "Musculoskeletal System Findings", "type": "SDTM Dataset"}, "parentProduct": {"href": "/mdr/sdtmig/3-4", "title": "Study Data Tabulation Model Implementation Guide: Human Clinical Trials", "type": "Implementation Guide"}, "priorVersion": {"href": "/mdr/sdtmig/3-3/datasets/MK/variables/MKDRVFL", "title": "Derived Flag", "type": "SDTM Dataset Variable"}, "rootItem": {"href": "/mdr/root/sdtmig/datasets/MK/variables/MKDRVFL", "title": "Version-agnostic anchor resource for SDTMIG variable MK.MKDRVFL", "type": "Root Data Element"}, "self": {"href": "/mdr/sdtmig/3-4/datasets/MK/variables/MKDRVFL", "title": "Derived Flag", "type": "SDTM Dataset Variable"}}, "core": "Perm", "description": "Used to indicate a derived record (e.g., a record that represents the average of other records such as a computed baseline). Should be \"Y\" or null.", "label": "Derived Flag", "name": "MKDRVFL", "ordinal": "28", "role": "Record Qualifier", "simpleDatatype": "Char"}, {"_links": {"codelist": [{"href": "/mdr/root/ct/sdtmct/codelists/C78735", "title": "Version-agnostic anchor resource for codelist C78735", "type": "Root Value Domain"}], "modelClassVariable": {"href": "/mdr/sdtm/2-0/classes/Findings/variables/--EVAL", "title": "Evaluator", "type": "SDTM Class Variable"}, "parentDataset": {"href": "/mdr/sdtmig/3-4/datasets/MK", "title": "Musculoskeletal System Findings", "type": "SDTM Dataset"}, "parentProduct": {"href": "/mdr/sdtmig/3-4", "title": "Study Data Tabulation Model Implementation Guide: Human Clinical Trials", "type": "Implementation Guide"}, "priorVersion": {"href": "/mdr/sdtmig/3-3/datasets/MK/variables/MKEVAL", "title": "Evaluator", "type": "SDTM Dataset Variable"}, "rootItem": {"href": "/mdr/root/sdtmig/datasets/MK/variables/MKEVAL", "title": "Version-agnostic anchor resource for SDTMIG variable MK.MKEVAL", "type": "Root Data Element"}, "self": {"href": "/mdr/sdtmig/3-4/datasets/MK/variables/MKEVAL", "title": "Evaluator", "type": "SDTM Dataset Variable"}}, "core": "Perm", "description": "Role of the person who provided the evaluation. Used only for results that are subjective (e.g., assigned by a person or a group). Examples: \"ADJUDICATION COMMITTEE\", \"INDEPENDENT ASSESSOR\", \"RADIOLOGIST\".", "label": "Evaluator", "name": "MKEVAL", "ordinal": "29", "role": "Record Qualifier", "simpleDatatype": "Char"}, {"_links": {"codelist": [{"href": "/mdr/root/ct/sdtmct/codelists/C96777", "title": "Version-agnostic anchor resource for codelist C96777", "type": "Root Value Domain"}], "modelClassVariable": {"href": "/mdr/sdtm/2-0/classes/Findings/variables/--EVALID", "title": "Evaluator Identifier", "type": "SDTM Class Variable"}, "parentDataset": {"href": "/mdr/sdtmig/3-4/datasets/MK", "title": "Musculoskeletal System Findings", "type": "SDTM Dataset"}, "parentProduct": {"href": "/mdr/sdtmig/3-4", "title": "Study Data Tabulation Model Implementation Guide: Human Clinical Trials", "type": "Implementation Guide"}, "priorVersion": {"href": "/mdr/sdtmig/3-3/datasets/MK/variables/MKEVALID", "title": "Evaluator Identifier", "type": "SDTM Dataset Variable"}, "rootItem": {"href": "/mdr/root/sdtmig/datasets/MK/variables/MKEVALID", "title": "Version-agnostic anchor resource for SDTMIG variable MK.MKEVALID", "type": "Root Data Element"}, "self": {"href": "/mdr/sdtmig/3-4/datasets/MK/variables/MKEVALID", "title": "Evaluator Identifier", "type": "SDTM Dataset Variable"}}, "core": "Perm", "description": "Used to distinguish multiple evaluators with the same role recorded in MKEVAL. Examples: \"RADIOLOGIST1\" or \"RADIOLOGIST2\".", "label": "Evaluator Identifier", "name": "MKEVALID", "ordinal": "30", "role": "Variable Qualifier", "simpleDatatype": "Char"}, {"_links": {"modelClassVariable": {"href": "/mdr/sdtm/2-0/classes/GeneralObservations/variables/VISITNUM", "title": "Visit Number", "type": "SDTM Class Variable"}, "parentDataset": {"href": "/mdr/sdtmig/3-4/datasets/MK", "title": "Musculoskeletal System Findings", "type": "SDTM Dataset"}, "parentProduct": {"href": "/mdr/sdtmig/3-4", "title": "Study Data Tabulation Model Implementation Guide: Human Clinical Trials", "type": "Implementation Guide"}, "priorVersion": {"href": "/mdr/sdtmig/3-3/datasets/MK/variables/VISITNUM", "title": "Visit Number", "type": "SDTM Dataset Variable"}, "rootItem": {"href": "/mdr/root/sdtmig/datasets/MK/variables/VISITNUM", "title": "Version-agnostic anchor resource for SDTMIG variable MK.VISITNUM", "type": "Root Data Element"}, "self": {"href": "/mdr/sdtmig/3-4/datasets/MK/variables/VISITNUM", "title": "Visit Number", "type": "SDTM Dataset Variable"}}, "core": "Exp", "description": "Clinical encounter number. Numeric version of VISIT, used for sorting.", "label": "Visit Number", "name": "VISITNUM", "ordinal": "31", "role": "Timing", "simpleDatatype": "Num"}, {"_links": {"modelClassVariable": {"href": "/mdr/sdtm/2-0/classes/GeneralObservations/variables/VISIT", "title": "Visit Name", "type": "SDTM Class Variable"}, "parentDataset": {"href": "/mdr/sdtmig/3-4/datasets/MK", "title": "Musculoskeletal System Findings", "type": "SDTM Dataset"}, "parentProduct": {"href": "/mdr/sdtmig/3-4", "title": "Study Data Tabulation Model Implementation Guide: Human Clinical Trials", "type": "Implementation Guide"}, "priorVersion": {"href": "/mdr/sdtmig/3-3/datasets/MK/variables/VISIT", "title": "Visit Name", "type": "SDTM Dataset Variable"}, "rootItem": {"href": "/mdr/root/sdtmig/datasets/MK/variables/VISIT", "title": "Version-agnostic anchor resource for SDTMIG variable MK.VISIT", "type": "Root Data Element"}, "self": {"href": "/mdr/sdtmig/3-4/datasets/MK/variables/VISIT", "title": "Visit Name", "type": "SDTM Dataset Variable"}}, "core": "Perm", "description": "Protocol-defined description of a clinical encounter.", "label": "Visit Name", "name": "VISIT", "ordinal": "32", "role": "Timing", "simpleDatatype": "Char"}, {"_links": {"modelClassVariable": {"href": "/mdr/sdtm/2-0/classes/GeneralObservations/variables/VISITDY", "title": "Planned Study Day of Visit", "type": "SDTM Class Variable"}, "parentDataset": {"href": "/mdr/sdtmig/3-4/datasets/MK", "title": "Musculoskeletal System Findings", "type": "SDTM Dataset"}, "parentProduct": {"href": "/mdr/sdtmig/3-4", "title": "Study Data Tabulation Model Implementation Guide: Human Clinical Trials", "type": "Implementation Guide"}, "priorVersion": {"href": "/mdr/sdtmig/3-3/datasets/MK/variables/VISITDY", "title": "Planned Study Day of Visit", "type": "SDTM Dataset Variable"}, "rootItem": {"href": "/mdr/root/sdtmig/datasets/MK/variables/VISITDY", "title": "Version-agnostic anchor resource for SDTMIG variable MK.VISITDY", "type": "Root Data Element"}, "self": {"href": "/mdr/sdtmig/3-4/datasets/MK/variables/VISITDY", "title": "Planned Study Day of Visit", "type": "SDTM Dataset Variable"}}, "core": "Perm", "description": "Planned study day of VISIT. Should be an integer.", "label": "Planned Study Day of Visit", "name": "VISITDY", "ordinal": "33", "role": "Timing", "simpleDatatype": "Num"}, {"_links": {"modelClassVariable": {"href": "/mdr/sdtm/2-0/classes/GeneralObservations/variables/TAETORD", "title": "Planned Order of Element Within Arm", "type": "SDTM Class Variable"}, "parentDataset": {"href": "/mdr/sdtmig/3-4/datasets/MK", "title": "Musculoskeletal System Findings", "type": "SDTM Dataset"}, "parentProduct": {"href": "/mdr/sdtmig/3-4", "title": "Study Data Tabulation Model Implementation Guide: Human Clinical Trials", "type": "Implementation Guide"}, "priorVersion": {"href": "/mdr/sdtmig/3-3/datasets/MK/variables/TAETORD", "title": "Planned Order of Element within Arm", "type": "SDTM Dataset Variable"}, "rootItem": {"href": "/mdr/root/sdtmig/datasets/MK/variables/TAETORD", "title": "Version-agnostic anchor resource for SDTMIG variable MK.TAETORD", "type": "Root Data Element"}, "self": {"href": "/mdr/sdtmig/3-4/datasets/MK/variables/TAETORD", "title": "Planned Order of Element within Arm", "type": "SDTM Dataset Variable"}}, "core": "Perm", "description": "Number that gives the planned order of the element within the arm for the element in which the assessment was made.", "label": "Planned Order of Element within Arm", "name": "TAETORD", "ordinal": "34", "role": "Timing", "simpleDatatype": "Num"}, {"_links": {"codelist": [{"href": "/mdr/root/ct/sdtmct/codelists/C99079", "title": "Version-agnostic anchor resource for codelist C99079", "type": "Root Value Domain"}], "modelClassVariable": {"href": "/mdr/sdtm/2-0/classes/GeneralObservations/variables/EPOCH", "title": "Epoch", "type": "SDTM Class Variable"}, "parentDataset": {"href": "/mdr/sdtmig/3-4/datasets/MK", "title": "Musculoskeletal System Findings", "type": "SDTM Dataset"}, "parentProduct": {"href": "/mdr/sdtmig/3-4", "title": "Study Data Tabulation Model Implementation Guide: Human Clinical Trials", "type": "Implementation Guide"}, "priorVersion": {"href": "/mdr/sdtmig/3-3/datasets/MK/variables/EPOCH", "title": "Epoch", "type": "SDTM Dataset Variable"}, "rootItem": {"href": "/mdr/root/sdtmig/datasets/MK/variables/EPOCH", "title": "Version-agnostic anchor resource for SDTMIG variable MK.EPOCH", "type": "Root Data Element"}, "self": {"href": "/mdr/sdtmig/3-4/datasets/MK/variables/EPOCH", "title": "Epoch", "type": "SDTM Dataset Variable"}}, "core": "Perm", "description": "Epoch associated with the date/time at which the assessment was made.", "label": "Epoch", "name": "EPOCH", "ordinal": "35", "role": "Timing", "simpleDatatype": "Char"}, {"_links": {"modelClassVariable": {"href": "/mdr/sdtm/2-0/classes/GeneralObservations/variables/--DTC", "title": "Date/Time of Collection", "type": "SDTM Class Variable"}, "parentDataset": {"href": "/mdr/sdtmig/3-4/datasets/MK", "title": "Musculoskeletal System Findings", "type": "SDTM Dataset"}, "parentProduct": {"href": "/mdr/sdtmig/3-4", "title": "Study Data Tabulation Model Implementation Guide: Human Clinical Trials", "type": "Implementation Guide"}, "priorVersion": {"href": "/mdr/sdtmig/3-3/datasets/MK/variables/MKDTC", "title": "Date/Time of Collection", "type": "SDTM Dataset Variable"}, "rootItem": {"href": "/mdr/root/sdtmig/datasets/MK/variables/MKDTC", "title": "Version-agnostic anchor resource for SDTMIG variable MK.MKDTC", "type": "Root Data Element"}, "self": {"href": "/mdr/sdtmig/3-4/datasets/MK/variables/MKDTC", "title": "Date/Time of Collection", "type": "SDTM Dataset Variable"}}, "core": "Exp", "describedValueDomain": "ISO 8601 datetime or interval", "description": "Collection date and time of an observation.", "label": "Date/Time of Collection", "name": "MKDTC", "ordinal": "36", "role": "Timing", "simpleDatatype": "Char"}, {"_links": {"modelClassVariable": {"href": "/mdr/sdtm/2-0/classes/GeneralObservations/variables/--DY", "title": "Study Day of Visit/Collection/Exam", "type": "SDTM Class Variable"}, "parentDataset": {"href": "/mdr/sdtmig/3-4/datasets/MK", "title": "Musculoskeletal System Findings", "type": "SDTM Dataset"}, "parentProduct": {"href": "/mdr/sdtmig/3-4", "title": "Study Data Tabulation Model Implementation Guide: Human Clinical Trials", "type": "Implementation Guide"}, "priorVersion": {"href": "/mdr/sdtmig/3-3/datasets/MK/variables/MKDY", "title": "Study Day of Visit/Collection/Exam", "type": "SDTM Dataset Variable"}, "rootItem": {"href": "/mdr/root/sdtmig/datasets/MK/variables/MKDY", "title": "Version-agnostic anchor resource for SDTMIG variable MK.MKDY", "type": "Root Data Element"}, "self": {"href": "/mdr/sdtmig/3-4/datasets/MK/variables/MKDY", "title": "Study Day of Visit/Collection/Exam", "type": "SDTM Dataset Variable"}}, "core": "Perm", "description": "Actual study day of visit/collection/exam expressed in integer days relative to the sponsor-defined RFSTDTC in Demographics.", "label": "Study Day of Visit/Collection/Exam", "name": "MKDY", "ordinal": "37", "role": "Timing", "simpleDatatype": "Num"}, {"_links": {"modelClassVariable": {"href": "/mdr/sdtm/2-0/classes/GeneralObservations/variables/--TPT", "title": "Planned Time Point Name", "type": "SDTM Class Variable"}, "parentDataset": {"href": "/mdr/sdtmig/3-4/datasets/MK", "title": "Musculoskeletal System Findings", "type": "SDTM Dataset"}, "parentProduct": {"href": "/mdr/sdtmig/3-4", "title": "Study Data Tabulation Model Implementation Guide: Human Clinical Trials", "type": "Implementation Guide"}, "priorVersion": {"href": "/mdr/sdtmig/3-3/datasets/MK/variables/MKTPT", "title": "Planned Time Point Name", "type": "SDTM Dataset Variable"}, "rootItem": {"href": "/mdr/root/sdtmig/datasets/MK/variables/MKTPT", "title": "Version-agnostic anchor resource for SDTMIG variable MK.MKTPT", "type": "Root Data Element"}, "self": {"href": "/mdr/sdtmig/3-4/datasets/MK/variables/MKTPT", "title": "Planned Time Point Name", "type": "SDTM Dataset Variable"}}, "core": "Perm", "description": "Text description of time when a measurement or observation should be taken as defined in the protocol. This may be represented as an elapsed time relative to a fixed reference point, such as time of last dose. See MKTPTNUM and MKTPTREF.", "label": "Planned Time Point Name", "name": "MKTPT", "ordinal": "38", "role": "Timing", "simpleDatatype": "Char"}, {"_links": {"modelClassVariable": {"href": "/mdr/sdtm/2-0/classes/GeneralObservations/variables/--TPTNUM", "title": "Planned Time Point Number", "type": "SDTM Class Variable"}, "parentDataset": {"href": "/mdr/sdtmig/3-4/datasets/MK", "title": "Musculoskeletal System Findings", "type": "SDTM Dataset"}, "parentProduct": {"href": "/mdr/sdtmig/3-4", "title": "Study Data Tabulation Model Implementation Guide: Human Clinical Trials", "type": "Implementation Guide"}, "priorVersion": {"href": "/mdr/sdtmig/3-3/datasets/MK/variables/MKTPTNUM", "title": "Planned Time Point Number", "type": "SDTM Dataset Variable"}, "rootItem": {"href": "/mdr/root/sdtmig/datasets/MK/variables/MKTPTNUM", "title": "Version-agnostic anchor resource for SDTMIG variable MK.MKTPTNUM", "type": "Root Data Element"}, "self": {"href": "/mdr/sdtmig/3-4/datasets/MK/variables/MKTPTNUM", "title": "Planned Time Point Number", "type": "SDTM Dataset Variable"}}, "core": "Perm", "description": "Numeric version of planned time point used in sorting.", "label": "Planned Time Point Number", "name": "MKTPTNUM", "ordinal": "39", "role": "Timing", "simpleDatatype": "Num"}, {"_links": {"modelClassVariable": {"href": "/mdr/sdtm/2-0/classes/GeneralObservations/variables/--ELTM", "title": "Planned Elapsed Time from Time Point Ref", "type": "SDTM Class Variable"}, "parentDataset": {"href": "/mdr/sdtmig/3-4/datasets/MK", "title": "Musculoskeletal System Findings", "type": "SDTM Dataset"}, "parentProduct": {"href": "/mdr/sdtmig/3-4", "title": "Study Data Tabulation Model Implementation Guide: Human Clinical Trials", "type": "Implementation Guide"}, "priorVersion": {"href": "/mdr/sdtmig/3-3/datasets/MK/variables/MKELTM", "title": "Planned Elapsed Time from Time Point Ref", "type": "SDTM Dataset Variable"}, "rootItem": {"href": "/mdr/root/sdtmig/datasets/MK/variables/MKELTM", "title": "Version-agnostic anchor resource for SDTMIG variable MK.MKELTM", "type": "Root Data Element"}, "self": {"href": "/mdr/sdtmig/3-4/datasets/MK/variables/MKELTM", "title": "Planned Elapsed Time from Time Point Ref", "type": "SDTM Dataset Variable"}}, "core": "Perm", "describedValueDomain": "ISO 8601 duration", "description": "Planned Elapsed time relative to a planned fixed reference (MKTPTREF; e.g., \"PREVIOUS DOSE\", \"PREVIOUS MEAL\"). This variable is useful where there are repetitive measures. Not a clock time or a date/time variable, but an interval, represented as ISO duration.", "label": "Planned Elapsed Time from Time Point Ref", "name": "MKELTM", "ordinal": "40", "role": "Timing", "simpleDatatype": "Char"}, {"_links": {"modelClassVariable": {"href": "/mdr/sdtm/2-0/classes/GeneralObservations/variables/--TPTREF", "title": "Time Point Reference", "type": "SDTM Class Variable"}, "parentDataset": {"href": "/mdr/sdtmig/3-4/datasets/MK", "title": "Musculoskeletal System Findings", "type": "SDTM Dataset"}, "parentProduct": {"href": "/mdr/sdtmig/3-4", "title": "Study Data Tabulation Model Implementation Guide: Human Clinical Trials", "type": "Implementation Guide"}, "priorVersion": {"href": "/mdr/sdtmig/3-3/datasets/MK/variables/MKTPTREF", "title": "Time Point Reference", "type": "SDTM Dataset Variable"}, "rootItem": {"href": "/mdr/root/sdtmig/datasets/MK/variables/MKTPTREF", "title": "Version-agnostic anchor resource for SDTMIG variable MK.MKTPTREF", "type": "Root Data Element"}, "self": {"href": "/mdr/sdtmig/3-4/datasets/MK/variables/MKTPTREF", "title": "Time Point Reference", "type": "SDTM Dataset Variable"}}, "core": "Perm", "description": "Description of the fixed reference point referred to by MKELTM, MKTPTNUM, and MKTPT. Examples: \"PREVIOUS DOSE\", \"PREVIOUS MEAL\".", "label": "Time Point Reference", "name": "MKTPTREF", "ordinal": "41", "role": "Timing", "simpleDatatype": "Char"}, {"_links": {"modelClassVariable": {"href": "/mdr/sdtm/2-0/classes/GeneralObservations/variables/--RFTDTC", "title": "Date/Time of Reference Time Point", "type": "SDTM Class Variable"}, "parentDataset": {"href": "/mdr/sdtmig/3-4/datasets/MK", "title": "Musculoskeletal System Findings", "type": "SDTM Dataset"}, "parentProduct": {"href": "/mdr/sdtmig/3-4", "title": "Study Data Tabulation Model Implementation Guide: Human Clinical Trials", "type": "Implementation Guide"}, "priorVersion": {"href": "/mdr/sdtmig/3-3/datasets/MK/variables/MKRFTDTC", "title": "Date/Time of Reference Time Point", "type": "SDTM Dataset Variable"}, "rootItem": {"href": "/mdr/root/sdtmig/datasets/MK/variables/MKRFTDTC", "title": "Version-agnostic anchor resource for SDTMIG variable MK.MKRFTDTC", "type": "Root Data Element"}, "self": {"href": "/mdr/sdtmig/3-4/datasets/MK/variables/MKRFTDTC", "title": "Date/Time of Reference Time Point", "type": "SDTM Dataset Variable"}}, "core": "Perm", "describedValueDomain": "ISO 8601 datetime or interval", "description": "Date/time for a fixed reference time point defined by MKTPTREF.", "label": "Date/Time of Reference Time Point", "name": "MKRFTDTC", "ordinal": "42", "role": "Timing", "simpleDatatype": "Char"}], "description": "A findings domain that contains physiological and morphological findings related to the system of muscles, tendons, ligaments, bones, joints, and associated tissues.", "label": "Musculoskeletal System Findings", "name": "MK", "ordinal": "28"}
