{"_links": {"parentClass": {"href": "/mdr/sdtmig/3-4/classes/Findings", "title": "Findings", "type": "Class"}, "parentProduct": {"href": "/mdr/sdtmig/3-4", "title": "Study Data Tabulation Model Implementation Guide: Human Clinical Trials", "type": "Implementation Guide"}, "priorVersion": {"href": "/mdr/sdtmig/3-3/datasets/RP", "title": "Reproductive System Findings", "type": "SDTM Dataset"}, "self": {"href": "/mdr/sdtmig/3-4/datasets/RP", "title": "Reproductive System Findings", "type": "SDTM Dataset"}}, "datasetStructure": "One record per finding or result per time point per visit per subject", "datasetVariables": [{"_links": {"modelClassVariable": {"href": "/mdr/sdtm/2-0/classes/GeneralObservations/variables/STUDYID", "title": "Study Identifier", "type": "SDTM Class Variable"}, "parentDataset": {"href": "/mdr/sdtmig/3-4/datasets/RP", "title": "Reproductive System Findings", "type": "SDTM Dataset"}, "parentProduct": {"href": "/mdr/sdtmig/3-4", "title": "Study Data Tabulation Model Implementation Guide: Human Clinical Trials", "type": "Implementation Guide"}, "priorVersion": {"href": "/mdr/sdtmig/3-3/datasets/RP/variables/STUDYID", "title": "Study Identifier", "type": "SDTM Dataset Variable"}, "rootItem": {"href": "/mdr/root/sdtmig/datasets/RP/variables/STUDYID", "title": "Version-agnostic anchor resource for SDTMIG variable RP.STUDYID", "type": "Root Data Element"}, "self": {"href": "/mdr/sdtmig/3-4/datasets/RP/variables/STUDYID", "title": "Study Identifier", "type": "SDTM Dataset Variable"}}, "core": "Req", "description": "Unique identifier for a study.", "label": "Study Identifier", "name": "STUDYID", "ordinal": "1", "role": "Identifier", "simpleDatatype": "Char"}, {"_links": {"modelClassVariable": {"href": "/mdr/sdtm/2-0/classes/GeneralObservations/variables/DOMAIN", "title": "Domain Abbreviation", "type": "SDTM Class Variable"}, "parentDataset": {"href": "/mdr/sdtmig/3-4/datasets/RP", "title": "Reproductive System Findings", "type": "SDTM Dataset"}, "parentProduct": {"href": "/mdr/sdtmig/3-4", "title": "Study Data Tabulation Model Implementation Guide: Human Clinical Trials", "type": "Implementation Guide"}, "priorVersion": {"href": "/mdr/sdtmig/3-3/datasets/RP/variables/DOMAIN", "title": "Domain Abbreviation", "type": "SDTM Dataset Variable"}, "rootItem": {"href": "/mdr/root/sdtmig/datasets/RP/variables/DOMAIN", "title": "Version-agnostic anchor resource for SDTMIG variable RP.DOMAIN", "type": "Root Data Element"}, "self": {"href": "/mdr/sdtmig/3-4/datasets/RP/variables/DOMAIN", "title": "Domain Abbreviation", "type": "SDTM Dataset Variable"}}, "core": "Req", "description": "Two-character abbreviation for the domain.", "label": "Domain Abbreviation", "name": "DOMAIN", "ordinal": "2", "role": "Identifier", "simpleDatatype": "Char", "valueList": ["RP"]}, {"_links": {"modelClassVariable": {"href": "/mdr/sdtm/2-0/classes/GeneralObservations/variables/USUBJID", "title": "Unique Subject Identifier", "type": "SDTM Class Variable"}, "parentDataset": {"href": "/mdr/sdtmig/3-4/datasets/RP", "title": "Reproductive System Findings", "type": "SDTM Dataset"}, "parentProduct": {"href": "/mdr/sdtmig/3-4", "title": "Study Data Tabulation Model Implementation Guide: Human Clinical Trials", "type": "Implementation Guide"}, "priorVersion": {"href": "/mdr/sdtmig/3-3/datasets/RP/variables/USUBJID", "title": "Unique Subject Identifier", "type": "SDTM Dataset Variable"}, "rootItem": {"href": "/mdr/root/sdtmig/datasets/RP/variables/USUBJID", "title": "Version-agnostic anchor resource for SDTMIG variable RP.USUBJID", "type": "Root Data Element"}, "self": {"href": "/mdr/sdtmig/3-4/datasets/RP/variables/USUBJID", "title": "Unique Subject Identifier", "type": "SDTM Dataset Variable"}}, "core": "Req", "description": "Identifier used to uniquely identify a subject across all studies for all applications or submissions involving the product.", "label": "Unique Subject Identifier", "name": "USUBJID", "ordinal": "3", "role": "Identifier", "simpleDatatype": "Char"}, {"_links": {"modelClassVariable": {"href": "/mdr/sdtm/2-0/classes/GeneralObservations/variables/--SEQ", "title": "Sequence Number", "type": "SDTM Class Variable"}, "parentDataset": {"href": "/mdr/sdtmig/3-4/datasets/RP", "title": "Reproductive System Findings", "type": "SDTM Dataset"}, "parentProduct": {"href": "/mdr/sdtmig/3-4", "title": "Study Data Tabulation Model Implementation Guide: Human Clinical Trials", "type": "Implementation Guide"}, "priorVersion": {"href": "/mdr/sdtmig/3-3/datasets/RP/variables/RPSEQ", "title": "Sequence Number", "type": "SDTM Dataset Variable"}, "rootItem": {"href": "/mdr/root/sdtmig/datasets/RP/variables/RPSEQ", "title": "Version-agnostic anchor resource for SDTMIG variable RP.RPSEQ", "type": "Root Data Element"}, "self": {"href": "/mdr/sdtmig/3-4/datasets/RP/variables/RPSEQ", "title": "Sequence Number", "type": "SDTM Dataset Variable"}}, "core": "Req", "description": "Sequence number to ensure uniqueness of records within a dataset for a subject (or within a parameter, in the case of the Trial Summary domain). May be any valid number (including decimals) and does not have to start at 1.", "label": "Sequence Number", "name": "RPSEQ", "ordinal": "4", "role": "Identifier", "simpleDatatype": "Num"}, {"_links": {"modelClassVariable": {"href": "/mdr/sdtm/2-0/classes/GeneralObservations/variables/--GRPID", "title": "Group ID", "type": "SDTM Class Variable"}, "parentDataset": {"href": "/mdr/sdtmig/3-4/datasets/RP", "title": "Reproductive System Findings", "type": "SDTM Dataset"}, "parentProduct": {"href": "/mdr/sdtmig/3-4", "title": "Study Data Tabulation Model Implementation Guide: Human Clinical Trials", "type": "Implementation Guide"}, "priorVersion": {"href": "/mdr/sdtmig/3-3/datasets/RP/variables/RPGRPID", "title": "Group ID", "type": "SDTM Dataset Variable"}, "rootItem": {"href": "/mdr/root/sdtmig/datasets/RP/variables/RPGRPID", "title": "Version-agnostic anchor resource for SDTMIG variable RP.RPGRPID", "type": "Root Data Element"}, "self": {"href": "/mdr/sdtmig/3-4/datasets/RP/variables/RPGRPID", "title": "Group ID", "type": "SDTM Dataset Variable"}}, "core": "Perm", "description": "Optional group identifier, used to link together a block of related records within a subject in a domain. Also used to link together a block of related records in the Trial Summary dataset.", "label": "Group ID", "name": "RPGRPID", "ordinal": "5", "role": "Identifier", "simpleDatatype": "Char"}, {"_links": {"modelClassVariable": {"href": "/mdr/sdtm/2-0/classes/GeneralObservations/variables/--REFID", "title": "Reference ID", "type": "SDTM Class Variable"}, "parentDataset": {"href": "/mdr/sdtmig/3-4/datasets/RP", "title": "Reproductive System Findings", "type": "SDTM Dataset"}, "parentProduct": {"href": "/mdr/sdtmig/3-4", "title": "Study Data Tabulation Model Implementation Guide: Human Clinical Trials", "type": "Implementation Guide"}, "priorVersion": {"href": "/mdr/sdtmig/3-3/datasets/RP/variables/RPREFID", "title": "Reference ID", "type": "SDTM Dataset Variable"}, "rootItem": {"href": "/mdr/root/sdtmig/datasets/RP/variables/RPREFID", "title": "Version-agnostic anchor resource for SDTMIG variable RP.RPREFID", "type": "Root Data Element"}, "self": {"href": "/mdr/sdtmig/3-4/datasets/RP/variables/RPREFID", "title": "Reference ID", "type": "SDTM Dataset Variable"}}, "core": "Perm", "description": "Optional internal or external identifier (e.g., lab specimen ID, UUID for an ECG waveform or a medical image).", "label": "Reference ID", "name": "RPREFID", "ordinal": "6", "role": "Identifier", "simpleDatatype": "Char"}, {"_links": {"modelClassVariable": {"href": "/mdr/sdtm/2-0/classes/GeneralObservations/variables/--SPID", "title": "Sponsor-Defined Identifier", "type": "SDTM Class Variable"}, "parentDataset": {"href": "/mdr/sdtmig/3-4/datasets/RP", "title": "Reproductive System Findings", "type": "SDTM Dataset"}, "parentProduct": {"href": "/mdr/sdtmig/3-4", "title": "Study Data Tabulation Model Implementation Guide: Human Clinical Trials", "type": "Implementation Guide"}, "priorVersion": {"href": "/mdr/sdtmig/3-3/datasets/RP/variables/RPSPID", "title": "Sponsor-Defined Identifier", "type": "SDTM Dataset Variable"}, "rootItem": {"href": "/mdr/root/sdtmig/datasets/RP/variables/RPSPID", "title": "Version-agnostic anchor resource for SDTMIG variable RP.RPSPID", "type": "Root Data Element"}, "self": {"href": "/mdr/sdtmig/3-4/datasets/RP/variables/RPSPID", "title": "Sponsor-Defined Identifier", "type": "SDTM Dataset Variable"}}, "core": "Perm", "description": "Sponsor-defined identifier. Example: Preprinted line identifier on a CRF.", "label": "Sponsor-Defined Identifier", "name": "RPSPID", "ordinal": "7", "role": "Identifier", "simpleDatatype": "Char"}, {"_links": {"modelClassVariable": {"href": "/mdr/sdtm/2-0/classes/GeneralObservations/variables/--LNKID", "title": "Link ID", "type": "SDTM Class Variable"}, "parentDataset": {"href": "/mdr/sdtmig/3-4/datasets/RP", "title": "Reproductive System Findings", "type": "SDTM Dataset"}, "parentProduct": {"href": "/mdr/sdtmig/3-4", "title": "Study Data Tabulation Model Implementation Guide: Human Clinical Trials", "type": "Implementation Guide"}, "priorVersion": {"href": "/mdr/sdtmig/3-3/datasets/RP/variables/RPLNKID", "title": "Link ID", "type": "SDTM Dataset Variable"}, "rootItem": {"href": "/mdr/root/sdtmig/datasets/RP/variables/RPLNKID", "title": "Version-agnostic anchor resource for SDTMIG variable RP.RPLNKID", "type": "Root Data Element"}, "self": {"href": "/mdr/sdtmig/3-4/datasets/RP/variables/RPLNKID", "title": "Link ID", "type": "SDTM Dataset Variable"}}, "core": "Perm", "description": "Identifier used to link related records across domains. This may be a one-to-one or a one-to-many relationship.", "label": "Link ID", "name": "RPLNKID", "ordinal": "8", "role": "Identifier", "simpleDatatype": "Char"}, {"_links": {"modelClassVariable": {"href": "/mdr/sdtm/2-0/classes/GeneralObservations/variables/--LNKGRP", "title": "Link Group ID", "type": "SDTM Class Variable"}, "parentDataset": {"href": "/mdr/sdtmig/3-4/datasets/RP", "title": "Reproductive System Findings", "type": "SDTM Dataset"}, "parentProduct": {"href": "/mdr/sdtmig/3-4", "title": "Study Data Tabulation Model Implementation Guide: Human Clinical Trials", "type": "Implementation Guide"}, "priorVersion": {"href": "/mdr/sdtmig/3-3/datasets/RP/variables/RPLNKGRP", "title": "Link Group ID", "type": "SDTM Dataset Variable"}, "rootItem": {"href": "/mdr/root/sdtmig/datasets/RP/variables/RPLNKGRP", "title": "Version-agnostic anchor resource for SDTMIG variable RP.RPLNKGRP", "type": "Root Data Element"}, "self": {"href": "/mdr/sdtmig/3-4/datasets/RP/variables/RPLNKGRP", "title": "Link Group ID", "type": "SDTM Dataset Variable"}}, "core": "Perm", "description": "Identifier used to link related records across domains. This will usually be a many-to-one relationship.", "label": "Link Group ID", "name": "RPLNKGRP", "ordinal": "9", "role": "Identifier", "simpleDatatype": "Char"}, {"_links": {"codelist": [{"href": "/mdr/root/ct/sdtmct/codelists/C106479", "title": "Version-agnostic anchor resource for codelist C106479", "type": "Root Value Domain"}], "modelClassVariable": {"href": "/mdr/sdtm/2-0/classes/Findings/variables/--TESTCD", "title": "Short Name of Measurement, Test, or Exam", "type": "SDTM Class Variable"}, "parentDataset": {"href": "/mdr/sdtmig/3-4/datasets/RP", "title": "Reproductive System Findings", "type": "SDTM Dataset"}, "parentProduct": {"href": "/mdr/sdtmig/3-4", "title": "Study Data Tabulation Model Implementation Guide: Human Clinical Trials", "type": "Implementation Guide"}, "priorVersion": {"href": "/mdr/sdtmig/3-3/datasets/RP/variables/RPTESTCD", "title": "Short Name of Reproductive Test", "type": "SDTM Dataset Variable"}, "rootItem": {"href": "/mdr/root/sdtmig/datasets/RP/variables/RPTESTCD", "title": "Version-agnostic anchor resource for SDTMIG variable RP.RPTESTCD", "type": "Root Data Element"}, "self": {"href": "/mdr/sdtmig/3-4/datasets/RP/variables/RPTESTCD", "title": "Short Name of Reproductive Test", "type": "SDTM Dataset Variable"}}, "core": "Req", "description": "Short character value for RPTEST used as a column name when converting a dataset from a vertical format to a horizontal format. The short value can be up to 8 characters. Examples: \"CHILDPOT\", \"BCMETHOD\", \"MENARAGE\".", "label": "Short Name of Reproductive Test", "name": "RPTESTCD", "ordinal": "10", "role": "Topic", "simpleDatatype": "Char"}, {"_links": {"codelist": [{"href": "/mdr/root/ct/sdtmct/codelists/C106478", "title": "Version-agnostic anchor resource for codelist C106478", "type": "Root Value Domain"}], "modelClassVariable": {"href": "/mdr/sdtm/2-0/classes/Findings/variables/--TEST", "title": "Name of Measurement, Test, or Exam", "type": "SDTM Class Variable"}, "parentDataset": {"href": "/mdr/sdtmig/3-4/datasets/RP", "title": "Reproductive System Findings", "type": "SDTM Dataset"}, "parentProduct": {"href": "/mdr/sdtmig/3-4", "title": "Study Data Tabulation Model Implementation Guide: Human Clinical Trials", "type": "Implementation Guide"}, "priorVersion": {"href": "/mdr/sdtmig/3-3/datasets/RP/variables/RPTEST", "title": "Name of Reproductive Test", "type": "SDTM Dataset Variable"}, "rootItem": {"href": "/mdr/root/sdtmig/datasets/RP/variables/RPTEST", "title": "Version-agnostic anchor resource for SDTMIG variable RP.RPTEST", "type": "Root Data Element"}, "self": {"href": "/mdr/sdtmig/3-4/datasets/RP/variables/RPTEST", "title": "Name of Reproductive Test", "type": "SDTM Dataset Variable"}}, "core": "Req", "description": "Long name For RPTESTCD. Examples: \"Childbearing Potential\", \"Birth Control Method\", \"Menarche Age\".", "label": "Name of Reproductive Test", "name": "RPTEST", "ordinal": "11", "role": "Synonym Qualifier", "simpleDatatype": "Char"}, {"_links": {"modelClassVariable": {"href": "/mdr/sdtm/2-0/classes/Findings/variables/--CAT", "title": "Category", "type": "SDTM Class Variable"}, "parentDataset": {"href": "/mdr/sdtmig/3-4/datasets/RP", "title": "Reproductive System Findings", "type": "SDTM Dataset"}, "parentProduct": {"href": "/mdr/sdtmig/3-4", "title": "Study Data Tabulation Model Implementation Guide: Human Clinical Trials", "type": "Implementation Guide"}, "priorVersion": {"href": "/mdr/sdtmig/3-3/datasets/RP/variables/RPCAT", "title": "Category for Reproductive Test", "type": "SDTM Dataset Variable"}, "rootItem": {"href": "/mdr/root/sdtmig/datasets/RP/variables/RPCAT", "title": "Version-agnostic anchor resource for SDTMIG variable RP.RPCAT", "type": "Root Data Element"}, "self": {"href": "/mdr/sdtmig/3-4/datasets/RP/variables/RPCAT", "title": "Category for Reproductive Test", "type": "SDTM Dataset Variable"}}, "core": "Perm", "description": "Used to define a category of topic-variable values. Example: \"No use case to date, but values would be relative to reproduction tests grouping\".", "label": "Category for Reproductive Test", "name": "RPCAT", "ordinal": "12", "role": "Grouping Qualifier", "simpleDatatype": "Char"}, {"_links": {"modelClassVariable": {"href": "/mdr/sdtm/2-0/classes/Findings/variables/--SCAT", "title": "Subcategory", "type": "SDTM Class Variable"}, "parentDataset": {"href": "/mdr/sdtmig/3-4/datasets/RP", "title": "Reproductive System Findings", "type": "SDTM Dataset"}, "parentProduct": {"href": "/mdr/sdtmig/3-4", "title": "Study Data Tabulation Model Implementation Guide: Human Clinical Trials", "type": "Implementation Guide"}, "priorVersion": {"href": "/mdr/sdtmig/3-3/datasets/RP/variables/RPSCAT", "title": "Subcategory for Reproductive Test", "type": "SDTM Dataset Variable"}, "rootItem": {"href": "/mdr/root/sdtmig/datasets/RP/variables/RPSCAT", "title": "Version-agnostic anchor resource for SDTMIG variable RP.RPSCAT", "type": "Root Data Element"}, "self": {"href": "/mdr/sdtmig/3-4/datasets/RP/variables/RPSCAT", "title": "Subcategory for Reproductive Test", "type": "SDTM Dataset Variable"}}, "core": "Perm", "description": "Used to define a further categorization of RPCAT values. Example: \"No use case to date, but values would be relative to reproduction tests grouping\".", "label": "Subcategory for Reproductive Test", "name": "RPSCAT", "ordinal": "13", "role": "Grouping Qualifier", "simpleDatatype": "Char"}, {"_links": {"modelClassVariable": {"href": "/mdr/sdtm/2-0/classes/Findings/variables/--ORRES", "title": "Result or Finding in Original Units", "type": "SDTM Class Variable"}, "parentDataset": {"href": "/mdr/sdtmig/3-4/datasets/RP", "title": "Reproductive System Findings", "type": "SDTM Dataset"}, "parentProduct": {"href": "/mdr/sdtmig/3-4", "title": "Study Data Tabulation Model Implementation Guide: Human Clinical Trials", "type": "Implementation Guide"}, "priorVersion": {"href": "/mdr/sdtmig/3-3/datasets/RP/variables/RPORRES", "title": "Result or Finding in Original Units", "type": "SDTM Dataset Variable"}, "rootItem": {"href": "/mdr/root/sdtmig/datasets/RP/variables/RPORRES", "title": "Version-agnostic anchor resource for SDTMIG variable RP.RPORRES", "type": "Root Data Element"}, "self": {"href": "/mdr/sdtmig/3-4/datasets/RP/variables/RPORRES", "title": "Result or Finding in Original Units", "type": "SDTM Dataset Variable"}}, "core": "Exp", "description": "Result of the measurement or finding as originally received or collected. Examples: \"120\", \"<1\", \"POS\".", "label": "Result or Finding in Original Units", "name": "RPORRES", "ordinal": "14", "role": "Result Qualifier", "simpleDatatype": "Char"}, {"_links": {"codelist": [{"href": "/mdr/root/ct/sdtmct/codelists/C71620", "title": "Version-agnostic anchor resource for codelist C71620", "type": "Root Value Domain"}], "modelClassVariable": {"href": "/mdr/sdtm/2-0/classes/Findings/variables/--ORRESU", "title": "Original Units", "type": "SDTM Class Variable"}, "parentDataset": {"href": "/mdr/sdtmig/3-4/datasets/RP", "title": "Reproductive System Findings", "type": "SDTM Dataset"}, "parentProduct": {"href": "/mdr/sdtmig/3-4", "title": "Study Data Tabulation Model Implementation Guide: Human Clinical Trials", "type": "Implementation Guide"}, "priorVersion": {"href": "/mdr/sdtmig/3-3/datasets/RP/variables/RPORRESU", "title": "Original Units", "type": "SDTM Dataset Variable"}, "rootItem": {"href": "/mdr/root/sdtmig/datasets/RP/variables/RPORRESU", "title": "Version-agnostic anchor resource for SDTMIG variable RP.RPORRESU", "type": "Root Data Element"}, "self": {"href": "/mdr/sdtmig/3-4/datasets/RP/variables/RPORRESU", "title": "Original Units", "type": "SDTM Dataset Variable"}}, "core": "Perm", "description": "Unit for RPORRES. Examples: \"in\", \"LB\", \"kg/L\".", "label": "Original Units", "name": "RPORRESU", "ordinal": "15", "role": "Variable Qualifier", "simpleDatatype": "Char"}, {"_links": {"modelClassVariable": {"href": "/mdr/sdtm/2-0/classes/Findings/variables/--STRESC", "title": "Result or Finding in Standard Format", "type": "SDTM Class Variable"}, "parentDataset": {"href": "/mdr/sdtmig/3-4/datasets/RP", "title": "Reproductive System Findings", "type": "SDTM Dataset"}, "parentProduct": {"href": "/mdr/sdtmig/3-4", "title": "Study Data Tabulation Model Implementation Guide: Human Clinical Trials", "type": "Implementation Guide"}, "priorVersion": {"href": "/mdr/sdtmig/3-3/datasets/RP/variables/RPSTRESC", "title": "Character Result/Finding in Std Format", "type": "SDTM Dataset Variable"}, "rootItem": {"href": "/mdr/root/sdtmig/datasets/RP/variables/RPSTRESC", "title": "Version-agnostic anchor resource for SDTMIG variable RP.RPSTRESC", "type": "Root Data Element"}, "self": {"href": "/mdr/sdtmig/3-4/datasets/RP/variables/RPSTRESC", "title": "Character Result/Finding in Std Format", "type": "SDTM Dataset Variable"}}, "core": "Exp", "description": "Contains the result value for all findings copied or derived from RPORRES, in a standard format or in standard units. RPSTRESC should store all results or findings in character format; if results are numeric, they should also be stored in numeric format in RPSTRESN. For example, if various tests have results \"NONE\", \"NEG\", and \"NEGATIVE\" in RPORRES, and these results effectively have the same meaning, they could be represented in standard format in RPSTRESC as \"NEGATIVE\".", "label": "Character Result/Finding in Std Format", "name": "RPSTRESC", "ordinal": "16", "role": "Result Qualifier", "simpleDatatype": "Char"}, {"_links": {"modelClassVariable": {"href": "/mdr/sdtm/2-0/classes/Findings/variables/--STRESN", "title": "Numeric Result/Finding in Standard Units", "type": "SDTM Class Variable"}, "parentDataset": {"href": "/mdr/sdtmig/3-4/datasets/RP", "title": "Reproductive System Findings", "type": "SDTM Dataset"}, "parentProduct": {"href": "/mdr/sdtmig/3-4", "title": "Study Data Tabulation Model Implementation Guide: Human Clinical Trials", "type": "Implementation Guide"}, "priorVersion": {"href": "/mdr/sdtmig/3-3/datasets/RP/variables/RPSTRESN", "title": "Numeric Result/Finding in Standard Units", "type": "SDTM Dataset Variable"}, "rootItem": {"href": "/mdr/root/sdtmig/datasets/RP/variables/RPSTRESN", "title": "Version-agnostic anchor resource for SDTMIG variable RP.RPSTRESN", "type": "Root Data Element"}, "self": {"href": "/mdr/sdtmig/3-4/datasets/RP/variables/RPSTRESN", "title": "Numeric Result/Finding in Standard Units", "type": "SDTM Dataset Variable"}}, "core": "Perm", "description": "Used for continuous or numeric results or findings in standard format; copied in numeric format from RPSTRESC. RPSTRESN should store all numeric test results or findings.", "label": "Numeric Result/Finding in Standard Units", "name": "RPSTRESN", "ordinal": "17", "role": "Result Qualifier", "simpleDatatype": "Num"}, {"_links": {"codelist": [{"href": "/mdr/root/ct/sdtmct/codelists/C71620", "title": "Version-agnostic anchor resource for codelist C71620", "type": "Root Value Domain"}], "modelClassVariable": {"href": "/mdr/sdtm/2-0/classes/Findings/variables/--STRESU", "title": "Standard Units", "type": "SDTM Class Variable"}, "parentDataset": {"href": "/mdr/sdtmig/3-4/datasets/RP", "title": "Reproductive System Findings", "type": "SDTM Dataset"}, "parentProduct": {"href": "/mdr/sdtmig/3-4", "title": "Study Data Tabulation Model Implementation Guide: Human Clinical Trials", "type": "Implementation Guide"}, "priorVersion": {"href": "/mdr/sdtmig/3-3/datasets/RP/variables/RPSTRESU", "title": "Standard Units", "type": "SDTM Dataset Variable"}, "rootItem": {"href": "/mdr/root/sdtmig/datasets/RP/variables/RPSTRESU", "title": "Version-agnostic anchor resource for SDTMIG variable RP.RPSTRESU", "type": "Root Data Element"}, "self": {"href": "/mdr/sdtmig/3-4/datasets/RP/variables/RPSTRESU", "title": "Standard Units", "type": "SDTM Dataset Variable"}}, "core": "Perm", "description": "Standardized units used for RPSTRESC and RPSTRESN. Example: \"mol/L\".", "label": "Standard Units", "name": "RPSTRESU", "ordinal": "18", "role": "Variable Qualifier", "simpleDatatype": "Char"}, {"_links": {"codelist": [{"href": "/mdr/root/ct/sdtmct/codelists/C66789", "title": "Version-agnostic anchor resource for codelist C66789", "type": "Root Value Domain"}], "modelClassVariable": {"href": "/mdr/sdtm/2-0/classes/Findings/variables/--STAT", "title": "Completion Status", "type": "SDTM Class Variable"}, "parentDataset": {"href": "/mdr/sdtmig/3-4/datasets/RP", "title": "Reproductive System Findings", "type": "SDTM Dataset"}, "parentProduct": {"href": "/mdr/sdtmig/3-4", "title": "Study Data Tabulation Model Implementation Guide: Human Clinical Trials", "type": "Implementation Guide"}, "priorVersion": {"href": "/mdr/sdtmig/3-3/datasets/RP/variables/RPSTAT", "title": "Completion Status", "type": "SDTM Dataset Variable"}, "rootItem": {"href": "/mdr/root/sdtmig/datasets/RP/variables/RPSTAT", "title": "Version-agnostic anchor resource for SDTMIG variable RP.RPSTAT", "type": "Root Data Element"}, "self": {"href": "/mdr/sdtmig/3-4/datasets/RP/variables/RPSTAT", "title": "Completion Status", "type": "SDTM Dataset Variable"}}, "core": "Perm", "description": "Used to indicate that a question was not asked or a test was not done, or a test was attempted but did not generate a result. Should be null or have a value of \"NOT DONE\".", "label": "Completion Status", "name": "RPSTAT", "ordinal": "19", "role": "Record Qualifier", "simpleDatatype": "Char"}, {"_links": {"modelClassVariable": {"href": "/mdr/sdtm/2-0/classes/Findings/variables/--REASND", "title": "Reason Not Done", "type": "SDTM Class Variable"}, "parentDataset": {"href": "/mdr/sdtmig/3-4/datasets/RP", "title": "Reproductive System Findings", "type": "SDTM Dataset"}, "parentProduct": {"href": "/mdr/sdtmig/3-4", "title": "Study Data Tabulation Model Implementation Guide: Human Clinical Trials", "type": "Implementation Guide"}, "priorVersion": {"href": "/mdr/sdtmig/3-3/datasets/RP/variables/RPREASND", "title": "Reason Not Done", "type": "SDTM Dataset Variable"}, "rootItem": {"href": "/mdr/root/sdtmig/datasets/RP/variables/RPREASND", "title": "Version-agnostic anchor resource for SDTMIG variable RP.RPREASND", "type": "Root Data Element"}, "self": {"href": "/mdr/sdtmig/3-4/datasets/RP/variables/RPREASND", "title": "Reason Not Done", "type": "SDTM Dataset Variable"}}, "core": "Perm", "description": "Reason not done. Used in conjunction with RPSTAT when value is \"NOT DONE\".", "label": "Reason Not Done", "name": "RPREASND", "ordinal": "20", "role": "Record Qualifier", "simpleDatatype": "Char"}, {"_links": {"codelist": [{"href": "/mdr/root/ct/sdtmct/codelists/C66742", "title": "Version-agnostic anchor resource for codelist C66742", "type": "Root Value Domain"}], "modelClassVariable": {"href": "/mdr/sdtm/2-0/classes/Findings/variables/--LOBXFL", "title": "Last Observation Before Exposure Flag", "type": "SDTM Class Variable"}, "parentDataset": {"href": "/mdr/sdtmig/3-4/datasets/RP", "title": "Reproductive System Findings", "type": "SDTM Dataset"}, "parentProduct": {"href": "/mdr/sdtmig/3-4", "title": "Study Data Tabulation Model Implementation Guide: Human Clinical Trials", "type": "Implementation Guide"}, "priorVersion": {"href": "/mdr/sdtmig/3-3/datasets/RP/variables/RPLOBXFL", "title": "Last Observation Before Exposure Flag", "type": "SDTM Dataset Variable"}, "rootItem": {"href": "/mdr/root/sdtmig/datasets/RP/variables/RPLOBXFL", "title": "Version-agnostic anchor resource for SDTMIG variable RP.RPLOBXFL", "type": "Root Data Element"}, "self": {"href": "/mdr/sdtmig/3-4/datasets/RP/variables/RPLOBXFL", "title": "Last Observation Before Exposure Flag", "type": "SDTM Dataset Variable"}}, "core": "Perm", "description": "Operationally derived indicator used to identify the last non-missing value prior to RFXSTDTC. The value should be \"Y\" or null.", "label": "Last Observation Before Exposure Flag", "name": "RPLOBXFL", "ordinal": "21", "role": "Record Qualifier", "simpleDatatype": "Char"}, {"_links": {"codelist": [{"href": "/mdr/root/ct/sdtmct/codelists/C66742", "title": "Version-agnostic anchor resource for codelist C66742", "type": "Root Value Domain"}], "modelClassVariable": {"href": "/mdr/sdtm/2-0/classes/Findings/variables/--BLFL", "title": "Baseline Flag", "type": "SDTM Class Variable"}, "parentDataset": {"href": "/mdr/sdtmig/3-4/datasets/RP", "title": "Reproductive System Findings", "type": "SDTM Dataset"}, "parentProduct": {"href": "/mdr/sdtmig/3-4", "title": "Study Data Tabulation Model Implementation Guide: Human Clinical Trials", "type": "Implementation Guide"}, "priorVersion": {"href": "/mdr/sdtmig/3-3/datasets/RP/variables/RPBLFL", "title": "Baseline Flag", "type": "SDTM Dataset Variable"}, "rootItem": {"href": "/mdr/root/sdtmig/datasets/RP/variables/RPBLFL", "title": "Version-agnostic anchor resource for SDTMIG variable RP.RPBLFL", "type": "Root Data Element"}, "self": {"href": "/mdr/sdtmig/3-4/datasets/RP/variables/RPBLFL", "title": "Baseline Flag", "type": "SDTM Dataset Variable"}}, "core": "Perm", "description": "Indicator used to identify a baseline value. Should be \"Y\" or null. Note that RPBLFL is retained for backward compatibility. The authoritative baseline for statistical analysis is in an ADaM dataset.", "label": "Baseline Flag", "name": "RPBLFL", "ordinal": "22", "role": "Record Qualifier", "simpleDatatype": "Char"}, {"_links": {"codelist": [{"href": "/mdr/root/ct/sdtmct/codelists/C66742", "title": "Version-agnostic anchor resource for codelist C66742", "type": "Root Value Domain"}], "modelClassVariable": {"href": "/mdr/sdtm/2-0/classes/Findings/variables/--DRVFL", "title": "Derived Flag", "type": "SDTM Class Variable"}, "parentDataset": {"href": "/mdr/sdtmig/3-4/datasets/RP", "title": "Reproductive System Findings", "type": "SDTM Dataset"}, "parentProduct": {"href": "/mdr/sdtmig/3-4", "title": "Study Data Tabulation Model Implementation Guide: Human Clinical Trials", "type": "Implementation Guide"}, "priorVersion": {"href": "/mdr/sdtmig/3-3/datasets/RP/variables/RPDRVFL", "title": "Derived Flag", "type": "SDTM Dataset Variable"}, "rootItem": {"href": "/mdr/root/sdtmig/datasets/RP/variables/RPDRVFL", "title": "Version-agnostic anchor resource for SDTMIG variable RP.RPDRVFL", "type": "Root Data Element"}, "self": {"href": "/mdr/sdtmig/3-4/datasets/RP/variables/RPDRVFL", "title": "Derived Flag", "type": "SDTM Dataset Variable"}}, "core": "Perm", "description": "Used to indicate a derived record. The value should be \"Y\" or null. Records which represent the average of other records or which do not come from the CRF are examples of records that would be derived for the submission datasets. If RPDRVFL = \"Y\", then RPORRES may be null, with RPSTRESC and (if numeric) RPSTRESN having the derived value.", "label": "Derived Flag", "name": "RPDRVFL", "ordinal": "23", "role": "Record Qualifier", "simpleDatatype": "Char"}, {"_links": {"modelClassVariable": {"href": "/mdr/sdtm/2-0/classes/GeneralObservations/variables/VISITNUM", "title": "Visit Number", "type": "SDTM Class Variable"}, "parentDataset": {"href": "/mdr/sdtmig/3-4/datasets/RP", "title": "Reproductive System Findings", "type": "SDTM Dataset"}, "parentProduct": {"href": "/mdr/sdtmig/3-4", "title": "Study Data Tabulation Model Implementation Guide: Human Clinical Trials", "type": "Implementation Guide"}, "priorVersion": {"href": "/mdr/sdtmig/3-3/datasets/RP/variables/VISITNUM", "title": "Visit Number", "type": "SDTM Dataset Variable"}, "rootItem": {"href": "/mdr/root/sdtmig/datasets/RP/variables/VISITNUM", "title": "Version-agnostic anchor resource for SDTMIG variable RP.VISITNUM", "type": "Root Data Element"}, "self": {"href": "/mdr/sdtmig/3-4/datasets/RP/variables/VISITNUM", "title": "Visit Number", "type": "SDTM Dataset Variable"}}, "core": "Exp", "description": "Clinical encounter number. Numeric version of VISIT, used for sorting.", "label": "Visit Number", "name": "VISITNUM", "ordinal": "24", "role": "Timing", "simpleDatatype": "Num"}, {"_links": {"modelClassVariable": {"href": "/mdr/sdtm/2-0/classes/GeneralObservations/variables/VISIT", "title": "Visit Name", "type": "SDTM Class Variable"}, "parentDataset": {"href": "/mdr/sdtmig/3-4/datasets/RP", "title": "Reproductive System Findings", "type": "SDTM Dataset"}, "parentProduct": {"href": "/mdr/sdtmig/3-4", "title": "Study Data Tabulation Model Implementation Guide: Human Clinical Trials", "type": "Implementation Guide"}, "priorVersion": {"href": "/mdr/sdtmig/3-3/datasets/RP/variables/VISIT", "title": "Visit Name", "type": "SDTM Dataset Variable"}, "rootItem": {"href": "/mdr/root/sdtmig/datasets/RP/variables/VISIT", "title": "Version-agnostic anchor resource for SDTMIG variable RP.VISIT", "type": "Root Data Element"}, "self": {"href": "/mdr/sdtmig/3-4/datasets/RP/variables/VISIT", "title": "Visit Name", "type": "SDTM Dataset Variable"}}, "core": "Perm", "description": "Protocol-defined description of a clinical encounter.", "label": "Visit Name", "name": "VISIT", "ordinal": "25", "role": "Timing", "simpleDatatype": "Char"}, {"_links": {"modelClassVariable": {"href": "/mdr/sdtm/2-0/classes/GeneralObservations/variables/VISITDY", "title": "Planned Study Day of Visit", "type": "SDTM Class Variable"}, "parentDataset": {"href": "/mdr/sdtmig/3-4/datasets/RP", "title": "Reproductive System Findings", "type": "SDTM Dataset"}, "parentProduct": {"href": "/mdr/sdtmig/3-4", "title": "Study Data Tabulation Model Implementation Guide: Human Clinical Trials", "type": "Implementation Guide"}, "priorVersion": {"href": "/mdr/sdtmig/3-3/datasets/RP/variables/VISITDY", "title": "Planned Study Day of Visit", "type": "SDTM Dataset Variable"}, "rootItem": {"href": "/mdr/root/sdtmig/datasets/RP/variables/VISITDY", "title": "Version-agnostic anchor resource for SDTMIG variable RP.VISITDY", "type": "Root Data Element"}, "self": {"href": "/mdr/sdtmig/3-4/datasets/RP/variables/VISITDY", "title": "Planned Study Day of Visit", "type": "SDTM Dataset Variable"}}, "core": "Perm", "description": "Planned study day of VISIT. Should be an integer.", "label": "Planned Study Day of Visit", "name": "VISITDY", "ordinal": "26", "role": "Timing", "simpleDatatype": "Num"}, {"_links": {"modelClassVariable": {"href": "/mdr/sdtm/2-0/classes/GeneralObservations/variables/TAETORD", "title": "Planned Order of Element Within Arm", "type": "SDTM Class Variable"}, "parentDataset": {"href": "/mdr/sdtmig/3-4/datasets/RP", "title": "Reproductive System Findings", "type": "SDTM Dataset"}, "parentProduct": {"href": "/mdr/sdtmig/3-4", "title": "Study Data Tabulation Model Implementation Guide: Human Clinical Trials", "type": "Implementation Guide"}, "priorVersion": {"href": "/mdr/sdtmig/3-3/datasets/RP/variables/TAETORD", "title": "Planned Order of Element within Arm", "type": "SDTM Dataset Variable"}, "rootItem": {"href": "/mdr/root/sdtmig/datasets/RP/variables/TAETORD", "title": "Version-agnostic anchor resource for SDTMIG variable RP.TAETORD", "type": "Root Data Element"}, "self": {"href": "/mdr/sdtmig/3-4/datasets/RP/variables/TAETORD", "title": "Planned Order of Element within Arm", "type": "SDTM Dataset Variable"}}, "core": "Perm", "description": "Number that gives the planned order of the element within the arm for the element in which the assessment was made.", "label": "Planned Order of Element within Arm", "name": "TAETORD", "ordinal": "27", "role": "Timing", "simpleDatatype": "Num"}, {"_links": {"codelist": [{"href": "/mdr/root/ct/sdtmct/codelists/C99079", "title": "Version-agnostic anchor resource for codelist C99079", "type": "Root Value Domain"}], "modelClassVariable": {"href": "/mdr/sdtm/2-0/classes/GeneralObservations/variables/EPOCH", "title": "Epoch", "type": "SDTM Class Variable"}, "parentDataset": {"href": "/mdr/sdtmig/3-4/datasets/RP", "title": "Reproductive System Findings", "type": "SDTM Dataset"}, "parentProduct": {"href": "/mdr/sdtmig/3-4", "title": "Study Data Tabulation Model Implementation Guide: Human Clinical Trials", "type": "Implementation Guide"}, "priorVersion": {"href": "/mdr/sdtmig/3-3/datasets/RP/variables/EPOCH", "title": "Epoch", "type": "SDTM Dataset Variable"}, "rootItem": {"href": "/mdr/root/sdtmig/datasets/RP/variables/EPOCH", "title": "Version-agnostic anchor resource for SDTMIG variable RP.EPOCH", "type": "Root Data Element"}, "self": {"href": "/mdr/sdtmig/3-4/datasets/RP/variables/EPOCH", "title": "Epoch", "type": "SDTM Dataset Variable"}}, "core": "Perm", "description": "Epoch associated with the date/time at which the assessment was made.", "label": "Epoch", "name": "EPOCH", "ordinal": "28", "role": "Timing", "simpleDatatype": "Char"}, {"_links": {"modelClassVariable": {"href": "/mdr/sdtm/2-0/classes/GeneralObservations/variables/--DTC", "title": "Date/Time of Collection", "type": "SDTM Class Variable"}, "parentDataset": {"href": "/mdr/sdtmig/3-4/datasets/RP", "title": "Reproductive System Findings", "type": "SDTM Dataset"}, "parentProduct": {"href": "/mdr/sdtmig/3-4", "title": "Study Data Tabulation Model Implementation Guide: Human Clinical Trials", "type": "Implementation Guide"}, "priorVersion": {"href": "/mdr/sdtmig/3-3/datasets/RP/variables/RPDTC", "title": "Date/Time of Collection", "type": "SDTM Dataset Variable"}, "rootItem": {"href": "/mdr/root/sdtmig/datasets/RP/variables/RPDTC", "title": "Version-agnostic anchor resource for SDTMIG variable RP.RPDTC", "type": "Root Data Element"}, "self": {"href": "/mdr/sdtmig/3-4/datasets/RP/variables/RPDTC", "title": "Date/Time of Collection", "type": "SDTM Dataset Variable"}}, "core": "Exp", "describedValueDomain": "ISO 8601 datetime or interval", "description": "Collection date and time of an observation.", "label": "Date/Time of Collection", "name": "RPDTC", "ordinal": "29", "role": "Timing", "simpleDatatype": "Char"}, {"_links": {"modelClassVariable": {"href": "/mdr/sdtm/2-0/classes/GeneralObservations/variables/--DY", "title": "Study Day of Visit/Collection/Exam", "type": "SDTM Class Variable"}, "parentDataset": {"href": "/mdr/sdtmig/3-4/datasets/RP", "title": "Reproductive System Findings", "type": "SDTM Dataset"}, "parentProduct": {"href": "/mdr/sdtmig/3-4", "title": "Study Data Tabulation Model Implementation Guide: Human Clinical Trials", "type": "Implementation Guide"}, "priorVersion": {"href": "/mdr/sdtmig/3-3/datasets/RP/variables/RPDY", "title": "Study Day of Visit/Collection/Exam", "type": "SDTM Dataset Variable"}, "rootItem": {"href": "/mdr/root/sdtmig/datasets/RP/variables/RPDY", "title": "Version-agnostic anchor resource for SDTMIG variable RP.RPDY", "type": "Root Data Element"}, "self": {"href": "/mdr/sdtmig/3-4/datasets/RP/variables/RPDY", "title": "Study Day of Visit/Collection/Exam", "type": "SDTM Dataset Variable"}}, "core": "Perm", "description": "Actual study day of visit/collection/exam expressed in integer days relative to the sponsor-defined RFSTDTC in Demographics.", "label": "Study Day of Visit/Collection/Exam", "name": "RPDY", "ordinal": "30", "role": "Timing", "simpleDatatype": "Num"}, {"_links": {"modelClassVariable": {"href": "/mdr/sdtm/2-0/classes/GeneralObservations/variables/--DUR", "title": "Collected Duration", "type": "SDTM Class Variable"}, "parentDataset": {"href": "/mdr/sdtmig/3-4/datasets/RP", "title": "Reproductive System Findings", "type": "SDTM Dataset"}, "parentProduct": {"href": "/mdr/sdtmig/3-4", "title": "Study Data Tabulation Model Implementation Guide: Human Clinical Trials", "type": "Implementation Guide"}, "priorVersion": {"href": "/mdr/sdtmig/3-3/datasets/RP/variables/RPDUR", "title": "Duration", "type": "SDTM Dataset Variable"}, "rootItem": {"href": "/mdr/root/sdtmig/datasets/RP/variables/RPDUR", "title": "Version-agnostic anchor resource for SDTMIG variable RP.RPDUR", "type": "Root Data Element"}, "self": {"href": "/mdr/sdtmig/3-4/datasets/RP/variables/RPDUR", "title": "Duration", "type": "SDTM Dataset Variable"}}, "core": "Perm", "describedValueDomain": "ISO 8601 duration", "description": "Collected duration of an event, intervention, or finding represented in ISO 8601 character format. Used only if collected on the CRF and not derived.", "label": "Duration", "name": "RPDUR", "ordinal": "31", "role": "Timing", "simpleDatatype": "Char"}, {"_links": {"modelClassVariable": {"href": "/mdr/sdtm/2-0/classes/GeneralObservations/variables/--TPT", "title": "Planned Time Point Name", "type": "SDTM Class Variable"}, "parentDataset": {"href": "/mdr/sdtmig/3-4/datasets/RP", "title": "Reproductive System Findings", "type": "SDTM Dataset"}, "parentProduct": {"href": "/mdr/sdtmig/3-4", "title": "Study Data Tabulation Model Implementation Guide: Human Clinical Trials", "type": "Implementation Guide"}, "priorVersion": {"href": "/mdr/sdtmig/3-3/datasets/RP/variables/RPTPT", "title": "Planned Time Point Name", "type": "SDTM Dataset Variable"}, "rootItem": {"href": "/mdr/root/sdtmig/datasets/RP/variables/RPTPT", "title": "Version-agnostic anchor resource for SDTMIG variable RP.RPTPT", "type": "Root Data Element"}, "self": {"href": "/mdr/sdtmig/3-4/datasets/RP/variables/RPTPT", "title": "Planned Time Point Name", "type": "SDTM Dataset Variable"}}, "core": "Perm", "description": "Text description of time when a measurement or observation should be taken as defined in the protocol. This may be represented as an elapsed time relative to a fixed reference point, such as time of last dose.", "label": "Planned Time Point Name", "name": "RPTPT", "ordinal": "32", "role": "Timing", "simpleDatatype": "Char"}, {"_links": {"modelClassVariable": {"href": "/mdr/sdtm/2-0/classes/GeneralObservations/variables/--TPTNUM", "title": "Planned Time Point Number", "type": "SDTM Class Variable"}, "parentDataset": {"href": "/mdr/sdtmig/3-4/datasets/RP", "title": "Reproductive System Findings", "type": "SDTM Dataset"}, "parentProduct": {"href": "/mdr/sdtmig/3-4", "title": "Study Data Tabulation Model Implementation Guide: Human Clinical Trials", "type": "Implementation Guide"}, "priorVersion": {"href": "/mdr/sdtmig/3-3/datasets/RP/variables/RPTPTNUM", "title": "Planned Time Point Number", "type": "SDTM Dataset Variable"}, "rootItem": {"href": "/mdr/root/sdtmig/datasets/RP/variables/RPTPTNUM", "title": "Version-agnostic anchor resource for SDTMIG variable RP.RPTPTNUM", "type": "Root Data Element"}, "self": {"href": "/mdr/sdtmig/3-4/datasets/RP/variables/RPTPTNUM", "title": "Planned Time Point Number", "type": "SDTM Dataset Variable"}}, "core": "Perm", "description": "Numeric version of planned time point used in sorting.", "label": "Planned Time Point Number", "name": "RPTPTNUM", "ordinal": "33", "role": "Timing", "simpleDatatype": "Num"}, {"_links": {"modelClassVariable": {"href": "/mdr/sdtm/2-0/classes/GeneralObservations/variables/--ELTM", "title": "Planned Elapsed Time from Time Point Ref", "type": "SDTM Class Variable"}, "parentDataset": {"href": "/mdr/sdtmig/3-4/datasets/RP", "title": "Reproductive System Findings", "type": "SDTM Dataset"}, "parentProduct": {"href": "/mdr/sdtmig/3-4", "title": "Study Data Tabulation Model Implementation Guide: Human Clinical Trials", "type": "Implementation Guide"}, "priorVersion": {"href": "/mdr/sdtmig/3-3/datasets/RP/variables/RPELTM", "title": "Planned Elapsed Time from Time Point Ref", "type": "SDTM Dataset Variable"}, "rootItem": {"href": "/mdr/root/sdtmig/datasets/RP/variables/RPELTM", "title": "Version-agnostic anchor resource for SDTMIG variable RP.RPELTM", "type": "Root Data Element"}, "self": {"href": "/mdr/sdtmig/3-4/datasets/RP/variables/RPELTM", "title": "Planned Elapsed Time from Time Point Ref", "type": "SDTM Dataset Variable"}}, "core": "Perm", "describedValueDomain": "ISO 8601 duration", "description": "Planned elapsed time in ISO 8601 character format relative to a planned fixed reference (RPTPTREF; e.g., \"PREVIOUS DOSE\", \"PREVIOUS MEAL\"). This variable is useful where there are repetitive measures. Not a clock time or a date/time variable, but an interval, represented as ISO duration.", "label": "Planned Elapsed Time from Time Point Ref", "name": "RPELTM", "ordinal": "34", "role": "Timing", "simpleDatatype": "Char"}, {"_links": {"modelClassVariable": {"href": "/mdr/sdtm/2-0/classes/GeneralObservations/variables/--TPTREF", "title": "Time Point Reference", "type": "SDTM Class Variable"}, "parentDataset": {"href": "/mdr/sdtmig/3-4/datasets/RP", "title": "Reproductive System Findings", "type": "SDTM Dataset"}, "parentProduct": {"href": "/mdr/sdtmig/3-4", "title": "Study Data Tabulation Model Implementation Guide: Human Clinical Trials", "type": "Implementation Guide"}, "priorVersion": {"href": "/mdr/sdtmig/3-3/datasets/RP/variables/RPTPTREF", "title": "Time Point Reference", "type": "SDTM Dataset Variable"}, "rootItem": {"href": "/mdr/root/sdtmig/datasets/RP/variables/RPTPTREF", "title": "Version-agnostic anchor resource for SDTMIG variable RP.RPTPTREF", "type": "Root Data Element"}, "self": {"href": "/mdr/sdtmig/3-4/datasets/RP/variables/RPTPTREF", "title": "Time Point Reference", "type": "SDTM Dataset Variable"}}, "core": "Perm", "description": "Description of the fixed reference point referred to by RPELTM, RPTPTNUM, and RPTPT. Examples: \"PREVIOUS DOSE\", \"PREVIOUS MEAL\".", "label": "Time Point Reference", "name": "RPTPTREF", "ordinal": "35", "role": "Timing", "simpleDatatype": "Char"}, {"_links": {"modelClassVariable": {"href": "/mdr/sdtm/2-0/classes/GeneralObservations/variables/--RFTDTC", "title": "Date/Time of Reference Time Point", "type": "SDTM Class Variable"}, "parentDataset": {"href": "/mdr/sdtmig/3-4/datasets/RP", "title": "Reproductive System Findings", "type": "SDTM Dataset"}, "parentProduct": {"href": "/mdr/sdtmig/3-4", "title": "Study Data Tabulation Model Implementation Guide: Human Clinical Trials", "type": "Implementation Guide"}, "priorVersion": {"href": "/mdr/sdtmig/3-3/datasets/RP/variables/RPRFTDTC", "title": "Date/Time of Reference Time Point", "type": "SDTM Dataset Variable"}, "rootItem": {"href": "/mdr/root/sdtmig/datasets/RP/variables/RPRFTDTC", "title": "Version-agnostic anchor resource for SDTMIG variable RP.RPRFTDTC", "type": "Root Data Element"}, "self": {"href": "/mdr/sdtmig/3-4/datasets/RP/variables/RPRFTDTC", "title": "Date/Time of Reference Time Point", "type": "SDTM Dataset Variable"}}, "core": "Perm", "describedValueDomain": "ISO 8601 datetime or interval", "description": "Date/time for a fixed reference time point defined by RPTPTREF in ISO 8601 character format.", "label": "Date/Time of Reference Time Point", "name": "RPRFTDTC", "ordinal": "36", "role": "Timing", "simpleDatatype": "Char"}], "description": "A findings domain that contains physiological and morphological findings related to the male and female reproductive systems.", "label": "Reproductive System Findings", "name": "RP", "ordinal": "43"}
