{"_links": {"parentClass": {"href": "/mdr/sdtmig/3-1-2/classes/Events", "title": "Events Observation Class", "type": "Class"}, "parentProduct": {"href": "/mdr/sdtmig/3-1-2", "title": "Study Data Tabulation Model Implementation Guide: Human Clinical Trials Version 3.1.2 (Final)", "type": "Implementation Guide"}, "self": {"href": "/mdr/sdtmig/3-1-2/datasets/AE", "title": "Adverse Events", "type": "SDTM Dataset"}}, "datasetStructure": "One record per adverse event per subject", "datasetVariables": [{"_links": {"modelClassVariable": {"href": "/mdr/sdtm/1-2/classes/GeneralObservations/variables/STUDYID", "title": "Study Identifier", "type": "Class Variable"}, "parentDataset": {"href": "/mdr/sdtmig/3-1-2/datasets/AE", "title": "Adverse Events", "type": "SDTM Dataset"}, "parentProduct": {"href": "/mdr/sdtmig/3-1-2", "title": "Study Data Tabulation Model Implementation Guide: Human Clinical Trials Version 3.1.2 (Final)", "type": "Implementation Guide"}, "rootItem": {"href": "/mdr/root/sdtmig/datasets/AE/variables/STUDYID", "title": "Version-agnostic anchor resource for SDTMIG variable AE.STUDYID", "type": "Root Data Element"}, "self": {"href": "/mdr/sdtmig/3-1-2/datasets/AE/variables/STUDYID", "title": "Study Identifier", "type": "SDTM Dataset Variable"}}, "core": "Req", "description": "Unique identifier for a study.", "label": "Study Identifier", "name": "STUDYID", "ordinal": "1", "role": "Identifier", "simpleDatatype": "Char"}, {"_links": {"modelClassVariable": {"href": "/mdr/sdtm/1-2/classes/GeneralObservations/variables/DOMAIN", "title": "Domain Abbreviation", "type": "Class Variable"}, "parentDataset": {"href": "/mdr/sdtmig/3-1-2/datasets/AE", "title": "Adverse Events", "type": "SDTM Dataset"}, "parentProduct": {"href": "/mdr/sdtmig/3-1-2", "title": "Study Data Tabulation Model Implementation Guide: Human Clinical Trials Version 3.1.2 (Final)", "type": "Implementation Guide"}, "rootItem": {"href": "/mdr/root/sdtmig/datasets/AE/variables/DOMAIN", "title": "Version-agnostic anchor resource for SDTMIG variable AE.DOMAIN", "type": "Root Data Element"}, "self": {"href": "/mdr/sdtmig/3-1-2/datasets/AE/variables/DOMAIN", "title": "Domain Abbreviation", "type": "SDTM Dataset Variable"}}, "core": "Req", "description": "Two-character abbreviation for the domain.", "label": "Domain Abbreviation", "name": "DOMAIN", "ordinal": "2", "role": "Identifier", "simpleDatatype": "Char", "valueList": ["AE"]}, {"_links": {"modelClassVariable": {"href": "/mdr/sdtm/1-2/classes/GeneralObservations/variables/USUBJID", "title": "Unique Subject Identifier", "type": "Class Variable"}, "parentDataset": {"href": "/mdr/sdtmig/3-1-2/datasets/AE", "title": "Adverse Events", "type": "SDTM Dataset"}, "parentProduct": {"href": "/mdr/sdtmig/3-1-2", "title": "Study Data Tabulation Model Implementation Guide: Human Clinical Trials Version 3.1.2 (Final)", "type": "Implementation Guide"}, "rootItem": {"href": "/mdr/root/sdtmig/datasets/AE/variables/USUBJID", "title": "Version-agnostic anchor resource for SDTMIG variable AE.USUBJID", "type": "Root Data Element"}, "self": {"href": "/mdr/sdtmig/3-1-2/datasets/AE/variables/USUBJID", "title": "Unique Subject Identifier", "type": "SDTM Dataset Variable"}}, "core": "Req", "description": "Identifier used to uniquely identify a subject across all studies for all applications or submissions involving the product.", "label": "Unique Subject Identifier", "name": "USUBJID", "ordinal": "3", "role": "Identifier", "simpleDatatype": "Char"}, {"_links": {"modelClassVariable": {"href": "/mdr/sdtm/1-2/classes/GeneralObservations/variables/--SEQ", "title": "Sequence Number", "type": "Class Variable"}, "parentDataset": {"href": "/mdr/sdtmig/3-1-2/datasets/AE", "title": "Adverse Events", "type": "SDTM Dataset"}, "parentProduct": {"href": "/mdr/sdtmig/3-1-2", "title": "Study Data Tabulation Model Implementation Guide: Human Clinical Trials Version 3.1.2 (Final)", "type": "Implementation Guide"}, "rootItem": {"href": "/mdr/root/sdtmig/datasets/AE/variables/AESEQ", "title": "Version-agnostic anchor resource for SDTMIG variable AE.AESEQ", "type": "Root Data Element"}, "self": {"href": "/mdr/sdtmig/3-1-2/datasets/AE/variables/AESEQ", "title": "Sequence Number", "type": "SDTM Dataset Variable"}}, "core": "Req", "description": "Sequence Number given to ensure uniqueness of subject records within a domain. May be any valid number.", "label": "Sequence Number", "name": "AESEQ", "ordinal": "4", "role": "Identifier", "simpleDatatype": "Num"}, {"_links": {"modelClassVariable": {"href": "/mdr/sdtm/1-2/classes/GeneralObservations/variables/--GRPID", "title": "Group ID", "type": "Class Variable"}, "parentDataset": {"href": "/mdr/sdtmig/3-1-2/datasets/AE", "title": "Adverse Events", "type": "SDTM Dataset"}, "parentProduct": {"href": "/mdr/sdtmig/3-1-2", "title": "Study Data Tabulation Model Implementation Guide: Human Clinical Trials Version 3.1.2 (Final)", "type": "Implementation Guide"}, "rootItem": {"href": "/mdr/root/sdtmig/datasets/AE/variables/AEGRPID", "title": "Version-agnostic anchor resource for SDTMIG variable AE.AEGRPID", "type": "Root Data Element"}, "self": {"href": "/mdr/sdtmig/3-1-2/datasets/AE/variables/AEGRPID", "title": "Group ID", "type": "SDTM Dataset Variable"}}, "core": "Perm", "description": "Used to tie together a block of related records in a single domain for a subject.", "label": "Group ID", "name": "AEGRPID", "ordinal": "5", "role": "Identifier", "simpleDatatype": "Char"}, {"_links": {"modelClassVariable": {"href": "/mdr/sdtm/1-2/classes/GeneralObservations/variables/--REFID", "title": "Reference ID", "type": "Class Variable"}, "parentDataset": {"href": "/mdr/sdtmig/3-1-2/datasets/AE", "title": "Adverse Events", "type": "SDTM Dataset"}, "parentProduct": {"href": "/mdr/sdtmig/3-1-2", "title": "Study Data Tabulation Model Implementation Guide: Human Clinical Trials Version 3.1.2 (Final)", "type": "Implementation Guide"}, "rootItem": {"href": "/mdr/root/sdtmig/datasets/AE/variables/AEREFID", "title": "Version-agnostic anchor resource for SDTMIG variable AE.AEREFID", "type": "Root Data Element"}, "self": {"href": "/mdr/sdtmig/3-1-2/datasets/AE/variables/AEREFID", "title": "Reference ID", "type": "SDTM Dataset Variable"}}, "core": "Perm", "description": "Internal or external identifier such as a serial number on an SAE reporting form", "label": "Reference ID", "name": "AEREFID", "ordinal": "6", "role": "Identifier", "simpleDatatype": "Char"}, {"_links": {"modelClassVariable": {"href": "/mdr/sdtm/1-2/classes/GeneralObservations/variables/--SPID", "title": "Sponsor ID", "type": "Class Variable"}, "parentDataset": {"href": "/mdr/sdtmig/3-1-2/datasets/AE", "title": "Adverse Events", "type": "SDTM Dataset"}, "parentProduct": {"href": "/mdr/sdtmig/3-1-2", "title": "Study Data Tabulation Model Implementation Guide: Human Clinical Trials Version 3.1.2 (Final)", "type": "Implementation Guide"}, "rootItem": {"href": "/mdr/root/sdtmig/datasets/AE/variables/AESPID", "title": "Version-agnostic anchor resource for SDTMIG variable AE.AESPID", "type": "Root Data Element"}, "self": {"href": "/mdr/sdtmig/3-1-2/datasets/AE/variables/AESPID", "title": "Sponsor-Defined Identifier", "type": "SDTM Dataset Variable"}}, "core": "Perm", "description": "Sponsor-defined identifier. It may be pre-printed on the CRF as an explicit line identifier or defined in the sponsor's operational database. Example: Line number on an Adverse Events page.", "label": "Sponsor-Defined Identifier", "name": "AESPID", "ordinal": "7", "role": "Identifier", "simpleDatatype": "Char"}, {"_links": {"modelClassVariable": {"href": "/mdr/sdtm/1-2/classes/Events/variables/--TERM", "title": "Reported Term", "type": "Class Variable"}, "parentDataset": {"href": "/mdr/sdtmig/3-1-2/datasets/AE", "title": "Adverse Events", "type": "SDTM Dataset"}, "parentProduct": {"href": "/mdr/sdtmig/3-1-2", "title": "Study Data Tabulation Model Implementation Guide: Human Clinical Trials Version 3.1.2 (Final)", "type": "Implementation Guide"}, "rootItem": {"href": "/mdr/root/sdtmig/datasets/AE/variables/AETERM", "title": "Version-agnostic anchor resource for SDTMIG variable AE.AETERM", "type": "Root Data Element"}, "self": {"href": "/mdr/sdtmig/3-1-2/datasets/AE/variables/AETERM", "title": "Reported Term for the Adverse Event", "type": "SDTM Dataset Variable"}}, "core": "Req", "description": "Verbatim name of the event.", "label": "Reported Term for the Adverse Event", "name": "AETERM", "ordinal": "8", "role": "Topic", "simpleDatatype": "Char"}, {"_links": {"modelClassVariable": {"href": "/mdr/sdtm/1-2/classes/Events/variables/--MODIFY", "title": "Modified Reported Term", "type": "Class Variable"}, "parentDataset": {"href": "/mdr/sdtmig/3-1-2/datasets/AE", "title": "Adverse Events", "type": "SDTM Dataset"}, "parentProduct": {"href": "/mdr/sdtmig/3-1-2", "title": "Study Data Tabulation Model Implementation Guide: Human Clinical Trials Version 3.1.2 (Final)", "type": "Implementation Guide"}, "rootItem": {"href": "/mdr/root/sdtmig/datasets/AE/variables/AEMODIFY", "title": "Version-agnostic anchor resource for SDTMIG variable AE.AEMODIFY", "type": "Root Data Element"}, "self": {"href": "/mdr/sdtmig/3-1-2/datasets/AE/variables/AEMODIFY", "title": "Modified Reported Term", "type": "SDTM Dataset Variable"}}, "core": "Perm", "description": "If AETERM is modified to facilitate coding, then AEMODIFY will contain the modified text.", "label": "Modified Reported Term", "name": "AEMODIFY", "ordinal": "9", "role": "Synonym Qualifier", "simpleDatatype": "Char"}, {"_links": {"modelClassVariable": {"href": "/mdr/sdtm/1-2/classes/Events/variables/--DECOD", "title": "Dictionary-Derived Term", "type": "Class Variable"}, "parentDataset": {"href": "/mdr/sdtmig/3-1-2/datasets/AE", "title": "Adverse Events", "type": "SDTM Dataset"}, "parentProduct": {"href": "/mdr/sdtmig/3-1-2", "title": "Study Data Tabulation Model Implementation Guide: Human Clinical Trials Version 3.1.2 (Final)", "type": "Implementation Guide"}, "rootItem": {"href": "/mdr/root/sdtmig/datasets/AE/variables/AEDECOD", "title": "Version-agnostic anchor resource for SDTMIG variable AE.AEDECOD", "type": "Root Data Element"}, "self": {"href": "/mdr/sdtmig/3-1-2/datasets/AE/variables/AEDECOD", "title": "Dictionary-Derived Term", "type": "SDTM Dataset Variable"}}, "core": "Req", "description": "Dictionary-derived text description of AETERM or AEMODIFY. Equivalent to the Preferred Term (PT in MedDRA). The sponsor is expected to provide the dictionary name and version used to map the terms utilizing the define.xml external codelist attributes", "label": "Dictionary-Derived Term", "name": "AEDECOD", "ordinal": "10", "role": "Synonym Qualifier", "simpleDatatype": "Char"}, {"_links": {"modelClassVariable": {"href": "/mdr/sdtm/1-2/classes/Events/variables/--CAT", "title": "Category", "type": "Class Variable"}, "parentDataset": {"href": "/mdr/sdtmig/3-1-2/datasets/AE", "title": "Adverse Events", "type": "SDTM Dataset"}, "parentProduct": {"href": "/mdr/sdtmig/3-1-2", "title": "Study Data Tabulation Model Implementation Guide: Human Clinical Trials Version 3.1.2 (Final)", "type": "Implementation Guide"}, "rootItem": {"href": "/mdr/root/sdtmig/datasets/AE/variables/AECAT", "title": "Version-agnostic anchor resource for SDTMIG variable AE.AECAT", "type": "Root Data Element"}, "self": {"href": "/mdr/sdtmig/3-1-2/datasets/AE/variables/AECAT", "title": "Category for Adverse Event", "type": "SDTM Dataset Variable"}}, "core": "Perm", "description": "Used to define a category of related records. Example: BLEEDING, NEUROPSYCHIATRIC.", "label": "Category for Adverse Event", "name": "AECAT", "ordinal": "11", "role": "Grouping Qualifier", "simpleDatatype": "Char"}, {"_links": {"modelClassVariable": {"href": "/mdr/sdtm/1-2/classes/Events/variables/--SCAT", "title": "Subcategory", "type": "Class Variable"}, "parentDataset": {"href": "/mdr/sdtmig/3-1-2/datasets/AE", "title": "Adverse Events", "type": "SDTM Dataset"}, "parentProduct": {"href": "/mdr/sdtmig/3-1-2", "title": "Study Data Tabulation Model Implementation Guide: Human Clinical Trials Version 3.1.2 (Final)", "type": "Implementation Guide"}, "rootItem": {"href": "/mdr/root/sdtmig/datasets/AE/variables/AESCAT", "title": "Version-agnostic anchor resource for SDTMIG variable AE.AESCAT", "type": "Root Data Element"}, "self": {"href": "/mdr/sdtmig/3-1-2/datasets/AE/variables/AESCAT", "title": "Subcategory for Adverse Event", "type": "SDTM Dataset Variable"}}, "core": "Perm", "description": "A further categorization of adverse event. Example: NEUROLOGIC.", "label": "Subcategory for Adverse Event", "name": "AESCAT", "ordinal": "12", "role": "Grouping Qualifier", "simpleDatatype": "Char"}, {"_links": {"codelist": [{"href": "/mdr/root/ct/sdtmct/codelists/C66742", "title": "Version-agnostic anchor resource for codelist C66742", "type": "Root Value Domain"}], "modelClassVariable": {"href": "/mdr/sdtm/1-2/classes/Events/variables/--PRESP", "title": "Pre-specified", "type": "Class Variable"}, "parentDataset": {"href": "/mdr/sdtmig/3-1-2/datasets/AE", "title": "Adverse Events", "type": "SDTM Dataset"}, "parentProduct": {"href": "/mdr/sdtmig/3-1-2", "title": "Study Data Tabulation Model Implementation Guide: Human Clinical Trials Version 3.1.2 (Final)", "type": "Implementation Guide"}, "rootItem": {"href": "/mdr/root/sdtmig/datasets/AE/variables/AEPRESP", "title": "Version-agnostic anchor resource for SDTMIG variable AE.AEPRESP", "type": "Root Data Element"}, "self": {"href": "/mdr/sdtmig/3-1-2/datasets/AE/variables/AEPRESP", "title": "Pre-Specified Adverse Event", "type": "SDTM Dataset Variable"}}, "core": "Perm", "description": "A value of \"Y\" indicates that this adverse event was pre-specified on the CRF. Values are null for spontaneously reported events (i.e., those collected as free-text verbatim terms)", "label": "Pre-Specified Adverse Event", "name": "AEPRESP", "ordinal": "13", "role": "Record Qualifier", "simpleDatatype": "Char"}, {"_links": {"modelClassVariable": {"href": "/mdr/sdtm/1-2/classes/Events/variables/--BODSYS", "title": "Body System or Organ Class", "type": "Class Variable"}, "parentDataset": {"href": "/mdr/sdtmig/3-1-2/datasets/AE", "title": "Adverse Events", "type": "SDTM Dataset"}, "parentProduct": {"href": "/mdr/sdtmig/3-1-2", "title": "Study Data Tabulation Model Implementation Guide: Human Clinical Trials Version 3.1.2 (Final)", "type": "Implementation Guide"}, "rootItem": {"href": "/mdr/root/sdtmig/datasets/AE/variables/AEBODSYS", "title": "Version-agnostic anchor resource for SDTMIG variable AE.AEBODSYS", "type": "Root Data Element"}, "self": {"href": "/mdr/sdtmig/3-1-2/datasets/AE/variables/AEBODSYS", "title": "Body System or Organ Class", "type": "SDTM Dataset Variable"}}, "core": "Exp", "description": "Dictionary derived. Body system or organ class used by the sponsor from the coding dictionary (e.g., MedDRA). When using a multi-axial dictionary such as MedDRA, this should contain the SOC used for the sponsor's analyses and summary tables which may not necessarily be the primary SOC.", "label": "Body System or Organ Class", "name": "AEBODSYS", "ordinal": "14", "role": "Record Qualifier", "simpleDatatype": "Char"}, {"_links": {"codelist": [{"href": "/mdr/root/ct/sdtmct/codelists/C74456", "title": "Version-agnostic anchor resource for codelist C74456", "type": "Root Value Domain"}], "modelClassVariable": {"href": "/mdr/sdtm/1-2/classes/Events/variables/--LOC", "title": "Location of Event", "type": "Class Variable"}, "parentDataset": {"href": "/mdr/sdtmig/3-1-2/datasets/AE", "title": "Adverse Events", "type": "SDTM Dataset"}, "parentProduct": {"href": "/mdr/sdtmig/3-1-2", "title": "Study Data Tabulation Model Implementation Guide: Human Clinical Trials Version 3.1.2 (Final)", "type": "Implementation Guide"}, "rootItem": {"href": "/mdr/root/sdtmig/datasets/AE/variables/AELOC", "title": "Version-agnostic anchor resource for SDTMIG variable AE.AELOC", "type": "Root Data Element"}, "self": {"href": "/mdr/sdtmig/3-1-2/datasets/AE/variables/AELOC", "title": "Location of Event", "type": "SDTM Dataset Variable"}}, "core": "Perm", "description": "Describes anatomical location relevant for the event (e.g., LEFT ARM for skin rash).", "label": "Location of Event", "name": "AELOC", "ordinal": "15", "role": "Record Qualifier", "simpleDatatype": "Char"}, {"_links": {"codelist": [{"href": "/mdr/root/ct/sdtmct/codelists/C66769", "title": "Version-agnostic anchor resource for codelist C66769", "type": "Root Value Domain"}], "modelClassVariable": {"href": "/mdr/sdtm/1-2/classes/Events/variables/--SEV", "title": "Severity/Intensity", "type": "Class Variable"}, "parentDataset": {"href": "/mdr/sdtmig/3-1-2/datasets/AE", "title": "Adverse Events", "type": "SDTM Dataset"}, "parentProduct": {"href": "/mdr/sdtmig/3-1-2", "title": "Study Data Tabulation Model Implementation Guide: Human Clinical Trials Version 3.1.2 (Final)", "type": "Implementation Guide"}, "rootItem": {"href": "/mdr/root/sdtmig/datasets/AE/variables/AESEV", "title": "Version-agnostic anchor resource for SDTMIG variable AE.AESEV", "type": "Root Data Element"}, "self": {"href": "/mdr/sdtmig/3-1-2/datasets/AE/variables/AESEV", "title": "Severity/Intensity", "type": "SDTM Dataset Variable"}}, "core": "Perm", "description": "The severity or intensity of the event. Examples: MILD, MODERATE, SEVERE.", "label": "Severity/Intensity", "name": "AESEV", "ordinal": "16", "role": "Record Qualifier", "simpleDatatype": "Char"}, {"_links": {"codelist": [{"href": "/mdr/root/ct/sdtmct/codelists/C66742", "title": "Version-agnostic anchor resource for codelist C66742", "type": "Root Value Domain"}], "modelClassVariable": {"href": "/mdr/sdtm/1-2/classes/Events/variables/--SER", "title": "Serious Event", "type": "Class Variable"}, "parentDataset": {"href": "/mdr/sdtmig/3-1-2/datasets/AE", "title": "Adverse Events", "type": "SDTM Dataset"}, "parentProduct": {"href": "/mdr/sdtmig/3-1-2", "title": "Study Data Tabulation Model Implementation Guide: Human Clinical Trials Version 3.1.2 (Final)", "type": "Implementation Guide"}, "rootItem": {"href": "/mdr/root/sdtmig/datasets/AE/variables/AESER", "title": "Version-agnostic anchor resource for SDTMIG variable AE.AESER", "type": "Root Data Element"}, "self": {"href": "/mdr/sdtmig/3-1-2/datasets/AE/variables/AESER", "title": "Serious Event", "type": "SDTM Dataset Variable"}}, "core": "Exp", "description": "Is this a serious event?", "label": "Serious Event", "name": "AESER", "ordinal": "17", "role": "Record Qualifier", "simpleDatatype": "Char"}, {"_links": {"codelist": [{"href": "/mdr/root/ct/sdtmct/codelists/C66767", "title": "Version-agnostic anchor resource for codelist C66767", "type": "Root Value Domain"}], "modelClassVariable": {"href": "/mdr/sdtm/1-2/classes/Events/variables/--ACN", "title": "Action Taken with Study Treatment", "type": "Class Variable"}, "parentDataset": {"href": "/mdr/sdtmig/3-1-2/datasets/AE", "title": "Adverse Events", "type": "SDTM Dataset"}, "parentProduct": {"href": "/mdr/sdtmig/3-1-2", "title": "Study Data Tabulation Model Implementation Guide: Human Clinical Trials Version 3.1.2 (Final)", "type": "Implementation Guide"}, "rootItem": {"href": "/mdr/root/sdtmig/datasets/AE/variables/AEACN", "title": "Version-agnostic anchor resource for SDTMIG variable AE.AEACN", "type": "Root Data Element"}, "self": {"href": "/mdr/sdtmig/3-1-2/datasets/AE/variables/AEACN", "title": "Action Taken with Study Treatment", "type": "SDTM Dataset Variable"}}, "core": "Exp", "description": "Describes changes to the study treatment as a result of the event. AEACN is specifically for the relationship to study treatment. AEACNOTH is for actions unrelated to dose adjustments of study treatment. Examples of AEACN values include ICH E2B values: DRUG WITHDRAWN, DOSE REDUCED, DOSE INCREASED, DOSE NOT CHANGED, UNKNOWN or NOT APPLICABLE", "label": "Action Taken with Study Treatment", "name": "AEACN", "ordinal": "18", "role": "Record Qualifier", "simpleDatatype": "Char"}, {"_links": {"modelClassVariable": {"href": "/mdr/sdtm/1-2/classes/Events/variables/--ACNOTH", "title": "Other Action Taken", "type": "Class Variable"}, "parentDataset": {"href": "/mdr/sdtmig/3-1-2/datasets/AE", "title": "Adverse Events", "type": "SDTM Dataset"}, "parentProduct": {"href": "/mdr/sdtmig/3-1-2", "title": "Study Data Tabulation Model Implementation Guide: Human Clinical Trials Version 3.1.2 (Final)", "type": "Implementation Guide"}, "rootItem": {"href": "/mdr/root/sdtmig/datasets/AE/variables/AEACNOTH", "title": "Version-agnostic anchor resource for SDTMIG variable AE.AEACNOTH", "type": "Root Data Element"}, "self": {"href": "/mdr/sdtmig/3-1-2/datasets/AE/variables/AEACNOTH", "title": "Other Action Taken", "type": "SDTM Dataset Variable"}}, "core": "Perm", "description": "Describes other actions taken as a result of the event that are unrelated to dose adjustments of study treatment. Usually reported as free text. Example: \"TREATMENT UNBLINDED. PRIMARY CARE PHYSICIAN NOTIFIED.\"", "label": "Other Action Taken", "name": "AEACNOTH", "ordinal": "19", "role": "Record Qualifier", "simpleDatatype": "Char"}, {"_links": {"modelClassVariable": {"href": "/mdr/sdtm/1-2/classes/Events/variables/--REL", "title": "Causality", "type": "Class Variable"}, "parentDataset": {"href": "/mdr/sdtmig/3-1-2/datasets/AE", "title": "Adverse Events", "type": "SDTM Dataset"}, "parentProduct": {"href": "/mdr/sdtmig/3-1-2", "title": "Study Data Tabulation Model Implementation Guide: Human Clinical Trials Version 3.1.2 (Final)", "type": "Implementation Guide"}, "rootItem": {"href": "/mdr/root/sdtmig/datasets/AE/variables/AEREL", "title": "Version-agnostic anchor resource for SDTMIG variable AE.AEREL", "type": "Root Data Element"}, "self": {"href": "/mdr/sdtmig/3-1-2/datasets/AE/variables/AEREL", "title": "Causality", "type": "SDTM Dataset Variable"}}, "core": "Exp", "description": "Records the investigator's opinion as to the causality of the event to the treatment. ICH E2A and E2B examples include NOT RELATED, UNLIKELY RELATED, POSSIBLY RELATED, RELATED. Controlled Terminology may be defined in the future. Check with regulatory authority for population of this variable", "label": "Causality", "name": "AEREL", "ordinal": "20", "role": "Record Qualifier", "simpleDatatype": "Char"}, {"_links": {"modelClassVariable": {"href": "/mdr/sdtm/1-2/classes/Events/variables/--RELNST", "title": "Relationship to Non-Study Treatment", "type": "Class Variable"}, "parentDataset": {"href": "/mdr/sdtmig/3-1-2/datasets/AE", "title": "Adverse Events", "type": "SDTM Dataset"}, "parentProduct": {"href": "/mdr/sdtmig/3-1-2", "title": "Study Data Tabulation Model Implementation Guide: Human Clinical Trials Version 3.1.2 (Final)", "type": "Implementation Guide"}, "rootItem": {"href": "/mdr/root/sdtmig/datasets/AE/variables/AERELNST", "title": "Version-agnostic anchor resource for SDTMIG variable AE.AERELNST", "type": "Root Data Element"}, "self": {"href": "/mdr/sdtmig/3-1-2/datasets/AE/variables/AERELNST", "title": "Relationship to Non-Study Treatment", "type": "SDTM Dataset Variable"}}, "core": "Perm", "description": "Records the investigator's opinion as to whether the event may have been due to a treatment other than study drug. May be reported as free text. Example: \"MORE LIKELY RELATED TO ASPIRIN USE.\".", "label": "Relationship to Non-Study Treatment", "name": "AERELNST", "ordinal": "21", "role": "Record Qualifier", "simpleDatatype": "Char"}, {"_links": {"modelClassVariable": {"href": "/mdr/sdtm/1-2/classes/Events/variables/--PATT", "title": "Pattern of Event", "type": "Class Variable"}, "parentDataset": {"href": "/mdr/sdtmig/3-1-2/datasets/AE", "title": "Adverse Events", "type": "SDTM Dataset"}, "parentProduct": {"href": "/mdr/sdtmig/3-1-2", "title": "Study Data Tabulation Model Implementation Guide: Human Clinical Trials Version 3.1.2 (Final)", "type": "Implementation Guide"}, "rootItem": {"href": "/mdr/root/sdtmig/datasets/AE/variables/AEPATT", "title": "Version-agnostic anchor resource for SDTMIG variable AE.AEPATT", "type": "Root Data Element"}, "self": {"href": "/mdr/sdtmig/3-1-2/datasets/AE/variables/AEPATT", "title": "Pattern of Adverse Event", "type": "SDTM Dataset Variable"}}, "core": "Perm", "description": "Used to indicate the pattern of the event over time. Examples: INTERMITTENT, CONTINUOUS, SINGLE EVENT.", "label": "Pattern of Adverse Event", "name": "AEPATT", "ordinal": "22", "role": "Record Qualifier", "simpleDatatype": "Char"}, {"_links": {"codelist": [{"href": "/mdr/root/ct/sdtmct/codelists/C66768", "title": "Version-agnostic anchor resource for codelist C66768", "type": "Root Value Domain"}], "modelClassVariable": {"href": "/mdr/sdtm/1-2/classes/Events/variables/--OUT", "title": "Outcome of Event", "type": "Class Variable"}, "parentDataset": {"href": "/mdr/sdtmig/3-1-2/datasets/AE", "title": "Adverse Events", "type": "SDTM Dataset"}, "parentProduct": {"href": "/mdr/sdtmig/3-1-2", "title": "Study Data Tabulation Model Implementation Guide: Human Clinical Trials Version 3.1.2 (Final)", "type": "Implementation Guide"}, "rootItem": {"href": "/mdr/root/sdtmig/datasets/AE/variables/AEOUT", "title": "Version-agnostic anchor resource for SDTMIG variable AE.AEOUT", "type": "Root Data Element"}, "self": {"href": "/mdr/sdtmig/3-1-2/datasets/AE/variables/AEOUT", "title": "Outcome of Adverse Event", "type": "SDTM Dataset Variable"}}, "core": "Perm", "description": "Description of the outcome of an event.", "label": "Outcome of Adverse Event", "name": "AEOUT", "ordinal": "23", "role": "Record Qualifier", "simpleDatatype": "Char"}, {"_links": {"codelist": [{"href": "/mdr/root/ct/sdtmct/codelists/C66742", "title": "Version-agnostic anchor resource for codelist C66742", "type": "Root Value Domain"}], "modelClassVariable": {"href": "/mdr/sdtm/1-2/classes/Events/variables/--SCAN", "title": "Involves Cancer", "type": "Class Variable"}, "parentDataset": {"href": "/mdr/sdtmig/3-1-2/datasets/AE", "title": "Adverse Events", "type": "SDTM Dataset"}, "parentProduct": {"href": "/mdr/sdtmig/3-1-2", "title": "Study Data Tabulation Model Implementation Guide: Human Clinical Trials Version 3.1.2 (Final)", "type": "Implementation Guide"}, "rootItem": {"href": "/mdr/root/sdtmig/datasets/AE/variables/AESCAN", "title": "Version-agnostic anchor resource for SDTMIG variable AE.AESCAN", "type": "Root Data Element"}, "self": {"href": "/mdr/sdtmig/3-1-2/datasets/AE/variables/AESCAN", "title": "Involves Cancer", "type": "SDTM Dataset Variable"}}, "core": "Perm", "description": "Was the serious event associated with the development of cancer?", "label": "Involves Cancer", "name": "AESCAN", "ordinal": "24", "role": "Record Qualifier", "simpleDatatype": "Char"}, {"_links": {"codelist": [{"href": "/mdr/root/ct/sdtmct/codelists/C66742", "title": "Version-agnostic anchor resource for codelist C66742", "type": "Root Value Domain"}], "modelClassVariable": {"href": "/mdr/sdtm/1-2/classes/Events/variables/--SCONG", "title": "Congenital Anomaly or Birth Defect", "type": "Class Variable"}, "parentDataset": {"href": "/mdr/sdtmig/3-1-2/datasets/AE", "title": "Adverse Events", "type": "SDTM Dataset"}, "parentProduct": {"href": "/mdr/sdtmig/3-1-2", "title": "Study Data Tabulation Model Implementation Guide: Human Clinical Trials Version 3.1.2 (Final)", "type": "Implementation Guide"}, "rootItem": {"href": "/mdr/root/sdtmig/datasets/AE/variables/AESCONG", "title": "Version-agnostic anchor resource for SDTMIG variable AE.AESCONG", "type": "Root Data Element"}, "self": {"href": "/mdr/sdtmig/3-1-2/datasets/AE/variables/AESCONG", "title": "Congenital Anomaly or Birth Defect", "type": "SDTM Dataset Variable"}}, "core": "Perm", "description": "Was the serious event associated with congenital anomaly or birth defect?", "label": "Congenital Anomaly or Birth Defect", "name": "AESCONG", "ordinal": "25", "role": "Record Qualifier", "simpleDatatype": "Char"}, {"_links": {"codelist": [{"href": "/mdr/root/ct/sdtmct/codelists/C66742", "title": "Version-agnostic anchor resource for codelist C66742", "type": "Root Value Domain"}], "modelClassVariable": {"href": "/mdr/sdtm/1-2/classes/Events/variables/--SDISAB", "title": "Persist or Signif Disability/Incapacity", "type": "Class Variable"}, "parentDataset": {"href": "/mdr/sdtmig/3-1-2/datasets/AE", "title": "Adverse Events", "type": "SDTM Dataset"}, "parentProduct": {"href": "/mdr/sdtmig/3-1-2", "title": "Study Data Tabulation Model Implementation Guide: Human Clinical Trials Version 3.1.2 (Final)", "type": "Implementation Guide"}, "rootItem": {"href": "/mdr/root/sdtmig/datasets/AE/variables/AESDISAB", "title": "Version-agnostic anchor resource for SDTMIG variable AE.AESDISAB", "type": "Root Data Element"}, "self": {"href": "/mdr/sdtmig/3-1-2/datasets/AE/variables/AESDISAB", "title": "Persist or Signif Disability/Incapacity", "type": "SDTM Dataset Variable"}}, "core": "Perm", "description": "Did the serious event result in persistent or significant disability/incapacity?", "label": "Persist or Signif Disability/Incapacity", "name": "AESDISAB", "ordinal": "26", "role": "Record Qualifier", "simpleDatatype": "Char"}, {"_links": {"codelist": [{"href": "/mdr/root/ct/sdtmct/codelists/C66742", "title": "Version-agnostic anchor resource for codelist C66742", "type": "Root Value Domain"}], "modelClassVariable": {"href": "/mdr/sdtm/1-2/classes/Events/variables/--SDTH", "title": "Results in Death", "type": "Class Variable"}, "parentDataset": {"href": "/mdr/sdtmig/3-1-2/datasets/AE", "title": "Adverse Events", "type": "SDTM Dataset"}, "parentProduct": {"href": "/mdr/sdtmig/3-1-2", "title": "Study Data Tabulation Model Implementation Guide: Human Clinical Trials Version 3.1.2 (Final)", "type": "Implementation Guide"}, "rootItem": {"href": "/mdr/root/sdtmig/datasets/AE/variables/AESDTH", "title": "Version-agnostic anchor resource for SDTMIG variable AE.AESDTH", "type": "Root Data Element"}, "self": {"href": "/mdr/sdtmig/3-1-2/datasets/AE/variables/AESDTH", "title": "Results in Death", "type": "SDTM Dataset Variable"}}, "core": "Perm", "description": "Did the serious event result in death?", "label": "Results in Death", "name": "AESDTH", "ordinal": "27", "role": "Record Qualifier", "simpleDatatype": "Char"}, {"_links": {"codelist": [{"href": "/mdr/root/ct/sdtmct/codelists/C66742", "title": "Version-agnostic anchor resource for codelist C66742", "type": "Root Value Domain"}], "modelClassVariable": {"href": "/mdr/sdtm/1-2/classes/Events/variables/--SHOSP", "title": "Requires or Prolongs Hospitalization", "type": "Class Variable"}, "parentDataset": {"href": "/mdr/sdtmig/3-1-2/datasets/AE", "title": "Adverse Events", "type": "SDTM Dataset"}, "parentProduct": {"href": "/mdr/sdtmig/3-1-2", "title": "Study Data Tabulation Model Implementation Guide: Human Clinical Trials Version 3.1.2 (Final)", "type": "Implementation Guide"}, "rootItem": {"href": "/mdr/root/sdtmig/datasets/AE/variables/AESHOSP", "title": "Version-agnostic anchor resource for SDTMIG variable AE.AESHOSP", "type": "Root Data Element"}, "self": {"href": "/mdr/sdtmig/3-1-2/datasets/AE/variables/AESHOSP", "title": "Requires or Prolongs Hospitalization", "type": "SDTM Dataset Variable"}}, "core": "Perm", "description": "Did the serious event require or prolong hospitalization?", "label": "Requires or Prolongs Hospitalization", "name": "AESHOSP", "ordinal": "28", "role": "Record Qualifier", "simpleDatatype": "Char"}, {"_links": {"codelist": [{"href": "/mdr/root/ct/sdtmct/codelists/C66742", "title": "Version-agnostic anchor resource for codelist C66742", "type": "Root Value Domain"}], "modelClassVariable": {"href": "/mdr/sdtm/1-2/classes/Events/variables/--SLIFE", "title": "Is Life Threatening", "type": "Class Variable"}, "parentDataset": {"href": "/mdr/sdtmig/3-1-2/datasets/AE", "title": "Adverse Events", "type": "SDTM Dataset"}, "parentProduct": {"href": "/mdr/sdtmig/3-1-2", "title": "Study Data Tabulation Model Implementation Guide: Human Clinical Trials Version 3.1.2 (Final)", "type": "Implementation Guide"}, "rootItem": {"href": "/mdr/root/sdtmig/datasets/AE/variables/AESLIFE", "title": "Version-agnostic anchor resource for SDTMIG variable AE.AESLIFE", "type": "Root Data Element"}, "self": {"href": "/mdr/sdtmig/3-1-2/datasets/AE/variables/AESLIFE", "title": "Is Life Threatening", "type": "SDTM Dataset Variable"}}, "core": "Perm", "description": "Was the serious event life threatening?", "label": "Is Life Threatening", "name": "AESLIFE", "ordinal": "29", "role": "Record Qualifier", "simpleDatatype": "Char"}, {"_links": {"codelist": [{"href": "/mdr/root/ct/sdtmct/codelists/C66742", "title": "Version-agnostic anchor resource for codelist C66742", "type": "Root Value Domain"}], "modelClassVariable": {"href": "/mdr/sdtm/1-2/classes/Events/variables/--SOD", "title": "Occurred with Overdose", "type": "Class Variable"}, "parentDataset": {"href": "/mdr/sdtmig/3-1-2/datasets/AE", "title": "Adverse Events", "type": "SDTM Dataset"}, "parentProduct": {"href": "/mdr/sdtmig/3-1-2", "title": "Study Data Tabulation Model Implementation Guide: Human Clinical Trials Version 3.1.2 (Final)", "type": "Implementation Guide"}, "rootItem": {"href": "/mdr/root/sdtmig/datasets/AE/variables/AESOD", "title": "Version-agnostic anchor resource for SDTMIG variable AE.AESOD", "type": "Root Data Element"}, "self": {"href": "/mdr/sdtmig/3-1-2/datasets/AE/variables/AESOD", "title": "Occurred with Overdose", "type": "SDTM Dataset Variable"}}, "core": "Perm", "description": "Did the serious event occur with an overdose?", "label": "Occurred with Overdose", "name": "AESOD", "ordinal": "30", "role": "Record Qualifier", "simpleDatatype": "Char"}, {"_links": {"codelist": [{"href": "/mdr/root/ct/sdtmct/codelists/C66742", "title": "Version-agnostic anchor resource for codelist C66742", "type": "Root Value Domain"}], "modelClassVariable": {"href": "/mdr/sdtm/1-2/classes/Events/variables/--SMIE", "title": "Other Medically Important Serious Event", "type": "Class Variable"}, "parentDataset": {"href": "/mdr/sdtmig/3-1-2/datasets/AE", "title": "Adverse Events", "type": "SDTM Dataset"}, "parentProduct": {"href": "/mdr/sdtmig/3-1-2", "title": "Study Data Tabulation Model Implementation Guide: Human Clinical Trials Version 3.1.2 (Final)", "type": "Implementation Guide"}, "rootItem": {"href": "/mdr/root/sdtmig/datasets/AE/variables/AESMIE", "title": "Version-agnostic anchor resource for SDTMIG variable AE.AESMIE", "type": "Root Data Element"}, "self": {"href": "/mdr/sdtmig/3-1-2/datasets/AE/variables/AESMIE", "title": "Other Medically Important Serious Event", "type": "SDTM Dataset Variable"}}, "core": "Perm", "description": "Do additional categories for seriousness apply?", "label": "Other Medically Important Serious Event", "name": "AESMIE", "ordinal": "31", "role": "Record Qualifier", "simpleDatatype": "Char"}, {"_links": {"codelist": [{"href": "/mdr/root/ct/sdtmct/codelists/C66742", "title": "Version-agnostic anchor resource for codelist C66742", "type": "Root Value Domain"}], "modelClassVariable": {"href": "/mdr/sdtm/1-2/classes/Events/variables/--CONTRT", "title": "Concomitant or Additional Trtmnt Given", "type": "Class Variable"}, "parentDataset": {"href": "/mdr/sdtmig/3-1-2/datasets/AE", "title": "Adverse Events", "type": "SDTM Dataset"}, "parentProduct": {"href": "/mdr/sdtmig/3-1-2", "title": "Study Data Tabulation Model Implementation Guide: Human Clinical Trials Version 3.1.2 (Final)", "type": "Implementation Guide"}, "rootItem": {"href": "/mdr/root/sdtmig/datasets/AE/variables/AECONTRT", "title": "Version-agnostic anchor resource for SDTMIG variable AE.AECONTRT", "type": "Root Data Element"}, "self": {"href": "/mdr/sdtmig/3-1-2/datasets/AE/variables/AECONTRT", "title": "Concomitant or Additional Trtmnt Given", "type": "SDTM Dataset Variable"}}, "core": "Perm", "description": "Was another treatment given because of the occurrence of the event?", "label": "Concomitant or Additional Trtmnt Given", "name": "AECONTRT", "ordinal": "32", "role": "Record Qualifier", "simpleDatatype": "Char"}, {"_links": {"modelClassVariable": {"href": "/mdr/sdtm/1-2/classes/Events/variables/--TOXGR", "title": "Toxicity Grade", "type": "Class Variable"}, "parentDataset": {"href": "/mdr/sdtmig/3-1-2/datasets/AE", "title": "Adverse Events", "type": "SDTM Dataset"}, "parentProduct": {"href": "/mdr/sdtmig/3-1-2", "title": "Study Data Tabulation Model Implementation Guide: Human Clinical Trials Version 3.1.2 (Final)", "type": "Implementation Guide"}, "rootItem": {"href": "/mdr/root/sdtmig/datasets/AE/variables/AETOXGR", "title": "Version-agnostic anchor resource for SDTMIG variable AE.AETOXGR", "type": "Root Data Element"}, "self": {"href": "/mdr/sdtmig/3-1-2/datasets/AE/variables/AETOXGR", "title": "Standard Toxicity Grade", "type": "SDTM Dataset Variable"}}, "core": "Perm", "description": "Toxicity grade according to a standard toxicity scale such as Common Terminology Criteria for Adverse Events v3.0 (CTCAE). Sponsor should specify name of the scale and version used in the metadata (see Section 6.2.1.1, Assumption 6d). If value is from a numeric scale, represent only the number (e.g., \"2\" and not \"Grade 2\").", "label": "Standard Toxicity Grade", "name": "AETOXGR", "ordinal": "33", "role": "Record Qualifier", "simpleDatatype": "Char"}, {"_links": {"modelClassVariable": {"href": "/mdr/sdtm/1-2/classes/GeneralObservations/variables/--STDTC", "title": "Start Date/Time of Observation", "type": "Class Variable"}, "parentDataset": {"href": "/mdr/sdtmig/3-1-2/datasets/AE", "title": "Adverse Events", "type": "SDTM Dataset"}, "parentProduct": {"href": "/mdr/sdtmig/3-1-2", "title": "Study Data Tabulation Model Implementation Guide: Human Clinical Trials Version 3.1.2 (Final)", "type": "Implementation Guide"}, "rootItem": {"href": "/mdr/root/sdtmig/datasets/AE/variables/AESTDTC", "title": "Version-agnostic anchor resource for SDTMIG variable AE.AESTDTC", "type": "Root Data Element"}, "self": {"href": "/mdr/sdtmig/3-1-2/datasets/AE/variables/AESTDTC", "title": "Start Date/Time of Adverse Event", "type": "SDTM Dataset Variable"}}, "core": "Exp", "describedValueDomain": "ISO 8601", "label": "Start Date/Time of Adverse Event", "name": "AESTDTC", "ordinal": "34", "role": "Timing", "simpleDatatype": "Char"}, {"_links": {"modelClassVariable": {"href": "/mdr/sdtm/1-2/classes/GeneralObservations/variables/--ENDTC", "title": "End Date/Time of Observation", "type": "Class Variable"}, "parentDataset": {"href": "/mdr/sdtmig/3-1-2/datasets/AE", "title": "Adverse Events", "type": "SDTM Dataset"}, "parentProduct": {"href": "/mdr/sdtmig/3-1-2", "title": "Study Data Tabulation Model Implementation Guide: Human Clinical Trials Version 3.1.2 (Final)", "type": "Implementation Guide"}, "rootItem": {"href": "/mdr/root/sdtmig/datasets/AE/variables/AEENDTC", "title": "Version-agnostic anchor resource for SDTMIG variable AE.AEENDTC", "type": "Root Data Element"}, "self": {"href": "/mdr/sdtmig/3-1-2/datasets/AE/variables/AEENDTC", "title": "End Date/Time of Adverse Event", "type": "SDTM Dataset Variable"}}, "core": "Exp", "describedValueDomain": "ISO 8601", "label": "End Date/Time of Adverse Event", "name": "AEENDTC", "ordinal": "35", "role": "Timing", "simpleDatatype": "Char"}, {"_links": {"modelClassVariable": {"href": "/mdr/sdtm/1-2/classes/GeneralObservations/variables/--STDY", "title": "Study Day of Start of Observation", "type": "Class Variable"}, "parentDataset": {"href": "/mdr/sdtmig/3-1-2/datasets/AE", "title": "Adverse Events", "type": "SDTM Dataset"}, "parentProduct": {"href": "/mdr/sdtmig/3-1-2", "title": "Study Data Tabulation Model Implementation Guide: Human Clinical Trials Version 3.1.2 (Final)", "type": "Implementation Guide"}, "rootItem": {"href": "/mdr/root/sdtmig/datasets/AE/variables/AESTDY", "title": "Version-agnostic anchor resource for SDTMIG variable AE.AESTDY", "type": "Root Data Element"}, "self": {"href": "/mdr/sdtmig/3-1-2/datasets/AE/variables/AESTDY", "title": "Study Day of Start of Adverse Event", "type": "SDTM Dataset Variable"}}, "core": "Perm", "description": "Study day of start of adverse event relative to the sponsor-defined RFSTDTC.", "label": "Study Day of Start of Adverse Event", "name": "AESTDY", "ordinal": "36", "role": "Timing", "simpleDatatype": "Num"}, {"_links": {"modelClassVariable": {"href": "/mdr/sdtm/1-2/classes/GeneralObservations/variables/--ENDY", "title": "Study Day of End of Observation", "type": "Class Variable"}, "parentDataset": {"href": "/mdr/sdtmig/3-1-2/datasets/AE", "title": "Adverse Events", "type": "SDTM Dataset"}, "parentProduct": {"href": "/mdr/sdtmig/3-1-2", "title": "Study Data Tabulation Model Implementation Guide: Human Clinical Trials Version 3.1.2 (Final)", "type": "Implementation Guide"}, "rootItem": {"href": "/mdr/root/sdtmig/datasets/AE/variables/AEENDY", "title": "Version-agnostic anchor resource for SDTMIG variable AE.AEENDY", "type": "Root Data Element"}, "self": {"href": "/mdr/sdtmig/3-1-2/datasets/AE/variables/AEENDY", "title": "Study Day of End of Adverse Event", "type": "SDTM Dataset Variable"}}, "core": "Perm", "description": "Study day of end of event relative to the sponsor-defined RFSTDTC.", "label": "Study Day of End of Adverse Event", "name": "AEENDY", "ordinal": "37", "role": "Timing", "simpleDatatype": "Num"}, {"_links": {"modelClassVariable": {"href": "/mdr/sdtm/1-2/classes/GeneralObservations/variables/--DUR", "title": "Duration", "type": "Class Variable"}, "parentDataset": {"href": "/mdr/sdtmig/3-1-2/datasets/AE", "title": "Adverse Events", "type": "SDTM Dataset"}, "parentProduct": {"href": "/mdr/sdtmig/3-1-2", "title": "Study Data Tabulation Model Implementation Guide: Human Clinical Trials Version 3.1.2 (Final)", "type": "Implementation Guide"}, "rootItem": {"href": "/mdr/root/sdtmig/datasets/AE/variables/AEDUR", "title": "Version-agnostic anchor resource for SDTMIG variable AE.AEDUR", "type": "Root Data Element"}, "self": {"href": "/mdr/sdtmig/3-1-2/datasets/AE/variables/AEDUR", "title": "Duration of Adverse Event", "type": "SDTM Dataset Variable"}}, "core": "Perm", "describedValueDomain": "ISO 8601", "description": "Collected duration and unit of an adverse event. Used only if collected on the CRF and not derived from start and end date/times. Example: P1DT2H (for 1 day, 2 hours).", "label": "Duration of Adverse Event", "name": "AEDUR", "ordinal": "38", "role": "Timing", "simpleDatatype": "Char"}, {"_links": {"codelist": [{"href": "/mdr/root/ct/sdtmct/codelists/C66728", "title": "Version-agnostic anchor resource for codelist C66728", "type": "Root Value Domain"}], "modelClassVariable": {"href": "/mdr/sdtm/1-2/classes/GeneralObservations/variables/--ENRF", "title": "End Relative to Reference Period", "type": "Class Variable"}, "parentDataset": {"href": "/mdr/sdtmig/3-1-2/datasets/AE", "title": "Adverse Events", "type": "SDTM Dataset"}, "parentProduct": {"href": "/mdr/sdtmig/3-1-2", "title": "Study Data Tabulation Model Implementation Guide: Human Clinical Trials Version 3.1.2 (Final)", "type": "Implementation Guide"}, "rootItem": {"href": "/mdr/root/sdtmig/datasets/AE/variables/AEENRF", "title": "Version-agnostic anchor resource for SDTMIG variable AE.AEENRF", "type": "Root Data Element"}, "self": {"href": "/mdr/sdtmig/3-1-2/datasets/AE/variables/AEENRF", "title": "End Relative to Reference Period", "type": "SDTM Dataset Variable"}}, "core": "Perm", "description": "Describes the end of the event relative to the sponsor-defined reference period. The sponsor-defined reference period is a continuous period of time defined by a discrete starting point (RFSTDTC) and a discrete ending point (RFENDTC) of the trial.", "label": "End Relative to Reference Period", "name": "AEENRF", "ordinal": "39", "role": "Timing", "simpleDatatype": "Char"}, {"_links": {"modelClassVariable": {"href": "/mdr/sdtm/1-2/classes/GeneralObservations/variables/--ENRTPT", "title": "End Relative to Reference Time Point", "type": "Class Variable"}, "parentDataset": {"href": "/mdr/sdtmig/3-1-2/datasets/AE", "title": "Adverse Events", "type": "SDTM Dataset"}, "parentProduct": {"href": "/mdr/sdtmig/3-1-2", "title": "Study Data Tabulation Model Implementation Guide: Human Clinical Trials Version 3.1.2 (Final)", "type": "Implementation Guide"}, "rootItem": {"href": "/mdr/root/sdtmig/datasets/AE/variables/AEENRTPT", "title": "Version-agnostic anchor resource for SDTMIG variable AE.AEENRTPT", "type": "Root Data Element"}, "self": {"href": "/mdr/sdtmig/3-1-2/datasets/AE/variables/AEENRTPT", "title": "End Relative to Reference Time Point", "type": "SDTM Dataset Variable"}}, "core": "Perm", "description": "Identifies the end of the event as being before or after the reference time point defined by variable AEENTPT.", "label": "End Relative to Reference Time Point", "name": "AEENRTPT", "ordinal": "40", "role": "Timing", "simpleDatatype": "Char", "valueList": ["AFTER", "BEFORE", "COINCIDENT", "ONGOING", "U"]}, {"_links": {"modelClassVariable": {"href": "/mdr/sdtm/1-2/classes/GeneralObservations/variables/--ENTPT", "title": "End Reference Time Point", "type": "Class Variable"}, "parentDataset": {"href": "/mdr/sdtmig/3-1-2/datasets/AE", "title": "Adverse Events", "type": "SDTM Dataset"}, "parentProduct": {"href": "/mdr/sdtmig/3-1-2", "title": "Study Data Tabulation Model Implementation Guide: Human Clinical Trials Version 3.1.2 (Final)", "type": "Implementation Guide"}, "rootItem": {"href": "/mdr/root/sdtmig/datasets/AE/variables/AEENTPT", "title": "Version-agnostic anchor resource for SDTMIG variable AE.AEENTPT", "type": "Root Data Element"}, "self": {"href": "/mdr/sdtmig/3-1-2/datasets/AE/variables/AEENTPT", "title": "End Reference Time Point", "type": "SDTM Dataset Variable"}}, "core": "Perm", "description": "Description of date/time in ISO 8601 character format of the reference point referred to by AEENRTPT. Examples: \"2003-12-25\" or \"VISIT 2\".", "label": "End Reference Time Point", "name": "AEENTPT", "ordinal": "41", "role": "Timing", "simpleDatatype": "Char"}], "description": "An events domain that contains data describing untoward medical occurrences in a patient or subjects that are administered a pharmaceutical product and which may not necessarily have a causal relationship with the treatment. (Source: CDISC Controlled Terminology, DOMAIN, C49562, 2018-06-29)", "label": "Adverse Events", "name": "AE", "ordinal": "8"}
