{"_links": {"parentClass": {"href": "/mdr/sdtmig/3-1-2/classes/Events", "title": "Events Observation Class", "type": "Class"}, "parentProduct": {"href": "/mdr/sdtmig/3-1-2", "title": "Study Data Tabulation Model Implementation Guide: Human Clinical Trials Version 3.1.2 (Final)", "type": "Implementation Guide"}, "self": {"href": "/mdr/sdtmig/3-1-2/datasets/DS", "title": "Disposition", "type": "SDTM Dataset"}}, "datasetStructure": "One record per disposition status or protocol milestone per subject", "datasetVariables": [{"_links": {"modelClassVariable": {"href": "/mdr/sdtm/1-2/classes/GeneralObservations/variables/STUDYID", "title": "Study Identifier", "type": "Class Variable"}, "parentDataset": {"href": "/mdr/sdtmig/3-1-2/datasets/DS", "title": "Disposition", "type": "SDTM Dataset"}, "parentProduct": {"href": "/mdr/sdtmig/3-1-2", "title": "Study Data Tabulation Model Implementation Guide: Human Clinical Trials Version 3.1.2 (Final)", "type": "Implementation Guide"}, "rootItem": {"href": "/mdr/root/sdtmig/datasets/DS/variables/STUDYID", "title": "Version-agnostic anchor resource for SDTMIG variable DS.STUDYID", "type": "Root Data Element"}, "self": {"href": "/mdr/sdtmig/3-1-2/datasets/DS/variables/STUDYID", "title": "Study Identifier", "type": "SDTM Dataset Variable"}}, "core": "Req", "description": "Unique identifier for a study.", "label": "Study Identifier", "name": "STUDYID", "ordinal": "1", "role": "Identifier", "simpleDatatype": "Char"}, {"_links": {"modelClassVariable": {"href": "/mdr/sdtm/1-2/classes/GeneralObservations/variables/DOMAIN", "title": "Domain Abbreviation", "type": "Class Variable"}, "parentDataset": {"href": "/mdr/sdtmig/3-1-2/datasets/DS", "title": "Disposition", "type": "SDTM Dataset"}, "parentProduct": {"href": "/mdr/sdtmig/3-1-2", "title": "Study Data Tabulation Model Implementation Guide: Human Clinical Trials Version 3.1.2 (Final)", "type": "Implementation Guide"}, "rootItem": {"href": "/mdr/root/sdtmig/datasets/DS/variables/DOMAIN", "title": "Version-agnostic anchor resource for SDTMIG variable DS.DOMAIN", "type": "Root Data Element"}, "self": {"href": "/mdr/sdtmig/3-1-2/datasets/DS/variables/DOMAIN", "title": "Domain Abbreviation", "type": "SDTM Dataset Variable"}}, "core": "Req", "description": "Two-character abbreviation for the domain.", "label": "Domain Abbreviation", "name": "DOMAIN", "ordinal": "2", "role": "Identifier", "simpleDatatype": "Char", "valueList": ["DS"]}, {"_links": {"modelClassVariable": {"href": "/mdr/sdtm/1-2/classes/GeneralObservations/variables/USUBJID", "title": "Unique Subject Identifier", "type": "Class Variable"}, "parentDataset": {"href": "/mdr/sdtmig/3-1-2/datasets/DS", "title": "Disposition", "type": "SDTM Dataset"}, "parentProduct": {"href": "/mdr/sdtmig/3-1-2", "title": "Study Data Tabulation Model Implementation Guide: Human Clinical Trials Version 3.1.2 (Final)", "type": "Implementation Guide"}, "rootItem": {"href": "/mdr/root/sdtmig/datasets/DS/variables/USUBJID", "title": "Version-agnostic anchor resource for SDTMIG variable DS.USUBJID", "type": "Root Data Element"}, "self": {"href": "/mdr/sdtmig/3-1-2/datasets/DS/variables/USUBJID", "title": "Unique Subject Identifier", "type": "SDTM Dataset Variable"}}, "core": "Req", "description": "Identifier used to uniquely identify a subject across all studies for all applications or submissions involving the product.", "label": "Unique Subject Identifier", "name": "USUBJID", "ordinal": "3", "role": "Identifier", "simpleDatatype": "Char"}, {"_links": {"modelClassVariable": {"href": "/mdr/sdtm/1-2/classes/GeneralObservations/variables/--SEQ", "title": "Sequence Number", "type": "Class Variable"}, "parentDataset": {"href": "/mdr/sdtmig/3-1-2/datasets/DS", "title": "Disposition", "type": "SDTM Dataset"}, "parentProduct": {"href": "/mdr/sdtmig/3-1-2", "title": "Study Data Tabulation Model Implementation Guide: Human Clinical Trials Version 3.1.2 (Final)", "type": "Implementation Guide"}, "rootItem": {"href": "/mdr/root/sdtmig/datasets/DS/variables/DSSEQ", "title": "Version-agnostic anchor resource for SDTMIG variable DS.DSSEQ", "type": "Root Data Element"}, "self": {"href": "/mdr/sdtmig/3-1-2/datasets/DS/variables/DSSEQ", "title": "Sequence Number", "type": "SDTM Dataset Variable"}}, "core": "Req", "description": "Sequence Number given to ensure uniqueness of subject records within a domain. May be any valid number.", "label": "Sequence Number", "name": "DSSEQ", "ordinal": "4", "role": "Identifier", "simpleDatatype": "Num"}, {"_links": {"modelClassVariable": {"href": "/mdr/sdtm/1-2/classes/GeneralObservations/variables/--GRPID", "title": "Group ID", "type": "Class Variable"}, "parentDataset": {"href": "/mdr/sdtmig/3-1-2/datasets/DS", "title": "Disposition", "type": "SDTM Dataset"}, "parentProduct": {"href": "/mdr/sdtmig/3-1-2", "title": "Study Data Tabulation Model Implementation Guide: Human Clinical Trials Version 3.1.2 (Final)", "type": "Implementation Guide"}, "rootItem": {"href": "/mdr/root/sdtmig/datasets/DS/variables/DSGRPID", "title": "Version-agnostic anchor resource for SDTMIG variable DS.DSGRPID", "type": "Root Data Element"}, "self": {"href": "/mdr/sdtmig/3-1-2/datasets/DS/variables/DSGRPID", "title": "Group ID", "type": "SDTM Dataset Variable"}}, "core": "Perm", "description": "Used to tie together a block of related records in a single domain for a subject.", "label": "Group ID", "name": "DSGRPID", "ordinal": "5", "role": "Identifier", "simpleDatatype": "Char"}, {"_links": {"modelClassVariable": {"href": "/mdr/sdtm/1-2/classes/GeneralObservations/variables/--REFID", "title": "Reference ID", "type": "Class Variable"}, "parentDataset": {"href": "/mdr/sdtmig/3-1-2/datasets/DS", "title": "Disposition", "type": "SDTM Dataset"}, "parentProduct": {"href": "/mdr/sdtmig/3-1-2", "title": "Study Data Tabulation Model Implementation Guide: Human Clinical Trials Version 3.1.2 (Final)", "type": "Implementation Guide"}, "rootItem": {"href": "/mdr/root/sdtmig/datasets/DS/variables/DSREFID", "title": "Version-agnostic anchor resource for SDTMIG variable DS.DSREFID", "type": "Root Data Element"}, "self": {"href": "/mdr/sdtmig/3-1-2/datasets/DS/variables/DSREFID", "title": "Reference ID", "type": "SDTM Dataset Variable"}}, "core": "Perm", "description": "Internal or external identifier.", "label": "Reference ID", "name": "DSREFID", "ordinal": "6", "role": "Identifier", "simpleDatatype": "Char"}, {"_links": {"modelClassVariable": {"href": "/mdr/sdtm/1-2/classes/GeneralObservations/variables/--SPID", "title": "Sponsor ID", "type": "Class Variable"}, "parentDataset": {"href": "/mdr/sdtmig/3-1-2/datasets/DS", "title": "Disposition", "type": "SDTM Dataset"}, "parentProduct": {"href": "/mdr/sdtmig/3-1-2", "title": "Study Data Tabulation Model Implementation Guide: Human Clinical Trials Version 3.1.2 (Final)", "type": "Implementation Guide"}, "rootItem": {"href": "/mdr/root/sdtmig/datasets/DS/variables/DSSPID", "title": "Version-agnostic anchor resource for SDTMIG variable DS.DSSPID", "type": "Root Data Element"}, "self": {"href": "/mdr/sdtmig/3-1-2/datasets/DS/variables/DSSPID", "title": "Sponsor-Defined Identifier", "type": "SDTM Dataset Variable"}}, "core": "Perm", "description": "Sponsor-defined reference number. Perhaps pre-printed on the CRF as an explicit line identifier or defined in the sponsor's operational database. Example: Line number on a Disposition page.", "label": "Sponsor-Defined Identifier", "name": "DSSPID", "ordinal": "7", "role": "Identifier", "simpleDatatype": "Char"}, {"_links": {"modelClassVariable": {"href": "/mdr/sdtm/1-2/classes/Events/variables/--TERM", "title": "Reported Term", "type": "Class Variable"}, "parentDataset": {"href": "/mdr/sdtmig/3-1-2/datasets/DS", "title": "Disposition", "type": "SDTM Dataset"}, "parentProduct": {"href": "/mdr/sdtmig/3-1-2", "title": "Study Data Tabulation Model Implementation Guide: Human Clinical Trials Version 3.1.2 (Final)", "type": "Implementation Guide"}, "rootItem": {"href": "/mdr/root/sdtmig/datasets/DS/variables/DSTERM", "title": "Version-agnostic anchor resource for SDTMIG variable DS.DSTERM", "type": "Root Data Element"}, "self": {"href": "/mdr/sdtmig/3-1-2/datasets/DS/variables/DSTERM", "title": "Reported Term for the Disposition Event", "type": "SDTM Dataset Variable"}}, "core": "Req", "description": "Verbatim name of the event or protocol milestone. Some terms in DSTERM will match DSDECOD, but others, such as \"Subject moved\" will map to controlled terminology in DSDECOD, such as \"LOST TO FOLLOW-UP.\"", "label": "Reported Term for the Disposition Event", "name": "DSTERM", "ordinal": "8", "role": "Topic", "simpleDatatype": "Char"}, {"_links": {"codelist": [{"href": "/mdr/root/ct/sdtmct/codelists/C66727", "title": "Version-agnostic anchor resource for codelist C66727", "type": "Root Value Domain"}], "modelClassVariable": {"href": "/mdr/sdtm/1-2/classes/Events/variables/--DECOD", "title": "Dictionary-Derived Term", "type": "Class Variable"}, "parentDataset": {"href": "/mdr/sdtmig/3-1-2/datasets/DS", "title": "Disposition", "type": "SDTM Dataset"}, "parentProduct": {"href": "/mdr/sdtmig/3-1-2", "title": "Study Data Tabulation Model Implementation Guide: Human Clinical Trials Version 3.1.2 (Final)", "type": "Implementation Guide"}, "rootItem": {"href": "/mdr/root/sdtmig/datasets/DS/variables/DSDECOD", "title": "Version-agnostic anchor resource for SDTMIG variable DS.DSDECOD", "type": "Root Data Element"}, "self": {"href": "/mdr/sdtmig/3-1-2/datasets/DS/variables/DSDECOD", "title": "Standardized Disposition Term", "type": "SDTM Dataset Variable"}}, "core": "Req", "description": "Controlled terminology for the name of disposition event or protocol milestone. Examples of protocol milestones: INFORMED CONSENT OBTAINED, RANDOMIZED", "label": "Standardized Disposition Term", "name": "DSDECOD", "ordinal": "9", "role": "Synonym Qualifier", "simpleDatatype": "Char"}, {"_links": {"codelist": [{"href": "/mdr/root/ct/sdtmct/codelists/C74558", "title": "Version-agnostic anchor resource for codelist C74558", "type": "Root Value Domain"}], "modelClassVariable": {"href": "/mdr/sdtm/1-2/classes/Events/variables/--CAT", "title": "Category", "type": "Class Variable"}, "parentDataset": {"href": "/mdr/sdtmig/3-1-2/datasets/DS", "title": "Disposition", "type": "SDTM Dataset"}, "parentProduct": {"href": "/mdr/sdtmig/3-1-2", "title": "Study Data Tabulation Model Implementation Guide: Human Clinical Trials Version 3.1.2 (Final)", "type": "Implementation Guide"}, "rootItem": {"href": "/mdr/root/sdtmig/datasets/DS/variables/DSCAT", "title": "Version-agnostic anchor resource for SDTMIG variable DS.DSCAT", "type": "Root Data Element"}, "self": {"href": "/mdr/sdtmig/3-1-2/datasets/DS/variables/DSCAT", "title": "Category for Disposition Event", "type": "SDTM Dataset Variable"}}, "core": "Exp", "description": "Used to define a category of related records. DSCAT is now an \"Expected\" variable. DSCAT was permissible in SDTMIG 3.1.1 and earlier versions. The change from \"permissible\" to \"expected\" is based on the requirement to distinguish protocol milestones and/or other events from disposition events. DSCAT may be null if there are only \"disposition events\"; however, it is recommended that DSCAT always be populated.", "label": "Category for Disposition Event", "name": "DSCAT", "ordinal": "10", "role": "Grouping Qualifier", "simpleDatatype": "Char"}, {"_links": {"modelClassVariable": {"href": "/mdr/sdtm/1-2/classes/Events/variables/--SCAT", "title": "Subcategory", "type": "Class Variable"}, "parentDataset": {"href": "/mdr/sdtmig/3-1-2/datasets/DS", "title": "Disposition", "type": "SDTM Dataset"}, "parentProduct": {"href": "/mdr/sdtmig/3-1-2", "title": "Study Data Tabulation Model Implementation Guide: Human Clinical Trials Version 3.1.2 (Final)", "type": "Implementation Guide"}, "rootItem": {"href": "/mdr/root/sdtmig/datasets/DS/variables/DSSCAT", "title": "Version-agnostic anchor resource for SDTMIG variable DS.DSSCAT", "type": "Root Data Element"}, "self": {"href": "/mdr/sdtmig/3-1-2/datasets/DS/variables/DSSCAT", "title": "Subcategory for Disposition Event", "type": "SDTM Dataset Variable"}}, "core": "Perm", "description": "A further categorization of disposition event.", "label": "Subcategory for Disposition Event", "name": "DSSCAT", "ordinal": "11", "role": "Grouping Qualifier", "simpleDatatype": "Char"}, {"_links": {"modelClassVariable": {"href": "/mdr/sdtm/1-2/classes/GeneralObservations/variables/EPOCH", "title": "Epoch", "type": "Class Variable"}, "parentDataset": {"href": "/mdr/sdtmig/3-1-2/datasets/DS", "title": "Disposition", "type": "SDTM Dataset"}, "parentProduct": {"href": "/mdr/sdtmig/3-1-2", "title": "Study Data Tabulation Model Implementation Guide: Human Clinical Trials Version 3.1.2 (Final)", "type": "Implementation Guide"}, "rootItem": {"href": "/mdr/root/sdtmig/datasets/DS/variables/EPOCH", "title": "Version-agnostic anchor resource for SDTMIG variable DS.EPOCH", "type": "Root Data Element"}, "self": {"href": "/mdr/sdtmig/3-1-2/datasets/DS/variables/EPOCH", "title": "Epoch", "type": "SDTM Dataset Variable"}}, "core": "Perm", "description": "EPOCH may be used when DSCAT = \"DISPOSITION EVENT\". Examples: SCREENING, TREATMENT PHASE, FOLLOW-UP", "label": "Epoch", "name": "EPOCH", "ordinal": "12", "role": "Timing", "simpleDatatype": "Char"}, {"_links": {"modelClassVariable": {"href": "/mdr/sdtm/1-2/classes/GeneralObservations/variables/--DTC", "title": "Date/Time of Collection", "type": "Class Variable"}, "parentDataset": {"href": "/mdr/sdtmig/3-1-2/datasets/DS", "title": "Disposition", "type": "SDTM Dataset"}, "parentProduct": {"href": "/mdr/sdtmig/3-1-2", "title": "Study Data Tabulation Model Implementation Guide: Human Clinical Trials Version 3.1.2 (Final)", "type": "Implementation Guide"}, "rootItem": {"href": "/mdr/root/sdtmig/datasets/DS/variables/DSDTC", "title": "Version-agnostic anchor resource for SDTMIG variable DS.DSDTC", "type": "Root Data Element"}, "self": {"href": "/mdr/sdtmig/3-1-2/datasets/DS/variables/DSDTC", "title": "Date/Time of Collection", "type": "SDTM Dataset Variable"}}, "core": "Perm", "describedValueDomain": "ISO 8601", "label": "Date/Time of Collection", "name": "DSDTC", "ordinal": "13", "role": "Timing", "simpleDatatype": "Char"}, {"_links": {"modelClassVariable": {"href": "/mdr/sdtm/1-2/classes/GeneralObservations/variables/--STDTC", "title": "Start Date/Time of Observation", "type": "Class Variable"}, "parentDataset": {"href": "/mdr/sdtmig/3-1-2/datasets/DS", "title": "Disposition", "type": "SDTM Dataset"}, "parentProduct": {"href": "/mdr/sdtmig/3-1-2", "title": "Study Data Tabulation Model Implementation Guide: Human Clinical Trials Version 3.1.2 (Final)", "type": "Implementation Guide"}, "rootItem": {"href": "/mdr/root/sdtmig/datasets/DS/variables/DSSTDTC", "title": "Version-agnostic anchor resource for SDTMIG variable DS.DSSTDTC", "type": "Root Data Element"}, "self": {"href": "/mdr/sdtmig/3-1-2/datasets/DS/variables/DSSTDTC", "title": "Start Date/Time of Disposition Event", "type": "SDTM Dataset Variable"}}, "core": "Exp", "describedValueDomain": "ISO 8601", "label": "Start Date/Time of Disposition Event", "name": "DSSTDTC", "ordinal": "14", "role": "Timing", "simpleDatatype": "Char"}, {"_links": {"modelClassVariable": {"href": "/mdr/sdtm/1-2/classes/GeneralObservations/variables/--STDY", "title": "Study Day of Start of Observation", "type": "Class Variable"}, "parentDataset": {"href": "/mdr/sdtmig/3-1-2/datasets/DS", "title": "Disposition", "type": "SDTM Dataset"}, "parentProduct": {"href": "/mdr/sdtmig/3-1-2", "title": "Study Data Tabulation Model Implementation Guide: Human Clinical Trials Version 3.1.2 (Final)", "type": "Implementation Guide"}, "rootItem": {"href": "/mdr/root/sdtmig/datasets/DS/variables/DSSTDY", "title": "Version-agnostic anchor resource for SDTMIG variable DS.DSSTDY", "type": "Root Data Element"}, "self": {"href": "/mdr/sdtmig/3-1-2/datasets/DS/variables/DSSTDY", "title": "Study Day of Start of Disposition Event", "type": "SDTM Dataset Variable"}}, "core": "Perm", "description": "Study day of start of event relative to the sponsor-defined RFSTDTC.", "label": "Study Day of Start of Disposition Event", "name": "DSSTDY", "ordinal": "15", "role": "Timing", "simpleDatatype": "Num"}], "description": "An events domain that contains information encompassing and representing data related to subject disposition. (Source: CDISC Controlled Terminology, DOMAIN, C49576, 2018-06-29)", "label": "Disposition", "name": "DS", "ordinal": "9"}
