{"_links": {"parentClass": {"href": "/mdr/sdtmig/3-1-2/classes/Interventions", "title": "Interventions Observation Class", "type": "Class"}, "parentProduct": {"href": "/mdr/sdtmig/3-1-2", "title": "Study Data Tabulation Model Implementation Guide: Human Clinical Trials Version 3.1.2 (Final)", "type": "Implementation Guide"}, "self": {"href": "/mdr/sdtmig/3-1-2/datasets/EX", "title": "Exposure", "type": "SDTM Dataset"}}, "datasetStructure": "One record per constant dosing interval per subject", "datasetVariables": [{"_links": {"modelClassVariable": {"href": "/mdr/sdtm/1-2/classes/GeneralObservations/variables/STUDYID", "title": "Study Identifier", "type": "Class Variable"}, "parentDataset": {"href": "/mdr/sdtmig/3-1-2/datasets/EX", "title": "Exposure", "type": "SDTM Dataset"}, "parentProduct": {"href": "/mdr/sdtmig/3-1-2", "title": "Study Data Tabulation Model Implementation Guide: Human Clinical Trials Version 3.1.2 (Final)", "type": "Implementation Guide"}, "rootItem": {"href": "/mdr/root/sdtmig/datasets/EX/variables/STUDYID", "title": "Version-agnostic anchor resource for SDTMIG variable EX.STUDYID", "type": "Root Data Element"}, "self": {"href": "/mdr/sdtmig/3-1-2/datasets/EX/variables/STUDYID", "title": "Study Identifier", "type": "SDTM Dataset Variable"}}, "core": "Req", "description": "Unique identifier for a study.", "label": "Study Identifier", "name": "STUDYID", "ordinal": "1", "role": "Identifier", "simpleDatatype": "Char"}, {"_links": {"modelClassVariable": {"href": "/mdr/sdtm/1-2/classes/GeneralObservations/variables/DOMAIN", "title": "Domain Abbreviation", "type": "Class Variable"}, "parentDataset": {"href": "/mdr/sdtmig/3-1-2/datasets/EX", "title": "Exposure", "type": "SDTM Dataset"}, "parentProduct": {"href": "/mdr/sdtmig/3-1-2", "title": "Study Data Tabulation Model Implementation Guide: Human Clinical Trials Version 3.1.2 (Final)", "type": "Implementation Guide"}, "rootItem": {"href": "/mdr/root/sdtmig/datasets/EX/variables/DOMAIN", "title": "Version-agnostic anchor resource for SDTMIG variable EX.DOMAIN", "type": "Root Data Element"}, "self": {"href": "/mdr/sdtmig/3-1-2/datasets/EX/variables/DOMAIN", "title": "Domain Abbreviation", "type": "SDTM Dataset Variable"}}, "core": "Req", "description": "Two-character abbreviation for the domain.", "label": "Domain Abbreviation", "name": "DOMAIN", "ordinal": "2", "role": "Identifier", "simpleDatatype": "Char", "valueList": ["EX"]}, {"_links": {"modelClassVariable": {"href": "/mdr/sdtm/1-2/classes/GeneralObservations/variables/USUBJID", "title": "Unique Subject Identifier", "type": "Class Variable"}, "parentDataset": {"href": "/mdr/sdtmig/3-1-2/datasets/EX", "title": "Exposure", "type": "SDTM Dataset"}, "parentProduct": {"href": "/mdr/sdtmig/3-1-2", "title": "Study Data Tabulation Model Implementation Guide: Human Clinical Trials Version 3.1.2 (Final)", "type": "Implementation Guide"}, "rootItem": {"href": "/mdr/root/sdtmig/datasets/EX/variables/USUBJID", "title": "Version-agnostic anchor resource for SDTMIG variable EX.USUBJID", "type": "Root Data Element"}, "self": {"href": "/mdr/sdtmig/3-1-2/datasets/EX/variables/USUBJID", "title": "Unique Subject Identifier", "type": "SDTM Dataset Variable"}}, "core": "Req", "description": "Identifier used to uniquely identify a subject across all studies for all applications or submissions involving the product.", "label": "Unique Subject Identifier", "name": "USUBJID", "ordinal": "3", "role": "Identifier", "simpleDatatype": "Char"}, {"_links": {"modelClassVariable": {"href": "/mdr/sdtm/1-2/classes/GeneralObservations/variables/--SEQ", "title": "Sequence Number", "type": "Class Variable"}, "parentDataset": {"href": "/mdr/sdtmig/3-1-2/datasets/EX", "title": "Exposure", "type": "SDTM Dataset"}, "parentProduct": {"href": "/mdr/sdtmig/3-1-2", "title": "Study Data Tabulation Model Implementation Guide: Human Clinical Trials Version 3.1.2 (Final)", "type": "Implementation Guide"}, "rootItem": {"href": "/mdr/root/sdtmig/datasets/EX/variables/EXSEQ", "title": "Version-agnostic anchor resource for SDTMIG variable EX.EXSEQ", "type": "Root Data Element"}, "self": {"href": "/mdr/sdtmig/3-1-2/datasets/EX/variables/EXSEQ", "title": "Sequence Number", "type": "SDTM Dataset Variable"}}, "core": "Req", "description": "Sequence Number given to ensure uniqueness of subject records within a domain. May be any valid number.", "label": "Sequence Number", "name": "EXSEQ", "ordinal": "4", "role": "Identifier", "simpleDatatype": "Num"}, {"_links": {"modelClassVariable": {"href": "/mdr/sdtm/1-2/classes/GeneralObservations/variables/--GRPID", "title": "Group ID", "type": "Class Variable"}, "parentDataset": {"href": "/mdr/sdtmig/3-1-2/datasets/EX", "title": "Exposure", "type": "SDTM Dataset"}, "parentProduct": {"href": "/mdr/sdtmig/3-1-2", "title": "Study Data Tabulation Model Implementation Guide: Human Clinical Trials Version 3.1.2 (Final)", "type": "Implementation Guide"}, "rootItem": {"href": "/mdr/root/sdtmig/datasets/EX/variables/EXGRPID", "title": "Version-agnostic anchor resource for SDTMIG variable EX.EXGRPID", "type": "Root Data Element"}, "self": {"href": "/mdr/sdtmig/3-1-2/datasets/EX/variables/EXGRPID", "title": "Group ID", "type": "SDTM Dataset Variable"}}, "core": "Perm", "description": "Used to tie together a block of related records in a single domain for a subject.", "label": "Group ID", "name": "EXGRPID", "ordinal": "5", "role": "Identifier", "simpleDatatype": "Char"}, {"_links": {"modelClassVariable": {"href": "/mdr/sdtm/1-2/classes/GeneralObservations/variables/--SPID", "title": "Sponsor ID", "type": "Class Variable"}, "parentDataset": {"href": "/mdr/sdtmig/3-1-2/datasets/EX", "title": "Exposure", "type": "SDTM Dataset"}, "parentProduct": {"href": "/mdr/sdtmig/3-1-2", "title": "Study Data Tabulation Model Implementation Guide: Human Clinical Trials Version 3.1.2 (Final)", "type": "Implementation Guide"}, "rootItem": {"href": "/mdr/root/sdtmig/datasets/EX/variables/EXSPID", "title": "Version-agnostic anchor resource for SDTMIG variable EX.EXSPID", "type": "Root Data Element"}, "self": {"href": "/mdr/sdtmig/3-1-2/datasets/EX/variables/EXSPID", "title": "Sponsor-Defined Identifier", "type": "SDTM Dataset Variable"}}, "core": "Perm", "description": "Sponsor-defined reference number. Perhaps pre-printed on the CRF as an explicit line identifier or defined in the sponsor's operational database. Example: Line number on a CRF Page.", "label": "Sponsor-Defined Identifier", "name": "EXSPID", "ordinal": "6", "role": "Identifier", "simpleDatatype": "Char"}, {"_links": {"modelClassVariable": {"href": "/mdr/sdtm/1-2/classes/Interventions/variables/--TRT", "title": "Name of Treatment", "type": "Class Variable"}, "parentDataset": {"href": "/mdr/sdtmig/3-1-2/datasets/EX", "title": "Exposure", "type": "SDTM Dataset"}, "parentProduct": {"href": "/mdr/sdtmig/3-1-2", "title": "Study Data Tabulation Model Implementation Guide: Human Clinical Trials Version 3.1.2 (Final)", "type": "Implementation Guide"}, "rootItem": {"href": "/mdr/root/sdtmig/datasets/EX/variables/EXTRT", "title": "Version-agnostic anchor resource for SDTMIG variable EX.EXTRT", "type": "Root Data Element"}, "self": {"href": "/mdr/sdtmig/3-1-2/datasets/EX/variables/EXTRT", "title": "Name of Actual Treatment", "type": "SDTM Dataset Variable"}}, "core": "Req", "description": "Name of the intervention treatment - usually the verbatim name of the investigational treatment given during the dosing period for the observation.", "label": "Name of Actual Treatment", "name": "EXTRT", "ordinal": "7", "role": "Topic", "simpleDatatype": "Char"}, {"_links": {"modelClassVariable": {"href": "/mdr/sdtm/1-2/classes/Interventions/variables/--CAT", "title": "Category", "type": "Class Variable"}, "parentDataset": {"href": "/mdr/sdtmig/3-1-2/datasets/EX", "title": "Exposure", "type": "SDTM Dataset"}, "parentProduct": {"href": "/mdr/sdtmig/3-1-2", "title": "Study Data Tabulation Model Implementation Guide: Human Clinical Trials Version 3.1.2 (Final)", "type": "Implementation Guide"}, "rootItem": {"href": "/mdr/root/sdtmig/datasets/EX/variables/EXCAT", "title": "Version-agnostic anchor resource for SDTMIG variable EX.EXCAT", "type": "Root Data Element"}, "self": {"href": "/mdr/sdtmig/3-1-2/datasets/EX/variables/EXCAT", "title": "Category for Treatment", "type": "SDTM Dataset Variable"}}, "core": "Perm", "description": "Used to define a category of related records. Example: COMPARATOR CLASS.", "label": "Category for Treatment", "name": "EXCAT", "ordinal": "8", "role": "Grouping Qualifier", "simpleDatatype": "Char"}, {"_links": {"modelClassVariable": {"href": "/mdr/sdtm/1-2/classes/Interventions/variables/--SCAT", "title": "Subcategory", "type": "Class Variable"}, "parentDataset": {"href": "/mdr/sdtmig/3-1-2/datasets/EX", "title": "Exposure", "type": "SDTM Dataset"}, "parentProduct": {"href": "/mdr/sdtmig/3-1-2", "title": "Study Data Tabulation Model Implementation Guide: Human Clinical Trials Version 3.1.2 (Final)", "type": "Implementation Guide"}, "rootItem": {"href": "/mdr/root/sdtmig/datasets/EX/variables/EXSCAT", "title": "Version-agnostic anchor resource for SDTMIG variable EX.EXSCAT", "type": "Root Data Element"}, "self": {"href": "/mdr/sdtmig/3-1-2/datasets/EX/variables/EXSCAT", "title": "Subcategory for Treatment", "type": "SDTM Dataset Variable"}}, "core": "Perm", "description": "A further categorization of treatment.", "label": "Subcategory for Treatment", "name": "EXSCAT", "ordinal": "9", "role": "Grouping Qualifier", "simpleDatatype": "Char"}, {"_links": {"modelClassVariable": {"href": "/mdr/sdtm/1-2/classes/Interventions/variables/--DOSE", "title": "Dose", "type": "Class Variable"}, "parentDataset": {"href": "/mdr/sdtmig/3-1-2/datasets/EX", "title": "Exposure", "type": "SDTM Dataset"}, "parentProduct": {"href": "/mdr/sdtmig/3-1-2", "title": "Study Data Tabulation Model Implementation Guide: Human Clinical Trials Version 3.1.2 (Final)", "type": "Implementation Guide"}, "rootItem": {"href": "/mdr/root/sdtmig/datasets/EX/variables/EXDOSE", "title": "Version-agnostic anchor resource for SDTMIG variable EX.EXDOSE", "type": "Root Data Element"}, "self": {"href": "/mdr/sdtmig/3-1-2/datasets/EX/variables/EXDOSE", "title": "Dose per Administration", "type": "SDTM Dataset Variable"}}, "core": "Exp", "description": "Amount of EXTRT administered or given.", "label": "Dose per Administration", "name": "EXDOSE", "ordinal": "10", "role": "Record Qualifier", "simpleDatatype": "Num"}, {"_links": {"modelClassVariable": {"href": "/mdr/sdtm/1-2/classes/Interventions/variables/--DOSTXT", "title": "Dose Description", "type": "Class Variable"}, "parentDataset": {"href": "/mdr/sdtmig/3-1-2/datasets/EX", "title": "Exposure", "type": "SDTM Dataset"}, "parentProduct": {"href": "/mdr/sdtmig/3-1-2", "title": "Study Data Tabulation Model Implementation Guide: Human Clinical Trials Version 3.1.2 (Final)", "type": "Implementation Guide"}, "rootItem": {"href": "/mdr/root/sdtmig/datasets/EX/variables/EXDOSTXT", "title": "Version-agnostic anchor resource for SDTMIG variable EX.EXDOSTXT", "type": "Root Data Element"}, "self": {"href": "/mdr/sdtmig/3-1-2/datasets/EX/variables/EXDOSTXT", "title": "Dose Description", "type": "SDTM Dataset Variable"}}, "core": "Perm", "description": "Dosing amounts or a range of dosing information collected in text form. Example: 200-400.", "label": "Dose Description", "name": "EXDOSTXT", "ordinal": "11", "role": "Record Qualifier", "simpleDatatype": "Char"}, {"_links": {"codelist": [{"href": "/mdr/root/ct/sdtmct/codelists/C71620", "title": "Version-agnostic anchor resource for codelist C71620", "type": "Root Value Domain"}], "modelClassVariable": {"href": "/mdr/sdtm/1-2/classes/Interventions/variables/--DOSU", "title": "Dose Units", "type": "Class Variable"}, "parentDataset": {"href": "/mdr/sdtmig/3-1-2/datasets/EX", "title": "Exposure", "type": "SDTM Dataset"}, "parentProduct": {"href": "/mdr/sdtmig/3-1-2", "title": "Study Data Tabulation Model Implementation Guide: Human Clinical Trials Version 3.1.2 (Final)", "type": "Implementation Guide"}, "rootItem": {"href": "/mdr/root/sdtmig/datasets/EX/variables/EXDOSU", "title": "Version-agnostic anchor resource for SDTMIG variable EX.EXDOSU", "type": "Root Data Element"}, "self": {"href": "/mdr/sdtmig/3-1-2/datasets/EX/variables/EXDOSU", "title": "Dose Units", "type": "SDTM Dataset Variable"}}, "core": "Exp", "description": "Units for EXDOSE and EXDOSTOT. Examples: ng, mg, or mg/kg.", "label": "Dose Units", "name": "EXDOSU", "ordinal": "12", "role": "Variable Qualifier", "simpleDatatype": "Char"}, {"_links": {"codelist": [{"href": "/mdr/root/ct/sdtmct/codelists/C66726", "title": "Version-agnostic anchor resource for codelist C66726", "type": "Root Value Domain"}], "modelClassVariable": {"href": "/mdr/sdtm/1-2/classes/Interventions/variables/--DOSFRM", "title": "Dose Form", "type": "Class Variable"}, "parentDataset": {"href": "/mdr/sdtmig/3-1-2/datasets/EX", "title": "Exposure", "type": "SDTM Dataset"}, "parentProduct": {"href": "/mdr/sdtmig/3-1-2", "title": "Study Data Tabulation Model Implementation Guide: Human Clinical Trials Version 3.1.2 (Final)", "type": "Implementation Guide"}, "rootItem": {"href": "/mdr/root/sdtmig/datasets/EX/variables/EXDOSFRM", "title": "Version-agnostic anchor resource for SDTMIG variable EX.EXDOSFRM", "type": "Root Data Element"}, "self": {"href": "/mdr/sdtmig/3-1-2/datasets/EX/variables/EXDOSFRM", "title": "Dose Form", "type": "SDTM Dataset Variable"}}, "core": "Exp", "description": "Dose form for EXTRT. Examples: TABLET, LOTION.", "label": "Dose Form", "name": "EXDOSFRM", "ordinal": "13", "role": "Record Qualifier", "simpleDatatype": "Char"}, {"_links": {"codelist": [{"href": "/mdr/root/ct/sdtmct/codelists/C71113", "title": "Version-agnostic anchor resource for codelist C71113", "type": "Root Value Domain"}], "modelClassVariable": {"href": "/mdr/sdtm/1-2/classes/Interventions/variables/--DOSFRQ", "title": "Dosing Frequency per Interval", "type": "Class Variable"}, "parentDataset": {"href": "/mdr/sdtmig/3-1-2/datasets/EX", "title": "Exposure", "type": "SDTM Dataset"}, "parentProduct": {"href": "/mdr/sdtmig/3-1-2", "title": "Study Data Tabulation Model Implementation Guide: Human Clinical Trials Version 3.1.2 (Final)", "type": "Implementation Guide"}, "rootItem": {"href": "/mdr/root/sdtmig/datasets/EX/variables/EXDOSFRQ", "title": "Version-agnostic anchor resource for SDTMIG variable EX.EXDOSFRQ", "type": "Root Data Element"}, "self": {"href": "/mdr/sdtmig/3-1-2/datasets/EX/variables/EXDOSFRQ", "title": "Dosing Frequency Per Interval", "type": "SDTM Dataset Variable"}}, "core": "Perm", "description": "Usually expressed as the number of repeated administrations of EXDOSE within a specific time period. Examples: BID (twice daily), Q4S (once every four weeks), BIS (twice a week).", "label": "Dosing Frequency Per Interval", "name": "EXDOSFRQ", "ordinal": "14", "role": "Variable Qualifier", "simpleDatatype": "Char"}, {"_links": {"modelClassVariable": {"href": "/mdr/sdtm/1-2/classes/Interventions/variables/--DOSTOT", "title": "Total Daily Dose", "type": "Class Variable"}, "parentDataset": {"href": "/mdr/sdtmig/3-1-2/datasets/EX", "title": "Exposure", "type": "SDTM Dataset"}, "parentProduct": {"href": "/mdr/sdtmig/3-1-2", "title": "Study Data Tabulation Model Implementation Guide: Human Clinical Trials Version 3.1.2 (Final)", "type": "Implementation Guide"}, "rootItem": {"href": "/mdr/root/sdtmig/datasets/EX/variables/EXDOSTOT", "title": "Version-agnostic anchor resource for SDTMIG variable EX.EXDOSTOT", "type": "Root Data Element"}, "self": {"href": "/mdr/sdtmig/3-1-2/datasets/EX/variables/EXDOSTOT", "title": "Total Daily Dose", "type": "SDTM Dataset Variable"}}, "core": "Perm", "description": "Total daily dose of EXTRT using the units in EXDOSU. Total dose over a period other than day could be recorded in a separate Supplemental Qualifier variable.", "label": "Total Daily Dose", "name": "EXDOSTOT", "ordinal": "15", "role": "Record Qualifier", "simpleDatatype": "Num"}, {"_links": {"modelClassVariable": {"href": "/mdr/sdtm/1-2/classes/Interventions/variables/--DOSRGM", "title": "Intended Dose Regimen", "type": "Class Variable"}, "parentDataset": {"href": "/mdr/sdtmig/3-1-2/datasets/EX", "title": "Exposure", "type": "SDTM Dataset"}, "parentProduct": {"href": "/mdr/sdtmig/3-1-2", "title": "Study Data Tabulation Model Implementation Guide: Human Clinical Trials Version 3.1.2 (Final)", "type": "Implementation Guide"}, "rootItem": {"href": "/mdr/root/sdtmig/datasets/EX/variables/EXDOSRGM", "title": "Version-agnostic anchor resource for SDTMIG variable EX.EXDOSRGM", "type": "Root Data Element"}, "self": {"href": "/mdr/sdtmig/3-1-2/datasets/EX/variables/EXDOSRGM", "title": "Intended Dose Regimen", "type": "SDTM Dataset Variable"}}, "core": "Perm", "description": "Text description of the (intended) schedule or regimen for the Intervention. Examples: TWO WEEKS ON, TWO WEEKS OFF.", "label": "Intended Dose Regimen", "name": "EXDOSRGM", "ordinal": "16", "role": "Variable Qualifier", "simpleDatatype": "Char"}, {"_links": {"codelist": [{"href": "/mdr/root/ct/sdtmct/codelists/C66729", "title": "Version-agnostic anchor resource for codelist C66729", "type": "Root Value Domain"}], "modelClassVariable": {"href": "/mdr/sdtm/1-2/classes/Interventions/variables/--ROUTE", "title": "Route of Administration", "type": "Class Variable"}, "parentDataset": {"href": "/mdr/sdtmig/3-1-2/datasets/EX", "title": "Exposure", "type": "SDTM Dataset"}, "parentProduct": {"href": "/mdr/sdtmig/3-1-2", "title": "Study Data Tabulation Model Implementation Guide: Human Clinical Trials Version 3.1.2 (Final)", "type": "Implementation Guide"}, "rootItem": {"href": "/mdr/root/sdtmig/datasets/EX/variables/EXROUTE", "title": "Version-agnostic anchor resource for SDTMIG variable EX.EXROUTE", "type": "Root Data Element"}, "self": {"href": "/mdr/sdtmig/3-1-2/datasets/EX/variables/EXROUTE", "title": "Route of Administration", "type": "SDTM Dataset Variable"}}, "core": "Perm", "description": "Route of administration for EXTRT. Examples: ORAL, INTRAVENOUS.", "label": "Route of Administration", "name": "EXROUTE", "ordinal": "17", "role": "Variable Qualifier", "simpleDatatype": "Char"}, {"_links": {"modelClassVariable": {"href": "/mdr/sdtm/1-2/classes/Interventions/variables/--LOT", "title": "Lot Number", "type": "Class Variable"}, "parentDataset": {"href": "/mdr/sdtmig/3-1-2/datasets/EX", "title": "Exposure", "type": "SDTM Dataset"}, "parentProduct": {"href": "/mdr/sdtmig/3-1-2", "title": "Study Data Tabulation Model Implementation Guide: Human Clinical Trials Version 3.1.2 (Final)", "type": "Implementation Guide"}, "rootItem": {"href": "/mdr/root/sdtmig/datasets/EX/variables/EXLOT", "title": "Version-agnostic anchor resource for SDTMIG variable EX.EXLOT", "type": "Root Data Element"}, "self": {"href": "/mdr/sdtmig/3-1-2/datasets/EX/variables/EXLOT", "title": "Lot Number", "type": "SDTM Dataset Variable"}}, "core": "Perm", "description": "Lot Number of the EXTRT product.", "label": "Lot Number", "name": "EXLOT", "ordinal": "18", "role": "Record Qualifier", "simpleDatatype": "Char"}, {"_links": {"codelist": [{"href": "/mdr/root/ct/sdtmct/codelists/C74456", "title": "Version-agnostic anchor resource for codelist C74456", "type": "Root Value Domain"}], "modelClassVariable": {"href": "/mdr/sdtm/1-2/classes/Interventions/variables/--LOC", "title": "Location of Dose Administration", "type": "Class Variable"}, "parentDataset": {"href": "/mdr/sdtmig/3-1-2/datasets/EX", "title": "Exposure", "type": "SDTM Dataset"}, "parentProduct": {"href": "/mdr/sdtmig/3-1-2", "title": "Study Data Tabulation Model Implementation Guide: Human Clinical Trials Version 3.1.2 (Final)", "type": "Implementation Guide"}, "rootItem": {"href": "/mdr/root/sdtmig/datasets/EX/variables/EXLOC", "title": "Version-agnostic anchor resource for SDTMIG variable EX.EXLOC", "type": "Root Data Element"}, "self": {"href": "/mdr/sdtmig/3-1-2/datasets/EX/variables/EXLOC", "title": "Location of Dose Administration", "type": "SDTM Dataset Variable"}}, "core": "Perm", "description": "Specifies location of administration. Example: LEFT ARM for a topical application.", "label": "Location of Dose Administration", "name": "EXLOC", "ordinal": "19", "role": "Record Qualifier", "simpleDatatype": "Char"}, {"_links": {"modelClassVariable": {"href": "/mdr/sdtm/1-2/classes/Interventions/variables/--TRTV", "title": "Treatment Vehicle", "type": "Class Variable"}, "parentDataset": {"href": "/mdr/sdtmig/3-1-2/datasets/EX", "title": "Exposure", "type": "SDTM Dataset"}, "parentProduct": {"href": "/mdr/sdtmig/3-1-2", "title": "Study Data Tabulation Model Implementation Guide: Human Clinical Trials Version 3.1.2 (Final)", "type": "Implementation Guide"}, "rootItem": {"href": "/mdr/root/sdtmig/datasets/EX/variables/EXTRTV", "title": "Version-agnostic anchor resource for SDTMIG variable EX.EXTRTV", "type": "Root Data Element"}, "self": {"href": "/mdr/sdtmig/3-1-2/datasets/EX/variables/EXTRTV", "title": "Treatment Vehicle", "type": "SDTM Dataset Variable"}}, "core": "Perm", "description": "Describes vehicle used for treatment. Example: SALINE.", "label": "Treatment Vehicle", "name": "EXTRTV", "ordinal": "20", "role": "Record Qualifier", "simpleDatatype": "Char"}, {"_links": {"modelClassVariable": {"href": "/mdr/sdtm/1-2/classes/Interventions/variables/--VAMT", "title": "Treatment Vehicle Amount", "type": "Class Variable"}, "parentDataset": {"href": "/mdr/sdtmig/3-1-2/datasets/EX", "title": "Exposure", "type": "SDTM Dataset"}, "parentProduct": {"href": "/mdr/sdtmig/3-1-2", "title": "Study Data Tabulation Model Implementation Guide: Human Clinical Trials Version 3.1.2 (Final)", "type": "Implementation Guide"}, "rootItem": {"href": "/mdr/root/sdtmig/datasets/EX/variables/EXVAMT", "title": "Version-agnostic anchor resource for SDTMIG variable EX.EXVAMT", "type": "Root Data Element"}, "self": {"href": "/mdr/sdtmig/3-1-2/datasets/EX/variables/EXVAMT", "title": "Treatment Vehicle Amount", "type": "SDTM Dataset Variable"}}, "core": "Perm", "description": "Amount administered of the treatment vehicle indicated by EXTRTV", "label": "Treatment Vehicle Amount", "name": "EXVAMT", "ordinal": "21", "role": "Variable Qualifier", "simpleDatatype": "Num"}, {"_links": {"codelist": [{"href": "/mdr/root/ct/sdtmct/codelists/C71620", "title": "Version-agnostic anchor resource for codelist C71620", "type": "Root Value Domain"}], "modelClassVariable": {"href": "/mdr/sdtm/1-2/classes/Interventions/variables/--VAMTU", "title": "Treatment Vehicle Amount Units", "type": "Class Variable"}, "parentDataset": {"href": "/mdr/sdtmig/3-1-2/datasets/EX", "title": "Exposure", "type": "SDTM Dataset"}, "parentProduct": {"href": "/mdr/sdtmig/3-1-2", "title": "Study Data Tabulation Model Implementation Guide: Human Clinical Trials Version 3.1.2 (Final)", "type": "Implementation Guide"}, "rootItem": {"href": "/mdr/root/sdtmig/datasets/EX/variables/EXVAMTU", "title": "Version-agnostic anchor resource for SDTMIG variable EX.EXVAMTU", "type": "Root Data Element"}, "self": {"href": "/mdr/sdtmig/3-1-2/datasets/EX/variables/EXVAMTU", "title": "Treatment Vehicle Amount Units", "type": "SDTM Dataset Variable"}}, "core": "Perm", "description": "Units of the treatment vehicle amount indicated by EXVAMT", "label": "Treatment Vehicle Amount Units", "name": "EXVAMTU", "ordinal": "22", "role": "Variable Qualifier", "simpleDatatype": "Char"}, {"_links": {"modelClassVariable": {"href": "/mdr/sdtm/1-2/classes/Interventions/variables/--ADJ", "title": "Reason for Dose Adjustment", "type": "Class Variable"}, "parentDataset": {"href": "/mdr/sdtmig/3-1-2/datasets/EX", "title": "Exposure", "type": "SDTM Dataset"}, "parentProduct": {"href": "/mdr/sdtmig/3-1-2", "title": "Study Data Tabulation Model Implementation Guide: Human Clinical Trials Version 3.1.2 (Final)", "type": "Implementation Guide"}, "rootItem": {"href": "/mdr/root/sdtmig/datasets/EX/variables/EXADJ", "title": "Version-agnostic anchor resource for SDTMIG variable EX.EXADJ", "type": "Root Data Element"}, "self": {"href": "/mdr/sdtmig/3-1-2/datasets/EX/variables/EXADJ", "title": "Reason for Dose Adjustment", "type": "SDTM Dataset Variable"}}, "core": "Perm", "description": "Describes reason or explanation of why a dose is adjusted - used only when an adjustment is represented in EX.", "label": "Reason for Dose Adjustment", "name": "EXADJ", "ordinal": "23", "role": "Record Qualifier", "simpleDatatype": "Char"}, {"_links": {"modelClassVariable": {"href": "/mdr/sdtm/1-2/classes/GeneralObservations/variables/TAETORD", "title": "Planned Order of Elements within Arm", "type": "Class Variable"}, "parentDataset": {"href": "/mdr/sdtmig/3-1-2/datasets/EX", "title": "Exposure", "type": "SDTM Dataset"}, "parentProduct": {"href": "/mdr/sdtmig/3-1-2", "title": "Study Data Tabulation Model Implementation Guide: Human Clinical Trials Version 3.1.2 (Final)", "type": "Implementation Guide"}, "rootItem": {"href": "/mdr/root/sdtmig/datasets/EX/variables/TAETORD", "title": "Version-agnostic anchor resource for SDTMIG variable EX.TAETORD", "type": "Root Data Element"}, "self": {"href": "/mdr/sdtmig/3-1-2/datasets/EX/variables/TAETORD", "title": "Order of Element within Arm", "type": "SDTM Dataset Variable"}}, "core": "Perm", "description": "Number that gives the order of the Element within the Arm.", "label": "Order of Element within Arm", "name": "TAETORD", "ordinal": "24", "role": "Timing", "simpleDatatype": "Num"}, {"_links": {"modelClassVariable": {"href": "/mdr/sdtm/1-2/classes/GeneralObservations/variables/EPOCH", "title": "Epoch", "type": "Class Variable"}, "parentDataset": {"href": "/mdr/sdtmig/3-1-2/datasets/EX", "title": "Exposure", "type": "SDTM Dataset"}, "parentProduct": {"href": "/mdr/sdtmig/3-1-2", "title": "Study Data Tabulation Model Implementation Guide: Human Clinical Trials Version 3.1.2 (Final)", "type": "Implementation Guide"}, "rootItem": {"href": "/mdr/root/sdtmig/datasets/EX/variables/EPOCH", "title": "Version-agnostic anchor resource for SDTMIG variable EX.EPOCH", "type": "Root Data Element"}, "self": {"href": "/mdr/sdtmig/3-1-2/datasets/EX/variables/EPOCH", "title": "Epoch", "type": "SDTM Dataset Variable"}}, "core": "Perm", "description": "Trial Epoch of the Exposure record. Examples: SCREENING, TREATMENT PHASE, FOLLOW-UP", "label": "Epoch", "name": "EPOCH", "ordinal": "25", "role": "Timing", "simpleDatatype": "Char"}, {"_links": {"modelClassVariable": {"href": "/mdr/sdtm/1-2/classes/GeneralObservations/variables/--STDTC", "title": "Start Date/Time of Observation", "type": "Class Variable"}, "parentDataset": {"href": "/mdr/sdtmig/3-1-2/datasets/EX", "title": "Exposure", "type": "SDTM Dataset"}, "parentProduct": {"href": "/mdr/sdtmig/3-1-2", "title": "Study Data Tabulation Model Implementation Guide: Human Clinical Trials Version 3.1.2 (Final)", "type": "Implementation Guide"}, "rootItem": {"href": "/mdr/root/sdtmig/datasets/EX/variables/EXSTDTC", "title": "Version-agnostic anchor resource for SDTMIG variable EX.EXSTDTC", "type": "Root Data Element"}, "self": {"href": "/mdr/sdtmig/3-1-2/datasets/EX/variables/EXSTDTC", "title": "Start Date/Time of Treatment", "type": "SDTM Dataset Variable"}}, "core": "Exp", "describedValueDomain": "ISO 8601", "description": "The time when administration of the treatment indicated by EXTRT and EXDOSE began.", "label": "Start Date/Time of Treatment", "name": "EXSTDTC", "ordinal": "26", "role": "Timing", "simpleDatatype": "Char"}, {"_links": {"modelClassVariable": {"href": "/mdr/sdtm/1-2/classes/GeneralObservations/variables/--ENDTC", "title": "End Date/Time of Observation", "type": "Class Variable"}, "parentDataset": {"href": "/mdr/sdtmig/3-1-2/datasets/EX", "title": "Exposure", "type": "SDTM Dataset"}, "parentProduct": {"href": "/mdr/sdtmig/3-1-2", "title": "Study Data Tabulation Model Implementation Guide: Human Clinical Trials Version 3.1.2 (Final)", "type": "Implementation Guide"}, "rootItem": {"href": "/mdr/root/sdtmig/datasets/EX/variables/EXENDTC", "title": "Version-agnostic anchor resource for SDTMIG variable EX.EXENDTC", "type": "Root Data Element"}, "self": {"href": "/mdr/sdtmig/3-1-2/datasets/EX/variables/EXENDTC", "title": "End Date/Time of Treatment", "type": "SDTM Dataset Variable"}}, "core": "Perm", "describedValueDomain": "ISO 8601", "description": "The time when administration of the treatment indicated by EXTRT and EXDOSE ended.", "label": "End Date/Time of Treatment", "name": "EXENDTC", "ordinal": "27", "role": "Timing", "simpleDatatype": "Char"}, {"_links": {"modelClassVariable": {"href": "/mdr/sdtm/1-2/classes/GeneralObservations/variables/--STDY", "title": "Study Day of Start of Observation", "type": "Class Variable"}, "parentDataset": {"href": "/mdr/sdtmig/3-1-2/datasets/EX", "title": "Exposure", "type": "SDTM Dataset"}, "parentProduct": {"href": "/mdr/sdtmig/3-1-2", "title": "Study Data Tabulation Model Implementation Guide: Human Clinical Trials Version 3.1.2 (Final)", "type": "Implementation Guide"}, "rootItem": {"href": "/mdr/root/sdtmig/datasets/EX/variables/EXSTDY", "title": "Version-agnostic anchor resource for SDTMIG variable EX.EXSTDY", "type": "Root Data Element"}, "self": {"href": "/mdr/sdtmig/3-1-2/datasets/EX/variables/EXSTDY", "title": "Study Day of Start of Treatment", "type": "SDTM Dataset Variable"}}, "core": "Perm", "description": "Study day of start of treatment relative to the sponsor-defined RFSTDTC.", "label": "Study Day of Start of Treatment", "name": "EXSTDY", "ordinal": "28", "role": "Timing", "simpleDatatype": "Num"}, {"_links": {"modelClassVariable": {"href": "/mdr/sdtm/1-2/classes/GeneralObservations/variables/--ENDY", "title": "Study Day of End of Observation", "type": "Class Variable"}, "parentDataset": {"href": "/mdr/sdtmig/3-1-2/datasets/EX", "title": "Exposure", "type": "SDTM Dataset"}, "parentProduct": {"href": "/mdr/sdtmig/3-1-2", "title": "Study Data Tabulation Model Implementation Guide: Human Clinical Trials Version 3.1.2 (Final)", "type": "Implementation Guide"}, "rootItem": {"href": "/mdr/root/sdtmig/datasets/EX/variables/EXENDY", "title": "Version-agnostic anchor resource for SDTMIG variable EX.EXENDY", "type": "Root Data Element"}, "self": {"href": "/mdr/sdtmig/3-1-2/datasets/EX/variables/EXENDY", "title": "Study Day of End of Treatment", "type": "SDTM Dataset Variable"}}, "core": "Perm", "description": "Study day of end of treatment relative to the sponsor-defined RFSTDTC.", "label": "Study Day of End of Treatment", "name": "EXENDY", "ordinal": "29", "role": "Timing", "simpleDatatype": "Num"}, {"_links": {"modelClassVariable": {"href": "/mdr/sdtm/1-2/classes/GeneralObservations/variables/--DUR", "title": "Duration", "type": "Class Variable"}, "parentDataset": {"href": "/mdr/sdtmig/3-1-2/datasets/EX", "title": "Exposure", "type": "SDTM Dataset"}, "parentProduct": {"href": "/mdr/sdtmig/3-1-2", "title": "Study Data Tabulation Model Implementation Guide: Human Clinical Trials Version 3.1.2 (Final)", "type": "Implementation Guide"}, "rootItem": {"href": "/mdr/root/sdtmig/datasets/EX/variables/EXDUR", "title": "Version-agnostic anchor resource for SDTMIG variable EX.EXDUR", "type": "Root Data Element"}, "self": {"href": "/mdr/sdtmig/3-1-2/datasets/EX/variables/EXDUR", "title": "Duration of Treatment", "type": "SDTM Dataset Variable"}}, "core": "Perm", "describedValueDomain": "ISO 8601", "description": "Collected duration and unit of a treatment. Used only if collected on the CRF and not derived from start and end date/times.", "label": "Duration of Treatment", "name": "EXDUR", "ordinal": "30", "role": "Timing", "simpleDatatype": "Char"}, {"_links": {"modelClassVariable": {"href": "/mdr/sdtm/1-2/classes/GeneralObservations/variables/--TPT", "title": "Planned Time Point Name", "type": "Class Variable"}, "parentDataset": {"href": "/mdr/sdtmig/3-1-2/datasets/EX", "title": "Exposure", "type": "SDTM Dataset"}, "parentProduct": {"href": "/mdr/sdtmig/3-1-2", "title": "Study Data Tabulation Model Implementation Guide: Human Clinical Trials Version 3.1.2 (Final)", "type": "Implementation Guide"}, "rootItem": {"href": "/mdr/root/sdtmig/datasets/EX/variables/EXTPT", "title": "Version-agnostic anchor resource for SDTMIG variable EX.EXTPT", "type": "Root Data Element"}, "self": {"href": "/mdr/sdtmig/3-1-2/datasets/EX/variables/EXTPT", "title": "Planned Time Point Name", "type": "SDTM Dataset Variable"}}, "core": "Perm", "description": "1. Text Description of time when a dose should be given. 2. This may be represented as an elapsed time relative to a fixed reference point, such as time of last dose. See EXTPTNUM and EXTPTREF. Examples: Start or 5 min post.", "label": "Planned Time Point Name", "name": "EXTPT", "ordinal": "31", "role": "Timing", "simpleDatatype": "Char"}, {"_links": {"modelClassVariable": {"href": "/mdr/sdtm/1-2/classes/GeneralObservations/variables/--TPTNUM", "title": "Planned Time Point Number", "type": "Class Variable"}, "parentDataset": {"href": "/mdr/sdtmig/3-1-2/datasets/EX", "title": "Exposure", "type": "SDTM Dataset"}, "parentProduct": {"href": "/mdr/sdtmig/3-1-2", "title": "Study Data Tabulation Model Implementation Guide: Human Clinical Trials Version 3.1.2 (Final)", "type": "Implementation Guide"}, "rootItem": {"href": "/mdr/root/sdtmig/datasets/EX/variables/EXTPTNUM", "title": "Version-agnostic anchor resource for SDTMIG variable EX.EXTPTNUM", "type": "Root Data Element"}, "self": {"href": "/mdr/sdtmig/3-1-2/datasets/EX/variables/EXTPTNUM", "title": "Planned Time Point Number", "type": "SDTM Dataset Variable"}}, "core": "Perm", "description": "Numerical version of EXTPT to aid in sorting.", "label": "Planned Time Point Number", "name": "EXTPTNUM", "ordinal": "32", "role": "Timing", "simpleDatatype": "Num"}, {"_links": {"modelClassVariable": {"href": "/mdr/sdtm/1-2/classes/GeneralObservations/variables/--ELTM", "title": "Planned Elapsed Time from Time Point Ref", "type": "Class Variable"}, "parentDataset": {"href": "/mdr/sdtmig/3-1-2/datasets/EX", "title": "Exposure", "type": "SDTM Dataset"}, "parentProduct": {"href": "/mdr/sdtmig/3-1-2", "title": "Study Data Tabulation Model Implementation Guide: Human Clinical Trials Version 3.1.2 (Final)", "type": "Implementation Guide"}, "rootItem": {"href": "/mdr/root/sdtmig/datasets/EX/variables/EXELTM", "title": "Version-agnostic anchor resource for SDTMIG variable EX.EXELTM", "type": "Root Data Element"}, "self": {"href": "/mdr/sdtmig/3-1-2/datasets/EX/variables/EXELTM", "title": "Planned Elapsed Time from Time Point Ref", "type": "SDTM Dataset Variable"}}, "core": "Perm", "describedValueDomain": "ISO 8601", "description": "Planned elapsed time (in ISO 8601 format) relative to the planned fixed reference (EXTPTREF). This variable is useful where there are repetitive measures. Not a clock time. Represented as an ISO duration.", "label": "Planned Elapsed Time from Time Point Ref", "name": "EXELTM", "ordinal": "33", "role": "Timing", "simpleDatatype": "Char"}, {"_links": {"modelClassVariable": {"href": "/mdr/sdtm/1-2/classes/GeneralObservations/variables/--TPTREF", "title": "Time Point Reference", "type": "Class Variable"}, "parentDataset": {"href": "/mdr/sdtmig/3-1-2/datasets/EX", "title": "Exposure", "type": "SDTM Dataset"}, "parentProduct": {"href": "/mdr/sdtmig/3-1-2", "title": "Study Data Tabulation Model Implementation Guide: Human Clinical Trials Version 3.1.2 (Final)", "type": "Implementation Guide"}, "rootItem": {"href": "/mdr/root/sdtmig/datasets/EX/variables/EXTPTREF", "title": "Version-agnostic anchor resource for SDTMIG variable EX.EXTPTREF", "type": "Root Data Element"}, "self": {"href": "/mdr/sdtmig/3-1-2/datasets/EX/variables/EXTPTREF", "title": "Time Point Reference", "type": "SDTM Dataset Variable"}}, "core": "Perm", "description": "Name of the fixed reference point referred to by EXELTM, EXTPTNUM, and EXTPT. Examples: PREVIOUS DOSE, PREVIOUS MEAL.", "label": "Time Point Reference", "name": "EXTPTREF", "ordinal": "34", "role": "Timing", "simpleDatatype": "Char"}], "description": "An interventions domain that contains the details of a subject's exposure to protocol-specified study treatment. Study treatment may be any intervention that is prospectively defined as a test material within a study, and is typically but not always supplied to the subject. (Source: CDISC Controlled Terminology, DOMAIN, C49587, 2018-06-29)", "label": "Exposure", "name": "EX", "ordinal": "6"}
