{"_links": {"parentClass": {"href": "/mdr/sdtmig/3-1-2/classes/Findings", "title": "Findings Observation Class", "type": "Class"}, "parentProduct": {"href": "/mdr/sdtmig/3-1-2", "title": "Study Data Tabulation Model Implementation Guide: Human Clinical Trials Version 3.1.2 (Final)", "type": "Implementation Guide"}, "self": {"href": "/mdr/sdtmig/3-1-2/datasets/IE", "title": "Inclusion/Exclusion Criteria Not Met", "type": "SDTM Dataset"}}, "datasetStructure": "One record per inclusion/exclusion criterion not met per subject", "datasetVariables": [{"_links": {"modelClassVariable": {"href": "/mdr/sdtm/1-2/classes/GeneralObservations/variables/STUDYID", "title": "Study Identifier", "type": "Class Variable"}, "parentDataset": {"href": "/mdr/sdtmig/3-1-2/datasets/IE", "title": "Inclusion/Exclusion Criteria Not Met", "type": "SDTM Dataset"}, "parentProduct": {"href": "/mdr/sdtmig/3-1-2", "title": "Study Data Tabulation Model Implementation Guide: Human Clinical Trials Version 3.1.2 (Final)", "type": "Implementation Guide"}, "rootItem": {"href": "/mdr/root/sdtmig/datasets/IE/variables/STUDYID", "title": "Version-agnostic anchor resource for SDTMIG variable IE.STUDYID", "type": "Root Data Element"}, "self": {"href": "/mdr/sdtmig/3-1-2/datasets/IE/variables/STUDYID", "title": "Study Identifier", "type": "SDTM Dataset Variable"}}, "core": "Req", "description": "Unique identifier for a study.", "label": "Study Identifier", "name": "STUDYID", "ordinal": "1", "role": "Identifier", "simpleDatatype": "Char"}, {"_links": {"modelClassVariable": {"href": "/mdr/sdtm/1-2/classes/GeneralObservations/variables/DOMAIN", "title": "Domain Abbreviation", "type": "Class Variable"}, "parentDataset": {"href": "/mdr/sdtmig/3-1-2/datasets/IE", "title": "Inclusion/Exclusion Criteria Not Met", "type": "SDTM Dataset"}, "parentProduct": {"href": "/mdr/sdtmig/3-1-2", "title": "Study Data Tabulation Model Implementation Guide: Human Clinical Trials Version 3.1.2 (Final)", "type": "Implementation Guide"}, "rootItem": {"href": "/mdr/root/sdtmig/datasets/IE/variables/DOMAIN", "title": "Version-agnostic anchor resource for SDTMIG variable IE.DOMAIN", "type": "Root Data Element"}, "self": {"href": "/mdr/sdtmig/3-1-2/datasets/IE/variables/DOMAIN", "title": "Domain Abbreviation", "type": "SDTM Dataset Variable"}}, "core": "Req", "description": "Two-character abbreviation for the domain.", "label": "Domain Abbreviation", "name": "DOMAIN", "ordinal": "2", "role": "Identifier", "simpleDatatype": "Char", "valueList": ["IE"]}, {"_links": {"modelClassVariable": {"href": "/mdr/sdtm/1-2/classes/GeneralObservations/variables/USUBJID", "title": "Unique Subject Identifier", "type": "Class Variable"}, "parentDataset": {"href": "/mdr/sdtmig/3-1-2/datasets/IE", "title": "Inclusion/Exclusion Criteria Not Met", "type": "SDTM Dataset"}, "parentProduct": {"href": "/mdr/sdtmig/3-1-2", "title": "Study Data Tabulation Model Implementation Guide: Human Clinical Trials Version 3.1.2 (Final)", "type": "Implementation Guide"}, "rootItem": {"href": "/mdr/root/sdtmig/datasets/IE/variables/USUBJID", "title": "Version-agnostic anchor resource for SDTMIG variable IE.USUBJID", "type": "Root Data Element"}, "self": {"href": "/mdr/sdtmig/3-1-2/datasets/IE/variables/USUBJID", "title": "Unique Subject Identifier", "type": "SDTM Dataset Variable"}}, "core": "Req", "description": "Identifier used to uniquely identify a subject across all studies for all applications or submissions involving the product.", "label": "Unique Subject Identifier", "name": "USUBJID", "ordinal": "3", "role": "Identifier", "simpleDatatype": "Char"}, {"_links": {"modelClassVariable": {"href": "/mdr/sdtm/1-2/classes/GeneralObservations/variables/--SEQ", "title": "Sequence Number", "type": "Class Variable"}, "parentDataset": {"href": "/mdr/sdtmig/3-1-2/datasets/IE", "title": "Inclusion/Exclusion Criteria Not Met", "type": "SDTM Dataset"}, "parentProduct": {"href": "/mdr/sdtmig/3-1-2", "title": "Study Data Tabulation Model Implementation Guide: Human Clinical Trials Version 3.1.2 (Final)", "type": "Implementation Guide"}, "rootItem": {"href": "/mdr/root/sdtmig/datasets/IE/variables/IESEQ", "title": "Version-agnostic anchor resource for SDTMIG variable IE.IESEQ", "type": "Root Data Element"}, "self": {"href": "/mdr/sdtmig/3-1-2/datasets/IE/variables/IESEQ", "title": "Sequence Number", "type": "SDTM Dataset Variable"}}, "core": "Req", "description": "Sequence Number given to ensure uniqueness of subject records within a domain. May be any valid number.", "label": "Sequence Number", "name": "IESEQ", "ordinal": "4", "role": "Identifier", "simpleDatatype": "Num"}, {"_links": {"modelClassVariable": {"href": "/mdr/sdtm/1-2/classes/GeneralObservations/variables/--SPID", "title": "Sponsor ID", "type": "Class Variable"}, "parentDataset": {"href": "/mdr/sdtmig/3-1-2/datasets/IE", "title": "Inclusion/Exclusion Criteria Not Met", "type": "SDTM Dataset"}, "parentProduct": {"href": "/mdr/sdtmig/3-1-2", "title": "Study Data Tabulation Model Implementation Guide: Human Clinical Trials Version 3.1.2 (Final)", "type": "Implementation Guide"}, "rootItem": {"href": "/mdr/root/sdtmig/datasets/IE/variables/IESPID", "title": "Version-agnostic anchor resource for SDTMIG variable IE.IESPID", "type": "Root Data Element"}, "self": {"href": "/mdr/sdtmig/3-1-2/datasets/IE/variables/IESPID", "title": "Sponsor-Defined Identifier", "type": "SDTM Dataset Variable"}}, "core": "Perm", "description": "Sponsor-defined reference number. Perhaps pre-printed on the CRF as an explicit line identifier or defined in the sponsor's operational database. Example: Inclusion or Exclusion criteria number from CRF.", "label": "Sponsor-Defined Identifier", "name": "IESPID", "ordinal": "5", "role": "Identifier", "simpleDatatype": "Char"}, {"_links": {"modelClassVariable": {"href": "/mdr/sdtm/1-2/classes/Findings/variables/--TESTCD", "title": "Short Name of Measurement, Test or Examination", "type": "Class Variable"}, "parentDataset": {"href": "/mdr/sdtmig/3-1-2/datasets/IE", "title": "Inclusion/Exclusion Criteria Not Met", "type": "SDTM Dataset"}, "parentProduct": {"href": "/mdr/sdtmig/3-1-2", "title": "Study Data Tabulation Model Implementation Guide: Human Clinical Trials Version 3.1.2 (Final)", "type": "Implementation Guide"}, "rootItem": {"href": "/mdr/root/sdtmig/datasets/IE/variables/IETESTCD", "title": "Version-agnostic anchor resource for SDTMIG variable IE.IETESTCD", "type": "Root Data Element"}, "self": {"href": "/mdr/sdtmig/3-1-2/datasets/IE/variables/IETESTCD", "title": "Inclusion/Exclusion Criterion Short Name", "type": "SDTM Dataset Variable"}}, "core": "Req", "description": "Short name of the criterion described in IETEST. The value in IETESTCD cannot be longer than 8 characters, nor can it start with a number (e.g.\"1TEST\"). IETESTCD cannot contain characters other than letters, numbers, or underscores. Examples: IN01, EX01.", "label": "Inclusion/Exclusion Criterion Short Name", "name": "IETESTCD", "ordinal": "6", "role": "Topic", "simpleDatatype": "Char"}, {"_links": {"modelClassVariable": {"href": "/mdr/sdtm/1-2/classes/Findings/variables/--TEST", "title": "Name of Measurement, Test or Examination", "type": "Class Variable"}, "parentDataset": {"href": "/mdr/sdtmig/3-1-2/datasets/IE", "title": "Inclusion/Exclusion Criteria Not Met", "type": "SDTM Dataset"}, "parentProduct": {"href": "/mdr/sdtmig/3-1-2", "title": "Study Data Tabulation Model Implementation Guide: Human Clinical Trials Version 3.1.2 (Final)", "type": "Implementation Guide"}, "rootItem": {"href": "/mdr/root/sdtmig/datasets/IE/variables/IETEST", "title": "Version-agnostic anchor resource for SDTMIG variable IE.IETEST", "type": "Root Data Element"}, "self": {"href": "/mdr/sdtmig/3-1-2/datasets/IE/variables/IETEST", "title": "Inclusion/Exclusion Criterion", "type": "SDTM Dataset Variable"}}, "core": "Req", "description": "Verbatim description of the inclusion or exclusion criterion that was the exception for the subject within the study. IETEST cannot be longer than 200 characters.", "label": "Inclusion/Exclusion Criterion", "name": "IETEST", "ordinal": "7", "role": "Synonym Qualifier", "simpleDatatype": "Char"}, {"_links": {"codelist": [{"href": "/mdr/root/ct/sdtmct/codelists/C66797", "title": "Version-agnostic anchor resource for codelist C66797", "type": "Root Value Domain"}], "modelClassVariable": {"href": "/mdr/sdtm/1-2/classes/Findings/variables/--CAT", "title": "Category", "type": "Class Variable"}, "parentDataset": {"href": "/mdr/sdtmig/3-1-2/datasets/IE", "title": "Inclusion/Exclusion Criteria Not Met", "type": "SDTM Dataset"}, "parentProduct": {"href": "/mdr/sdtmig/3-1-2", "title": "Study Data Tabulation Model Implementation Guide: Human Clinical Trials Version 3.1.2 (Final)", "type": "Implementation Guide"}, "rootItem": {"href": "/mdr/root/sdtmig/datasets/IE/variables/IECAT", "title": "Version-agnostic anchor resource for SDTMIG variable IE.IECAT", "type": "Root Data Element"}, "self": {"href": "/mdr/sdtmig/3-1-2/datasets/IE/variables/IECAT", "title": "Inclusion/Exclusion Category", "type": "SDTM Dataset Variable"}}, "core": "Req", "description": "Used to define a category of related records across subjects.", "label": "Inclusion/Exclusion Category", "name": "IECAT", "ordinal": "8", "role": "Grouping Qualifier", "simpleDatatype": "Char"}, {"_links": {"modelClassVariable": {"href": "/mdr/sdtm/1-2/classes/Findings/variables/--SCAT", "title": "Subcategory", "type": "Class Variable"}, "parentDataset": {"href": "/mdr/sdtmig/3-1-2/datasets/IE", "title": "Inclusion/Exclusion Criteria Not Met", "type": "SDTM Dataset"}, "parentProduct": {"href": "/mdr/sdtmig/3-1-2", "title": "Study Data Tabulation Model Implementation Guide: Human Clinical Trials Version 3.1.2 (Final)", "type": "Implementation Guide"}, "rootItem": {"href": "/mdr/root/sdtmig/datasets/IE/variables/IESCAT", "title": "Version-agnostic anchor resource for SDTMIG variable IE.IESCAT", "type": "Root Data Element"}, "self": {"href": "/mdr/sdtmig/3-1-2/datasets/IE/variables/IESCAT", "title": "Inclusion/Exclusion Subcategory", "type": "SDTM Dataset Variable"}}, "core": "Perm", "description": "A further categorization of the exception criterion. Can be used to distinguish criteria for a sub-study or for to categorize as a major or minor exceptions. Examples: MAJOR, MINOR.", "label": "Inclusion/Exclusion Subcategory", "name": "IESCAT", "ordinal": "9", "role": "Grouping Qualifier", "simpleDatatype": "Char"}, {"_links": {"codelist": [{"href": "/mdr/root/ct/sdtmct/codelists/C66742", "title": "Version-agnostic anchor resource for codelist C66742", "type": "Root Value Domain"}], "modelClassVariable": {"href": "/mdr/sdtm/1-2/classes/Findings/variables/--ORRES", "title": "Result or Finding in Original Units", "type": "Class Variable"}, "parentDataset": {"href": "/mdr/sdtmig/3-1-2/datasets/IE", "title": "Inclusion/Exclusion Criteria Not Met", "type": "SDTM Dataset"}, "parentProduct": {"href": "/mdr/sdtmig/3-1-2", "title": "Study Data Tabulation Model Implementation Guide: Human Clinical Trials Version 3.1.2 (Final)", "type": "Implementation Guide"}, "rootItem": {"href": "/mdr/root/sdtmig/datasets/IE/variables/IEORRES", "title": "Version-agnostic anchor resource for SDTMIG variable IE.IEORRES", "type": "Root Data Element"}, "self": {"href": "/mdr/sdtmig/3-1-2/datasets/IE/variables/IEORRES", "title": "I/E Criterion Original Result", "type": "SDTM Dataset Variable"}}, "core": "Req", "description": "Original response to Inclusion/Exclusion Criterion question. Inclusion or Exclusion criterion met?", "label": "I/E Criterion Original Result", "name": "IEORRES", "ordinal": "10", "role": "Result Qualifier", "simpleDatatype": "Char"}, {"_links": {"codelist": [{"href": "/mdr/root/ct/sdtmct/codelists/C66742", "title": "Version-agnostic anchor resource for codelist C66742", "type": "Root Value Domain"}], "modelClassVariable": {"href": "/mdr/sdtm/1-2/classes/Findings/variables/--STRESC", "title": "Result or Finding in Standard Format", "type": "Class Variable"}, "parentDataset": {"href": "/mdr/sdtmig/3-1-2/datasets/IE", "title": "Inclusion/Exclusion Criteria Not Met", "type": "SDTM Dataset"}, "parentProduct": {"href": "/mdr/sdtmig/3-1-2", "title": "Study Data Tabulation Model Implementation Guide: Human Clinical Trials Version 3.1.2 (Final)", "type": "Implementation Guide"}, "rootItem": {"href": "/mdr/root/sdtmig/datasets/IE/variables/IESTRESC", "title": "Version-agnostic anchor resource for SDTMIG variable IE.IESTRESC", "type": "Root Data Element"}, "self": {"href": "/mdr/sdtmig/3-1-2/datasets/IE/variables/IESTRESC", "title": "I/E Criterion Result in Std Format", "type": "SDTM Dataset Variable"}}, "core": "Req", "description": "Response to Inclusion/Exclusion criterion result in standard format.", "label": "I/E Criterion Result in Std Format", "name": "IESTRESC", "ordinal": "11", "role": "Result Qualifier", "simpleDatatype": "Char"}, {"_links": {"modelClassVariable": {"href": "/mdr/sdtm/1-2/classes/GeneralObservations/variables/VISITNUM", "title": "Visit Number", "type": "Class Variable"}, "parentDataset": {"href": "/mdr/sdtmig/3-1-2/datasets/IE", "title": "Inclusion/Exclusion Criteria Not Met", "type": "SDTM Dataset"}, "parentProduct": {"href": "/mdr/sdtmig/3-1-2", "title": "Study Data Tabulation Model Implementation Guide: Human Clinical Trials Version 3.1.2 (Final)", "type": "Implementation Guide"}, "rootItem": {"href": "/mdr/root/sdtmig/datasets/IE/variables/VISITNUM", "title": "Version-agnostic anchor resource for SDTMIG variable IE.VISITNUM", "type": "Root Data Element"}, "self": {"href": "/mdr/sdtmig/3-1-2/datasets/IE/variables/VISITNUM", "title": "Visit Number", "type": "SDTM Dataset Variable"}}, "core": "Perm", "description": "1. Clinical encounter number. 2. Numeric version of VISIT, used for sorting.", "label": "Visit Number", "name": "VISITNUM", "ordinal": "12", "role": "Timing", "simpleDatatype": "Num"}, {"_links": {"modelClassVariable": {"href": "/mdr/sdtm/1-2/classes/GeneralObservations/variables/VISIT", "title": "Visit Name", "type": "Class Variable"}, "parentDataset": {"href": "/mdr/sdtmig/3-1-2/datasets/IE", "title": "Inclusion/Exclusion Criteria Not Met", "type": "SDTM Dataset"}, "parentProduct": {"href": "/mdr/sdtmig/3-1-2", "title": "Study Data Tabulation Model Implementation Guide: Human Clinical Trials Version 3.1.2 (Final)", "type": "Implementation Guide"}, "rootItem": {"href": "/mdr/root/sdtmig/datasets/IE/variables/VISIT", "title": "Version-agnostic anchor resource for SDTMIG variable IE.VISIT", "type": "Root Data Element"}, "self": {"href": "/mdr/sdtmig/3-1-2/datasets/IE/variables/VISIT", "title": "Visit Name", "type": "SDTM Dataset Variable"}}, "core": "Perm", "description": "1. Protocol-defined description of clinical encounter. 2. May be used in addition to VISITNUM and/or VISITDY.", "label": "Visit Name", "name": "VISIT", "ordinal": "13", "role": "Timing", "simpleDatatype": "Char"}, {"_links": {"modelClassVariable": {"href": "/mdr/sdtm/1-2/classes/GeneralObservations/variables/VISITDY", "title": "Planned Study Day of Visit", "type": "Class Variable"}, "parentDataset": {"href": "/mdr/sdtmig/3-1-2/datasets/IE", "title": "Inclusion/Exclusion Criteria Not Met", "type": "SDTM Dataset"}, "parentProduct": {"href": "/mdr/sdtmig/3-1-2", "title": "Study Data Tabulation Model Implementation Guide: Human Clinical Trials Version 3.1.2 (Final)", "type": "Implementation Guide"}, "rootItem": {"href": "/mdr/root/sdtmig/datasets/IE/variables/VISITDY", "title": "Version-agnostic anchor resource for SDTMIG variable IE.VISITDY", "type": "Root Data Element"}, "self": {"href": "/mdr/sdtmig/3-1-2/datasets/IE/variables/VISITDY", "title": "Planned Study Day of Visit", "type": "SDTM Dataset Variable"}}, "core": "Perm", "description": "Planned study day of the visit based upon RFSTDTC in Demographics.", "label": "Planned Study Day of Visit", "name": "VISITDY", "ordinal": "14", "role": "Timing", "simpleDatatype": "Num"}, {"_links": {"modelClassVariable": {"href": "/mdr/sdtm/1-2/classes/GeneralObservations/variables/--DTC", "title": "Date/Time of Collection", "type": "Class Variable"}, "parentDataset": {"href": "/mdr/sdtmig/3-1-2/datasets/IE", "title": "Inclusion/Exclusion Criteria Not Met", "type": "SDTM Dataset"}, "parentProduct": {"href": "/mdr/sdtmig/3-1-2", "title": "Study Data Tabulation Model Implementation Guide: Human Clinical Trials Version 3.1.2 (Final)", "type": "Implementation Guide"}, "rootItem": {"href": "/mdr/root/sdtmig/datasets/IE/variables/IEDTC", "title": "Version-agnostic anchor resource for SDTMIG variable IE.IEDTC", "type": "Root Data Element"}, "self": {"href": "/mdr/sdtmig/3-1-2/datasets/IE/variables/IEDTC", "title": "Date/Time of Collection", "type": "SDTM Dataset Variable"}}, "core": "Perm", "describedValueDomain": "ISO 8601", "label": "Date/Time of Collection", "name": "IEDTC", "ordinal": "15", "role": "Timing", "simpleDatatype": "Char"}, {"_links": {"modelClassVariable": {"href": "/mdr/sdtm/1-2/classes/GeneralObservations/variables/--DY", "title": "Study Day of Visit/Collection/Exam", "type": "Class Variable"}, "parentDataset": {"href": "/mdr/sdtmig/3-1-2/datasets/IE", "title": "Inclusion/Exclusion Criteria Not Met", "type": "SDTM Dataset"}, "parentProduct": {"href": "/mdr/sdtmig/3-1-2", "title": "Study Data Tabulation Model Implementation Guide: Human Clinical Trials Version 3.1.2 (Final)", "type": "Implementation Guide"}, "rootItem": {"href": "/mdr/root/sdtmig/datasets/IE/variables/IEDY", "title": "Version-agnostic anchor resource for SDTMIG variable IE.IEDY", "type": "Root Data Element"}, "self": {"href": "/mdr/sdtmig/3-1-2/datasets/IE/variables/IEDY", "title": "Study Day of Collection", "type": "SDTM Dataset Variable"}}, "core": "Perm", "description": "1. Study day of collection of the inclusion/exclusion exceptions, measured as integer days. 2. Algorithm for calculations must be relative to the sponsor-defined RFSTDTC variable in Demographics. This formula should be consistent across the submission.", "label": "Study Day of Collection", "name": "IEDY", "ordinal": "16", "role": "Timing", "simpleDatatype": "Num"}], "description": "A findings domain that contains those criteria that cause the subject to be in violation of the inclusion/exclusion criteria. (Source: CDISC Controlled Terminology, DOMAIN, C61536, 2018-06-29)", "label": "Inclusion/Exclusion Criteria Not Met", "name": "IE", "ordinal": "14"}
