{"_links": {"parentClass": {"href": "/mdr/sdtmig/3-1-2/classes/Events", "title": "Events Observation Class", "type": "Class"}, "parentProduct": {"href": "/mdr/sdtmig/3-1-2", "title": "Study Data Tabulation Model Implementation Guide: Human Clinical Trials Version 3.1.2 (Final)", "type": "Implementation Guide"}, "self": {"href": "/mdr/sdtmig/3-1-2/datasets/MH", "title": "Medical History", "type": "SDTM Dataset"}}, "datasetStructure": "One record per medical history event per subject", "datasetVariables": [{"_links": {"modelClassVariable": {"href": "/mdr/sdtm/1-2/classes/GeneralObservations/variables/STUDYID", "title": "Study Identifier", "type": "Class Variable"}, "parentDataset": {"href": "/mdr/sdtmig/3-1-2/datasets/MH", "title": "Medical History", "type": "SDTM Dataset"}, "parentProduct": {"href": "/mdr/sdtmig/3-1-2", "title": "Study Data Tabulation Model Implementation Guide: Human Clinical Trials Version 3.1.2 (Final)", "type": "Implementation Guide"}, "rootItem": {"href": "/mdr/root/sdtmig/datasets/MH/variables/STUDYID", "title": "Version-agnostic anchor resource for SDTMIG variable MH.STUDYID", "type": "Root Data Element"}, "self": {"href": "/mdr/sdtmig/3-1-2/datasets/MH/variables/STUDYID", "title": "Study Identifier", "type": "SDTM Dataset Variable"}}, "core": "Req", "description": "Unique identifier for a study.", "label": "Study Identifier", "name": "STUDYID", "ordinal": "1", "role": "Identifier", "simpleDatatype": "Char"}, {"_links": {"modelClassVariable": {"href": "/mdr/sdtm/1-2/classes/GeneralObservations/variables/DOMAIN", "title": "Domain Abbreviation", "type": "Class Variable"}, "parentDataset": {"href": "/mdr/sdtmig/3-1-2/datasets/MH", "title": "Medical History", "type": "SDTM Dataset"}, "parentProduct": {"href": "/mdr/sdtmig/3-1-2", "title": "Study Data Tabulation Model Implementation Guide: Human Clinical Trials Version 3.1.2 (Final)", "type": "Implementation Guide"}, "rootItem": {"href": "/mdr/root/sdtmig/datasets/MH/variables/DOMAIN", "title": "Version-agnostic anchor resource for SDTMIG variable MH.DOMAIN", "type": "Root Data Element"}, "self": {"href": "/mdr/sdtmig/3-1-2/datasets/MH/variables/DOMAIN", "title": "Domain Abbreviation", "type": "SDTM Dataset Variable"}}, "core": "Req", "description": "Two-character abbreviation for the domain.", "label": "Domain Abbreviation", "name": "DOMAIN", "ordinal": "2", "role": "Identifier", "simpleDatatype": "Char", "valueList": ["MH"]}, {"_links": {"modelClassVariable": {"href": "/mdr/sdtm/1-2/classes/GeneralObservations/variables/USUBJID", "title": "Unique Subject Identifier", "type": "Class Variable"}, "parentDataset": {"href": "/mdr/sdtmig/3-1-2/datasets/MH", "title": "Medical History", "type": "SDTM Dataset"}, "parentProduct": {"href": "/mdr/sdtmig/3-1-2", "title": "Study Data Tabulation Model Implementation Guide: Human Clinical Trials Version 3.1.2 (Final)", "type": "Implementation Guide"}, "rootItem": {"href": "/mdr/root/sdtmig/datasets/MH/variables/USUBJID", "title": "Version-agnostic anchor resource for SDTMIG variable MH.USUBJID", "type": "Root Data Element"}, "self": {"href": "/mdr/sdtmig/3-1-2/datasets/MH/variables/USUBJID", "title": "Unique Subject Identifier", "type": "SDTM Dataset Variable"}}, "core": "Req", "description": "Identifier used to uniquely identify a subject across all studies for all applications or submissions involving the product.", "label": "Unique Subject Identifier", "name": "USUBJID", "ordinal": "3", "role": "Identifier", "simpleDatatype": "Char"}, {"_links": {"modelClassVariable": {"href": "/mdr/sdtm/1-2/classes/GeneralObservations/variables/--SEQ", "title": "Sequence Number", "type": "Class Variable"}, "parentDataset": {"href": "/mdr/sdtmig/3-1-2/datasets/MH", "title": "Medical History", "type": "SDTM Dataset"}, "parentProduct": {"href": "/mdr/sdtmig/3-1-2", "title": "Study Data Tabulation Model Implementation Guide: Human Clinical Trials Version 3.1.2 (Final)", "type": "Implementation Guide"}, "rootItem": {"href": "/mdr/root/sdtmig/datasets/MH/variables/MHSEQ", "title": "Version-agnostic anchor resource for SDTMIG variable MH.MHSEQ", "type": "Root Data Element"}, "self": {"href": "/mdr/sdtmig/3-1-2/datasets/MH/variables/MHSEQ", "title": "Sequence Number", "type": "SDTM Dataset Variable"}}, "core": "Req", "description": "Sequence Number given to ensure uniqueness of subject records within a domain. May be any valid number.", "label": "Sequence Number", "name": "MHSEQ", "ordinal": "4", "role": "Identifier", "simpleDatatype": "Num"}, {"_links": {"modelClassVariable": {"href": "/mdr/sdtm/1-2/classes/GeneralObservations/variables/--GRPID", "title": "Group ID", "type": "Class Variable"}, "parentDataset": {"href": "/mdr/sdtmig/3-1-2/datasets/MH", "title": "Medical History", "type": "SDTM Dataset"}, "parentProduct": {"href": "/mdr/sdtmig/3-1-2", "title": "Study Data Tabulation Model Implementation Guide: Human Clinical Trials Version 3.1.2 (Final)", "type": "Implementation Guide"}, "rootItem": {"href": "/mdr/root/sdtmig/datasets/MH/variables/MHGRPID", "title": "Version-agnostic anchor resource for SDTMIG variable MH.MHGRPID", "type": "Root Data Element"}, "self": {"href": "/mdr/sdtmig/3-1-2/datasets/MH/variables/MHGRPID", "title": "Group ID", "type": "SDTM Dataset Variable"}}, "core": "Perm", "description": "Used to tie together a block of related records in a single domain for a subject.", "label": "Group ID", "name": "MHGRPID", "ordinal": "5", "role": "Identifier", "simpleDatatype": "Char"}, {"_links": {"modelClassVariable": {"href": "/mdr/sdtm/1-2/classes/GeneralObservations/variables/--REFID", "title": "Reference ID", "type": "Class Variable"}, "parentDataset": {"href": "/mdr/sdtmig/3-1-2/datasets/MH", "title": "Medical History", "type": "SDTM Dataset"}, "parentProduct": {"href": "/mdr/sdtmig/3-1-2", "title": "Study Data Tabulation Model Implementation Guide: Human Clinical Trials Version 3.1.2 (Final)", "type": "Implementation Guide"}, "rootItem": {"href": "/mdr/root/sdtmig/datasets/MH/variables/MHREFID", "title": "Version-agnostic anchor resource for SDTMIG variable MH.MHREFID", "type": "Root Data Element"}, "self": {"href": "/mdr/sdtmig/3-1-2/datasets/MH/variables/MHREFID", "title": "Reference ID", "type": "SDTM Dataset Variable"}}, "core": "Perm", "description": "Internal or external medical history identifier.", "label": "Reference ID", "name": "MHREFID", "ordinal": "6", "role": "Identifier", "simpleDatatype": "Char"}, {"_links": {"modelClassVariable": {"href": "/mdr/sdtm/1-2/classes/GeneralObservations/variables/--SPID", "title": "Sponsor ID", "type": "Class Variable"}, "parentDataset": {"href": "/mdr/sdtmig/3-1-2/datasets/MH", "title": "Medical History", "type": "SDTM Dataset"}, "parentProduct": {"href": "/mdr/sdtmig/3-1-2", "title": "Study Data Tabulation Model Implementation Guide: Human Clinical Trials Version 3.1.2 (Final)", "type": "Implementation Guide"}, "rootItem": {"href": "/mdr/root/sdtmig/datasets/MH/variables/MHSPID", "title": "Version-agnostic anchor resource for SDTMIG variable MH.MHSPID", "type": "Root Data Element"}, "self": {"href": "/mdr/sdtmig/3-1-2/datasets/MH/variables/MHSPID", "title": "Sponsor-Defined Identifier", "type": "SDTM Dataset Variable"}}, "core": "Perm", "description": "Sponsor-defined reference number. Perhaps pre-printed on the CRF as an explicit line identifier or defined in the sponsor's operational database. Example: Line number on a Medical History page.", "label": "Sponsor-Defined Identifier", "name": "MHSPID", "ordinal": "7", "role": "Identifier", "simpleDatatype": "Char"}, {"_links": {"modelClassVariable": {"href": "/mdr/sdtm/1-2/classes/Events/variables/--TERM", "title": "Reported Term", "type": "Class Variable"}, "parentDataset": {"href": "/mdr/sdtmig/3-1-2/datasets/MH", "title": "Medical History", "type": "SDTM Dataset"}, "parentProduct": {"href": "/mdr/sdtmig/3-1-2", "title": "Study Data Tabulation Model Implementation Guide: Human Clinical Trials Version 3.1.2 (Final)", "type": "Implementation Guide"}, "rootItem": {"href": "/mdr/root/sdtmig/datasets/MH/variables/MHTERM", "title": "Version-agnostic anchor resource for SDTMIG variable MH.MHTERM", "type": "Root Data Element"}, "self": {"href": "/mdr/sdtmig/3-1-2/datasets/MH/variables/MHTERM", "title": "Reported Term for the Medical History", "type": "SDTM Dataset Variable"}}, "core": "Req", "description": "Verbatim or preprinted CRF term for the medical condition or event.", "label": "Reported Term for the Medical History", "name": "MHTERM", "ordinal": "8", "role": "Topic", "simpleDatatype": "Char"}, {"_links": {"modelClassVariable": {"href": "/mdr/sdtm/1-2/classes/Events/variables/--MODIFY", "title": "Modified Reported Term", "type": "Class Variable"}, "parentDataset": {"href": "/mdr/sdtmig/3-1-2/datasets/MH", "title": "Medical History", "type": "SDTM Dataset"}, "parentProduct": {"href": "/mdr/sdtmig/3-1-2", "title": "Study Data Tabulation Model Implementation Guide: Human Clinical Trials Version 3.1.2 (Final)", "type": "Implementation Guide"}, "rootItem": {"href": "/mdr/root/sdtmig/datasets/MH/variables/MHMODIFY", "title": "Version-agnostic anchor resource for SDTMIG variable MH.MHMODIFY", "type": "Root Data Element"}, "self": {"href": "/mdr/sdtmig/3-1-2/datasets/MH/variables/MHMODIFY", "title": "Modified Reported Term", "type": "SDTM Dataset Variable"}}, "core": "Perm", "description": "If MHTERM is modified to facilitate coding, then MHMODIFY will contain the modified text.", "label": "Modified Reported Term", "name": "MHMODIFY", "ordinal": "9", "role": "Synonym Qualifier", "simpleDatatype": "Char"}, {"_links": {"modelClassVariable": {"href": "/mdr/sdtm/1-2/classes/Events/variables/--DECOD", "title": "Dictionary-Derived Term", "type": "Class Variable"}, "parentDataset": {"href": "/mdr/sdtmig/3-1-2/datasets/MH", "title": "Medical History", "type": "SDTM Dataset"}, "parentProduct": {"href": "/mdr/sdtmig/3-1-2", "title": "Study Data Tabulation Model Implementation Guide: Human Clinical Trials Version 3.1.2 (Final)", "type": "Implementation Guide"}, "rootItem": {"href": "/mdr/root/sdtmig/datasets/MH/variables/MHDECOD", "title": "Version-agnostic anchor resource for SDTMIG variable MH.MHDECOD", "type": "Root Data Element"}, "self": {"href": "/mdr/sdtmig/3-1-2/datasets/MH/variables/MHDECOD", "title": "Dictionary-Derived Term", "type": "SDTM Dataset Variable"}}, "core": "Perm", "description": "Dictionary-derived text description of MHTERM or MHMODIFY. Equivalent to the Preferred Term (PT in MedDRA). The sponsor is expected to provide the dictionary name and version used to map the terms utilizing the define.xml external codelist attributes", "label": "Dictionary-Derived Term", "name": "MHDECOD", "ordinal": "10", "role": "Synonym Qualifier", "simpleDatatype": "Char"}, {"_links": {"modelClassVariable": {"href": "/mdr/sdtm/1-2/classes/Events/variables/--CAT", "title": "Category", "type": "Class Variable"}, "parentDataset": {"href": "/mdr/sdtmig/3-1-2/datasets/MH", "title": "Medical History", "type": "SDTM Dataset"}, "parentProduct": {"href": "/mdr/sdtmig/3-1-2", "title": "Study Data Tabulation Model Implementation Guide: Human Clinical Trials Version 3.1.2 (Final)", "type": "Implementation Guide"}, "rootItem": {"href": "/mdr/root/sdtmig/datasets/MH/variables/MHCAT", "title": "Version-agnostic anchor resource for SDTMIG variable MH.MHCAT", "type": "Root Data Element"}, "self": {"href": "/mdr/sdtmig/3-1-2/datasets/MH/variables/MHCAT", "title": "Category for Medical History", "type": "SDTM Dataset Variable"}}, "core": "Perm", "description": "Used to define a category of related records. Examples: CARDIAC or GENERAL", "label": "Category for Medical History", "name": "MHCAT", "ordinal": "11", "role": "Grouping Qualifier", "simpleDatatype": "Char"}, {"_links": {"modelClassVariable": {"href": "/mdr/sdtm/1-2/classes/Events/variables/--SCAT", "title": "Subcategory", "type": "Class Variable"}, "parentDataset": {"href": "/mdr/sdtmig/3-1-2/datasets/MH", "title": "Medical History", "type": "SDTM Dataset"}, "parentProduct": {"href": "/mdr/sdtmig/3-1-2", "title": "Study Data Tabulation Model Implementation Guide: Human Clinical Trials Version 3.1.2 (Final)", "type": "Implementation Guide"}, "rootItem": {"href": "/mdr/root/sdtmig/datasets/MH/variables/MHSCAT", "title": "Version-agnostic anchor resource for SDTMIG variable MH.MHSCAT", "type": "Root Data Element"}, "self": {"href": "/mdr/sdtmig/3-1-2/datasets/MH/variables/MHSCAT", "title": "Subcategory for Medical History", "type": "SDTM Dataset Variable"}}, "core": "Perm", "description": "A further categorization of the condition or event.", "label": "Subcategory for Medical History", "name": "MHSCAT", "ordinal": "12", "role": "Grouping Qualifier", "simpleDatatype": "Char"}, {"_links": {"codelist": [{"href": "/mdr/root/ct/sdtmct/codelists/C66742", "title": "Version-agnostic anchor resource for codelist C66742", "type": "Root Value Domain"}], "modelClassVariable": {"href": "/mdr/sdtm/1-2/classes/Events/variables/--PRESP", "title": "Pre-specified", "type": "Class Variable"}, "parentDataset": {"href": "/mdr/sdtmig/3-1-2/datasets/MH", "title": "Medical History", "type": "SDTM Dataset"}, "parentProduct": {"href": "/mdr/sdtmig/3-1-2", "title": "Study Data Tabulation Model Implementation Guide: Human Clinical Trials Version 3.1.2 (Final)", "type": "Implementation Guide"}, "rootItem": {"href": "/mdr/root/sdtmig/datasets/MH/variables/MHPRESP", "title": "Version-agnostic anchor resource for SDTMIG variable MH.MHPRESP", "type": "Root Data Element"}, "self": {"href": "/mdr/sdtmig/3-1-2/datasets/MH/variables/MHPRESP", "title": "Medical History Event Pre-Specified", "type": "SDTM Dataset Variable"}}, "core": "Perm", "description": "A value of \"Y\" indicates that this medical history event was pre-specified on the CRF. Values are null for spontaneously reported events (i.e., those collected as free-text verbatim terms)", "label": "Medical History Event Pre-Specified", "name": "MHPRESP", "ordinal": "13", "role": "Record Qualifier", "simpleDatatype": "Char"}, {"_links": {"codelist": [{"href": "/mdr/root/ct/sdtmct/codelists/C66742", "title": "Version-agnostic anchor resource for codelist C66742", "type": "Root Value Domain"}], "modelClassVariable": {"href": "/mdr/sdtm/1-2/classes/Events/variables/--OCCUR", "title": "Occurrence", "type": "Class Variable"}, "parentDataset": {"href": "/mdr/sdtmig/3-1-2/datasets/MH", "title": "Medical History", "type": "SDTM Dataset"}, "parentProduct": {"href": "/mdr/sdtmig/3-1-2", "title": "Study Data Tabulation Model Implementation Guide: Human Clinical Trials Version 3.1.2 (Final)", "type": "Implementation Guide"}, "rootItem": {"href": "/mdr/root/sdtmig/datasets/MH/variables/MHOCCUR", "title": "Version-agnostic anchor resource for SDTMIG variable MH.MHOCCUR", "type": "Root Data Element"}, "self": {"href": "/mdr/sdtmig/3-1-2/datasets/MH/variables/MHOCCUR", "title": "Medical History Occurrence", "type": "SDTM Dataset Variable"}}, "core": "Perm", "description": "Used when the occurrence of specific medical history conditions is solicited to indicate whether or not (Y/N) a medical condition (MHTERM) had ever occurred. Values are null for spontaneously reported events.", "label": "Medical History Occurrence", "name": "MHOCCUR", "ordinal": "14", "role": "Record Qualifier", "simpleDatatype": "Char"}, {"_links": {"codelist": [{"href": "/mdr/root/ct/sdtmct/codelists/C66789", "title": "Version-agnostic anchor resource for codelist C66789", "type": "Root Value Domain"}], "modelClassVariable": {"href": "/mdr/sdtm/1-2/classes/Events/variables/--STAT", "title": "Completion Status", "type": "Class Variable"}, "parentDataset": {"href": "/mdr/sdtmig/3-1-2/datasets/MH", "title": "Medical History", "type": "SDTM Dataset"}, "parentProduct": {"href": "/mdr/sdtmig/3-1-2", "title": "Study Data Tabulation Model Implementation Guide: Human Clinical Trials Version 3.1.2 (Final)", "type": "Implementation Guide"}, "rootItem": {"href": "/mdr/root/sdtmig/datasets/MH/variables/MHSTAT", "title": "Version-agnostic anchor resource for SDTMIG variable MH.MHSTAT", "type": "Root Data Element"}, "self": {"href": "/mdr/sdtmig/3-1-2/datasets/MH/variables/MHSTAT", "title": "Completion Status", "type": "SDTM Dataset Variable"}}, "core": "Perm", "description": "The status indicates that the pre-specified question was not answered.", "label": "Completion Status", "name": "MHSTAT", "ordinal": "15", "role": "Record Qualifier", "simpleDatatype": "Char"}, {"_links": {"modelClassVariable": {"href": "/mdr/sdtm/1-2/classes/Events/variables/--REASND", "title": "Reason Not Done", "type": "Class Variable"}, "parentDataset": {"href": "/mdr/sdtmig/3-1-2/datasets/MH", "title": "Medical History", "type": "SDTM Dataset"}, "parentProduct": {"href": "/mdr/sdtmig/3-1-2", "title": "Study Data Tabulation Model Implementation Guide: Human Clinical Trials Version 3.1.2 (Final)", "type": "Implementation Guide"}, "rootItem": {"href": "/mdr/root/sdtmig/datasets/MH/variables/MHREASND", "title": "Version-agnostic anchor resource for SDTMIG variable MH.MHREASND", "type": "Root Data Element"}, "self": {"href": "/mdr/sdtmig/3-1-2/datasets/MH/variables/MHREASND", "title": "Reason Medical History Not Collected", "type": "SDTM Dataset Variable"}}, "core": "Perm", "description": "Describes the reason data for a pre-specified condition was not collected. Used in conjunction with MHSTAT when value is NOT DONE.", "label": "Reason Medical History Not Collected", "name": "MHREASND", "ordinal": "16", "role": "Record Qualifier", "simpleDatatype": "Char"}, {"_links": {"modelClassVariable": {"href": "/mdr/sdtm/1-2/classes/Events/variables/--BODSYS", "title": "Body System or Organ Class", "type": "Class Variable"}, "parentDataset": {"href": "/mdr/sdtmig/3-1-2/datasets/MH", "title": "Medical History", "type": "SDTM Dataset"}, "parentProduct": {"href": "/mdr/sdtmig/3-1-2", "title": "Study Data Tabulation Model Implementation Guide: Human Clinical Trials Version 3.1.2 (Final)", "type": "Implementation Guide"}, "rootItem": {"href": "/mdr/root/sdtmig/datasets/MH/variables/MHBODSYS", "title": "Version-agnostic anchor resource for SDTMIG variable MH.MHBODSYS", "type": "Root Data Element"}, "self": {"href": "/mdr/sdtmig/3-1-2/datasets/MH/variables/MHBODSYS", "title": "Body System or Organ Class", "type": "SDTM Dataset Variable"}}, "core": "Perm", "description": "Dictionary-derived. Body system or organ class that is involved in an event or measurement from a standard hierarchy (e.g., MedDRA). When using a multi-axial dictionary such as MedDRA, this should contain the SOC used for the sponsor's analyses and summary tables which may not necessarily be the primary SOC.", "label": "Body System or Organ Class", "name": "MHBODSYS", "ordinal": "17", "role": "Record Qualifier", "simpleDatatype": "Char"}, {"_links": {"modelClassVariable": {"href": "/mdr/sdtm/1-2/classes/GeneralObservations/variables/--DTC", "title": "Date/Time of Collection", "type": "Class Variable"}, "parentDataset": {"href": "/mdr/sdtmig/3-1-2/datasets/MH", "title": "Medical History", "type": "SDTM Dataset"}, "parentProduct": {"href": "/mdr/sdtmig/3-1-2", "title": "Study Data Tabulation Model Implementation Guide: Human Clinical Trials Version 3.1.2 (Final)", "type": "Implementation Guide"}, "rootItem": {"href": "/mdr/root/sdtmig/datasets/MH/variables/MHDTC", "title": "Version-agnostic anchor resource for SDTMIG variable MH.MHDTC", "type": "Root Data Element"}, "self": {"href": "/mdr/sdtmig/3-1-2/datasets/MH/variables/MHDTC", "title": "Date/Time of History Collection", "type": "SDTM Dataset Variable"}}, "core": "Perm", "describedValueDomain": "ISO 8601", "label": "Date/Time of History Collection", "name": "MHDTC", "ordinal": "18", "role": "Timing", "simpleDatatype": "Char"}, {"_links": {"modelClassVariable": {"href": "/mdr/sdtm/1-2/classes/GeneralObservations/variables/--STDTC", "title": "Start Date/Time of Observation", "type": "Class Variable"}, "parentDataset": {"href": "/mdr/sdtmig/3-1-2/datasets/MH", "title": "Medical History", "type": "SDTM Dataset"}, "parentProduct": {"href": "/mdr/sdtmig/3-1-2", "title": "Study Data Tabulation Model Implementation Guide: Human Clinical Trials Version 3.1.2 (Final)", "type": "Implementation Guide"}, "rootItem": {"href": "/mdr/root/sdtmig/datasets/MH/variables/MHSTDTC", "title": "Version-agnostic anchor resource for SDTMIG variable MH.MHSTDTC", "type": "Root Data Element"}, "self": {"href": "/mdr/sdtmig/3-1-2/datasets/MH/variables/MHSTDTC", "title": "Start Date/Time of Medical History Event", "type": "SDTM Dataset Variable"}}, "core": "Perm", "describedValueDomain": "ISO 8601", "label": "Start Date/Time of Medical History Event", "name": "MHSTDTC", "ordinal": "19", "role": "Timing", "simpleDatatype": "Char"}, {"_links": {"modelClassVariable": {"href": "/mdr/sdtm/1-2/classes/GeneralObservations/variables/--ENDTC", "title": "End Date/Time of Observation", "type": "Class Variable"}, "parentDataset": {"href": "/mdr/sdtmig/3-1-2/datasets/MH", "title": "Medical History", "type": "SDTM Dataset"}, "parentProduct": {"href": "/mdr/sdtmig/3-1-2", "title": "Study Data Tabulation Model Implementation Guide: Human Clinical Trials Version 3.1.2 (Final)", "type": "Implementation Guide"}, "rootItem": {"href": "/mdr/root/sdtmig/datasets/MH/variables/MHENDTC", "title": "Version-agnostic anchor resource for SDTMIG variable MH.MHENDTC", "type": "Root Data Element"}, "self": {"href": "/mdr/sdtmig/3-1-2/datasets/MH/variables/MHENDTC", "title": "End Date/Time of Medical History Event", "type": "SDTM Dataset Variable"}}, "core": "Perm", "describedValueDomain": "ISO 8601", "label": "End Date/Time of Medical History Event", "name": "MHENDTC", "ordinal": "20", "role": "Timing", "simpleDatatype": "Char"}, {"_links": {"modelClassVariable": {"href": "/mdr/sdtm/1-2/classes/GeneralObservations/variables/--DY", "title": "Study Day of Visit/Collection/Exam", "type": "Class Variable"}, "parentDataset": {"href": "/mdr/sdtmig/3-1-2/datasets/MH", "title": "Medical History", "type": "SDTM Dataset"}, "parentProduct": {"href": "/mdr/sdtmig/3-1-2", "title": "Study Data Tabulation Model Implementation Guide: Human Clinical Trials Version 3.1.2 (Final)", "type": "Implementation Guide"}, "rootItem": {"href": "/mdr/root/sdtmig/datasets/MH/variables/MHDY", "title": "Version-agnostic anchor resource for SDTMIG variable MH.MHDY", "type": "Root Data Element"}, "self": {"href": "/mdr/sdtmig/3-1-2/datasets/MH/variables/MHDY", "title": "Study Day of History Collection", "type": "SDTM Dataset Variable"}}, "core": "Perm", "description": "1. Study day of medical history collection, measured as integer days. 2. Algorithm for calculations must be relative to the sponsor-defined RFSTDTC variable in Demographics. This formula should be consistent across the submission.", "label": "Study Day of History Collection", "name": "MHDY", "ordinal": "21", "role": "Timing", "simpleDatatype": "Num"}, {"_links": {"codelist": [{"href": "/mdr/root/ct/sdtmct/codelists/C66728", "title": "Version-agnostic anchor resource for codelist C66728", "type": "Root Value Domain"}], "modelClassVariable": {"href": "/mdr/sdtm/1-2/classes/GeneralObservations/variables/--ENRF", "title": "End Relative to Reference Period", "type": "Class Variable"}, "parentDataset": {"href": "/mdr/sdtmig/3-1-2/datasets/MH", "title": "Medical History", "type": "SDTM Dataset"}, "parentProduct": {"href": "/mdr/sdtmig/3-1-2", "title": "Study Data Tabulation Model Implementation Guide: Human Clinical Trials Version 3.1.2 (Final)", "type": "Implementation Guide"}, "rootItem": {"href": "/mdr/root/sdtmig/datasets/MH/variables/MHENRF", "title": "Version-agnostic anchor resource for SDTMIG variable MH.MHENRF", "type": "Root Data Element"}, "self": {"href": "/mdr/sdtmig/3-1-2/datasets/MH/variables/MHENRF", "title": "End Relative to Reference Period", "type": "SDTM Dataset Variable"}}, "core": "Perm", "description": "Describes the end of the event relative to the sponsor-defined reference period. The sponsor-defined reference period is a continuous period of time defined by a discrete starting point and a discrete ending point (represented by RFSTDTC and RFENDTC in Demographics)", "label": "End Relative to Reference Period", "name": "MHENRF", "ordinal": "22", "role": "Timing", "simpleDatatype": "Char"}, {"_links": {"modelClassVariable": {"href": "/mdr/sdtm/1-2/classes/GeneralObservations/variables/--ENRTPT", "title": "End Relative to Reference Time Point", "type": "Class Variable"}, "parentDataset": {"href": "/mdr/sdtmig/3-1-2/datasets/MH", "title": "Medical History", "type": "SDTM Dataset"}, "parentProduct": {"href": "/mdr/sdtmig/3-1-2", "title": "Study Data Tabulation Model Implementation Guide: Human Clinical Trials Version 3.1.2 (Final)", "type": "Implementation Guide"}, "rootItem": {"href": "/mdr/root/sdtmig/datasets/MH/variables/MHENRTPT", "title": "Version-agnostic anchor resource for SDTMIG variable MH.MHENRTPT", "type": "Root Data Element"}, "self": {"href": "/mdr/sdtmig/3-1-2/datasets/MH/variables/MHENRTPT", "title": "End Relative to Reference Time Point", "type": "SDTM Dataset Variable"}}, "core": "Perm", "description": "Identifies the end of the event as being before or after the reference time point defined by variable MHENTPT.", "label": "End Relative to Reference Time Point", "name": "MHENRTPT", "ordinal": "23", "role": "Timing", "simpleDatatype": "Char", "valueList": ["AFTER", "BEFORE", "COINCIDENT", "ONGOING", "U"]}, {"_links": {"modelClassVariable": {"href": "/mdr/sdtm/1-2/classes/GeneralObservations/variables/--ENTPT", "title": "End Reference Time Point", "type": "Class Variable"}, "parentDataset": {"href": "/mdr/sdtmig/3-1-2/datasets/MH", "title": "Medical History", "type": "SDTM Dataset"}, "parentProduct": {"href": "/mdr/sdtmig/3-1-2", "title": "Study Data Tabulation Model Implementation Guide: Human Clinical Trials Version 3.1.2 (Final)", "type": "Implementation Guide"}, "rootItem": {"href": "/mdr/root/sdtmig/datasets/MH/variables/MHENTPT", "title": "Version-agnostic anchor resource for SDTMIG variable MH.MHENTPT", "type": "Root Data Element"}, "self": {"href": "/mdr/sdtmig/3-1-2/datasets/MH/variables/MHENTPT", "title": "End Reference Time Point", "type": "SDTM Dataset Variable"}}, "core": "Perm", "description": "Description or date/time in ISO 8601 character format of the reference point referred to by MHENRTPT. Examples: \"2003-12-25\" or \"VISIT 2\".", "label": "End Reference Time Point", "name": "MHENTPT", "ordinal": "24", "role": "Timing", "simpleDatatype": "Char"}], "description": "An events domain that contains data that includes the subject's prior medical history at the start of the trial. (Source: CDISC Controlled Terminology, DOMAIN, C49603, 2018-06-29)", "label": "Medical History", "name": "MH", "ordinal": "10"}
