{"_links": {"parentClass": {"href": "/mdr/sdtmig/3-1-2/classes/Findings", "title": "Findings Observation Class", "type": "Class"}, "parentProduct": {"href": "/mdr/sdtmig/3-1-2", "title": "Study Data Tabulation Model Implementation Guide: Human Clinical Trials Version 3.1.2 (Final)", "type": "Implementation Guide"}, "self": {"href": "/mdr/sdtmig/3-1-2/datasets/PE", "title": "Physical Examination", "type": "SDTM Dataset"}}, "datasetStructure": "One record per body system or abnormality per visit per subject", "datasetVariables": [{"_links": {"modelClassVariable": {"href": "/mdr/sdtm/1-2/classes/GeneralObservations/variables/STUDYID", "title": "Study Identifier", "type": "Class Variable"}, "parentDataset": {"href": "/mdr/sdtmig/3-1-2/datasets/PE", "title": "Physical Examination", "type": "SDTM Dataset"}, "parentProduct": {"href": "/mdr/sdtmig/3-1-2", "title": "Study Data Tabulation Model Implementation Guide: Human Clinical Trials Version 3.1.2 (Final)", "type": "Implementation Guide"}, "rootItem": {"href": "/mdr/root/sdtmig/datasets/PE/variables/STUDYID", "title": "Version-agnostic anchor resource for SDTMIG variable PE.STUDYID", "type": "Root Data Element"}, "self": {"href": "/mdr/sdtmig/3-1-2/datasets/PE/variables/STUDYID", "title": "Study Identifier", "type": "SDTM Dataset Variable"}}, "core": "Req", "description": "Unique identifier for a study.", "label": "Study Identifier", "name": "STUDYID", "ordinal": "1", "role": "Identifier", "simpleDatatype": "Char"}, {"_links": {"modelClassVariable": {"href": "/mdr/sdtm/1-2/classes/GeneralObservations/variables/DOMAIN", "title": "Domain Abbreviation", "type": "Class Variable"}, "parentDataset": {"href": "/mdr/sdtmig/3-1-2/datasets/PE", "title": "Physical Examination", "type": "SDTM Dataset"}, "parentProduct": {"href": "/mdr/sdtmig/3-1-2", "title": "Study Data Tabulation Model Implementation Guide: Human Clinical Trials Version 3.1.2 (Final)", "type": "Implementation Guide"}, "rootItem": {"href": "/mdr/root/sdtmig/datasets/PE/variables/DOMAIN", "title": "Version-agnostic anchor resource for SDTMIG variable PE.DOMAIN", "type": "Root Data Element"}, "self": {"href": "/mdr/sdtmig/3-1-2/datasets/PE/variables/DOMAIN", "title": "Domain Abbreviation", "type": "SDTM Dataset Variable"}}, "core": "Req", "description": "Two-character abbreviation for the domain.", "label": "Domain Abbreviation", "name": "DOMAIN", "ordinal": "2", "role": "Identifier", "simpleDatatype": "Char", "valueList": ["PE"]}, {"_links": {"modelClassVariable": {"href": "/mdr/sdtm/1-2/classes/GeneralObservations/variables/USUBJID", "title": "Unique Subject Identifier", "type": "Class Variable"}, "parentDataset": {"href": "/mdr/sdtmig/3-1-2/datasets/PE", "title": "Physical Examination", "type": "SDTM Dataset"}, "parentProduct": {"href": "/mdr/sdtmig/3-1-2", "title": "Study Data Tabulation Model Implementation Guide: Human Clinical Trials Version 3.1.2 (Final)", "type": "Implementation Guide"}, "rootItem": {"href": "/mdr/root/sdtmig/datasets/PE/variables/USUBJID", "title": "Version-agnostic anchor resource for SDTMIG variable PE.USUBJID", "type": "Root Data Element"}, "self": {"href": "/mdr/sdtmig/3-1-2/datasets/PE/variables/USUBJID", "title": "Unique Subject Identifier", "type": "SDTM Dataset Variable"}}, "core": "Req", "description": "Identifier used to uniquely identify a subject across all studies for all applications or submissions involving the product.", "label": "Unique Subject Identifier", "name": "USUBJID", "ordinal": "3", "role": "Identifier", "simpleDatatype": "Char"}, {"_links": {"modelClassVariable": {"href": "/mdr/sdtm/1-2/classes/GeneralObservations/variables/--SEQ", "title": "Sequence Number", "type": "Class Variable"}, "parentDataset": {"href": "/mdr/sdtmig/3-1-2/datasets/PE", "title": "Physical Examination", "type": "SDTM Dataset"}, "parentProduct": {"href": "/mdr/sdtmig/3-1-2", "title": "Study Data Tabulation Model Implementation Guide: Human Clinical Trials Version 3.1.2 (Final)", "type": "Implementation Guide"}, "rootItem": {"href": "/mdr/root/sdtmig/datasets/PE/variables/PESEQ", "title": "Version-agnostic anchor resource for SDTMIG variable PE.PESEQ", "type": "Root Data Element"}, "self": {"href": "/mdr/sdtmig/3-1-2/datasets/PE/variables/PESEQ", "title": "Sequence Number", "type": "SDTM Dataset Variable"}}, "core": "Req", "description": "Sequence Number given to ensure uniqueness of subject records within a domain. May be any valid number.", "label": "Sequence Number", "name": "PESEQ", "ordinal": "4", "role": "Identifier", "simpleDatatype": "Num"}, {"_links": {"modelClassVariable": {"href": "/mdr/sdtm/1-2/classes/GeneralObservations/variables/--GRPID", "title": "Group ID", "type": "Class Variable"}, "parentDataset": {"href": "/mdr/sdtmig/3-1-2/datasets/PE", "title": "Physical Examination", "type": "SDTM Dataset"}, "parentProduct": {"href": "/mdr/sdtmig/3-1-2", "title": "Study Data Tabulation Model Implementation Guide: Human Clinical Trials Version 3.1.2 (Final)", "type": "Implementation Guide"}, "rootItem": {"href": "/mdr/root/sdtmig/datasets/PE/variables/PEGRPID", "title": "Version-agnostic anchor resource for SDTMIG variable PE.PEGRPID", "type": "Root Data Element"}, "self": {"href": "/mdr/sdtmig/3-1-2/datasets/PE/variables/PEGRPID", "title": "Group ID", "type": "SDTM Dataset Variable"}}, "core": "Perm", "description": "Used to tie together a block of related records in a single domain for a subject.", "label": "Group ID", "name": "PEGRPID", "ordinal": "5", "role": "Identifier", "simpleDatatype": "Char"}, {"_links": {"modelClassVariable": {"href": "/mdr/sdtm/1-2/classes/GeneralObservations/variables/--SPID", "title": "Sponsor ID", "type": "Class Variable"}, "parentDataset": {"href": "/mdr/sdtmig/3-1-2/datasets/PE", "title": "Physical Examination", "type": "SDTM Dataset"}, "parentProduct": {"href": "/mdr/sdtmig/3-1-2", "title": "Study Data Tabulation Model Implementation Guide: Human Clinical Trials Version 3.1.2 (Final)", "type": "Implementation Guide"}, "rootItem": {"href": "/mdr/root/sdtmig/datasets/PE/variables/PESPID", "title": "Version-agnostic anchor resource for SDTMIG variable PE.PESPID", "type": "Root Data Element"}, "self": {"href": "/mdr/sdtmig/3-1-2/datasets/PE/variables/PESPID", "title": "Sponsor-Defined Identifier", "type": "SDTM Dataset Variable"}}, "core": "Perm", "description": "Sponsor-defined reference number. Perhaps pre-printed on the CRF as an explicit line identifier or defined in the sponsor's operational database. Example: Line number on a CRF.", "label": "Sponsor-Defined Identifier", "name": "PESPID", "ordinal": "6", "role": "Identifier", "simpleDatatype": "Char"}, {"_links": {"modelClassVariable": {"href": "/mdr/sdtm/1-2/classes/Findings/variables/--TESTCD", "title": "Short Name of Measurement, Test or Examination", "type": "Class Variable"}, "parentDataset": {"href": "/mdr/sdtmig/3-1-2/datasets/PE", "title": "Physical Examination", "type": "SDTM Dataset"}, "parentProduct": {"href": "/mdr/sdtmig/3-1-2", "title": "Study Data Tabulation Model Implementation Guide: Human Clinical Trials Version 3.1.2 (Final)", "type": "Implementation Guide"}, "rootItem": {"href": "/mdr/root/sdtmig/datasets/PE/variables/PETESTCD", "title": "Version-agnostic anchor resource for SDTMIG variable PE.PETESTCD", "type": "Root Data Element"}, "self": {"href": "/mdr/sdtmig/3-1-2/datasets/PE/variables/PETESTCD", "title": "Body System Examined Short Name", "type": "SDTM Dataset Variable"}}, "core": "Req", "description": "Short name of the measurement, test, or examination described in PETEST. It can be used as a column name when converting a dataset from a vertical to a horizontal format. The value in PETESTCD cannot be longer than 8 characters, nor can it start with a number (e.g.\"1TEST\"). PETESTCD cannot contain characters other than letters, numbers, or underscores.", "label": "Body System Examined Short Name", "name": "PETESTCD", "ordinal": "7", "role": "Topic", "simpleDatatype": "Char"}, {"_links": {"modelClassVariable": {"href": "/mdr/sdtm/1-2/classes/Findings/variables/--TEST", "title": "Name of Measurement, Test or Examination", "type": "Class Variable"}, "parentDataset": {"href": "/mdr/sdtmig/3-1-2/datasets/PE", "title": "Physical Examination", "type": "SDTM Dataset"}, "parentProduct": {"href": "/mdr/sdtmig/3-1-2", "title": "Study Data Tabulation Model Implementation Guide: Human Clinical Trials Version 3.1.2 (Final)", "type": "Implementation Guide"}, "rootItem": {"href": "/mdr/root/sdtmig/datasets/PE/variables/PETEST", "title": "Version-agnostic anchor resource for SDTMIG variable PE.PETEST", "type": "Root Data Element"}, "self": {"href": "/mdr/sdtmig/3-1-2/datasets/PE/variables/PETEST", "title": "Body System Examined", "type": "SDTM Dataset Variable"}}, "core": "Req", "description": "Verbatim term part of the body examined. The value in PETEST cannot be longer than 40 characters. Examples: Cardiovascular and Respiratory. For subject-level exam, value should be \"Physical Examination\".", "label": "Body System Examined", "name": "PETEST", "ordinal": "8", "role": "Synonym Qualifier", "simpleDatatype": "Char"}, {"_links": {"modelClassVariable": {"href": "/mdr/sdtm/1-2/classes/Findings/variables/--MODIFY", "title": "Modified Term", "type": "Class Variable"}, "parentDataset": {"href": "/mdr/sdtmig/3-1-2/datasets/PE", "title": "Physical Examination", "type": "SDTM Dataset"}, "parentProduct": {"href": "/mdr/sdtmig/3-1-2", "title": "Study Data Tabulation Model Implementation Guide: Human Clinical Trials Version 3.1.2 (Final)", "type": "Implementation Guide"}, "rootItem": {"href": "/mdr/root/sdtmig/datasets/PE/variables/PEMODIFY", "title": "Version-agnostic anchor resource for SDTMIG variable PE.PEMODIFY", "type": "Root Data Element"}, "self": {"href": "/mdr/sdtmig/3-1-2/datasets/PE/variables/PEMODIFY", "title": "Modified Reported Term", "type": "SDTM Dataset Variable"}}, "core": "Perm", "description": "If PEORRES is modified as part of a defined procedure, then PEMODIFY will contain the modified text.", "label": "Modified Reported Term", "name": "PEMODIFY", "ordinal": "9", "role": "Synonym Qualifier", "simpleDatatype": "Char"}, {"_links": {"modelClassVariable": {"href": "/mdr/sdtm/1-2/classes/Findings/variables/--CAT", "title": "Category", "type": "Class Variable"}, "parentDataset": {"href": "/mdr/sdtmig/3-1-2/datasets/PE", "title": "Physical Examination", "type": "SDTM Dataset"}, "parentProduct": {"href": "/mdr/sdtmig/3-1-2", "title": "Study Data Tabulation Model Implementation Guide: Human Clinical Trials Version 3.1.2 (Final)", "type": "Implementation Guide"}, "rootItem": {"href": "/mdr/root/sdtmig/datasets/PE/variables/PECAT", "title": "Version-agnostic anchor resource for SDTMIG variable PE.PECAT", "type": "Root Data Element"}, "self": {"href": "/mdr/sdtmig/3-1-2/datasets/PE/variables/PECAT", "title": "Category for Examination", "type": "SDTM Dataset Variable"}}, "core": "Perm", "description": "Used to define a category of examination. Examples: GENERAL, NEUROLOGICAL.", "label": "Category for Examination", "name": "PECAT", "ordinal": "10", "role": "Grouping Qualifier", "simpleDatatype": "Char"}, {"_links": {"modelClassVariable": {"href": "/mdr/sdtm/1-2/classes/Findings/variables/--SCAT", "title": "Subcategory", "type": "Class Variable"}, "parentDataset": {"href": "/mdr/sdtmig/3-1-2/datasets/PE", "title": "Physical Examination", "type": "SDTM Dataset"}, "parentProduct": {"href": "/mdr/sdtmig/3-1-2", "title": "Study Data Tabulation Model Implementation Guide: Human Clinical Trials Version 3.1.2 (Final)", "type": "Implementation Guide"}, "rootItem": {"href": "/mdr/root/sdtmig/datasets/PE/variables/PESCAT", "title": "Version-agnostic anchor resource for SDTMIG variable PE.PESCAT", "type": "Root Data Element"}, "self": {"href": "/mdr/sdtmig/3-1-2/datasets/PE/variables/PESCAT", "title": "Subcategory for Examination", "type": "SDTM Dataset Variable"}}, "core": "Perm", "description": "A further categorization of the examination. Used if needed to add further detail to PECAT.", "label": "Subcategory for Examination", "name": "PESCAT", "ordinal": "11", "role": "Grouping Qualifier", "simpleDatatype": "Char"}, {"_links": {"modelClassVariable": {"href": "/mdr/sdtm/1-2/classes/Findings/variables/--BODSYS", "title": "Body System or Organ Class", "type": "Class Variable"}, "parentDataset": {"href": "/mdr/sdtmig/3-1-2/datasets/PE", "title": "Physical Examination", "type": "SDTM Dataset"}, "parentProduct": {"href": "/mdr/sdtmig/3-1-2", "title": "Study Data Tabulation Model Implementation Guide: Human Clinical Trials Version 3.1.2 (Final)", "type": "Implementation Guide"}, "rootItem": {"href": "/mdr/root/sdtmig/datasets/PE/variables/PEBODSYS", "title": "Version-agnostic anchor resource for SDTMIG variable PE.PEBODSYS", "type": "Root Data Element"}, "self": {"href": "/mdr/sdtmig/3-1-2/datasets/PE/variables/PEBODSYS", "title": "Body System or Organ Class", "type": "SDTM Dataset Variable"}}, "core": "Perm", "description": "1. Body system or organ class ( MedDRA SOC) that is involved in a measurement from the standard hierarchy (e.g., MedDRA).", "label": "Body System or Organ Class", "name": "PEBODSYS", "ordinal": "12", "role": "Result Qualifier", "simpleDatatype": "Char"}, {"_links": {"modelClassVariable": {"href": "/mdr/sdtm/1-2/classes/Findings/variables/--ORRES", "title": "Result or Finding in Original Units", "type": "Class Variable"}, "parentDataset": {"href": "/mdr/sdtmig/3-1-2/datasets/PE", "title": "Physical Examination", "type": "SDTM Dataset"}, "parentProduct": {"href": "/mdr/sdtmig/3-1-2", "title": "Study Data Tabulation Model Implementation Guide: Human Clinical Trials Version 3.1.2 (Final)", "type": "Implementation Guide"}, "rootItem": {"href": "/mdr/root/sdtmig/datasets/PE/variables/PEORRES", "title": "Version-agnostic anchor resource for SDTMIG variable PE.PEORRES", "type": "Root Data Element"}, "self": {"href": "/mdr/sdtmig/3-1-2/datasets/PE/variables/PEORRES", "title": "Verbatim Examination Finding", "type": "SDTM Dataset Variable"}}, "core": "Exp", "description": "Text description of any abnormal findings. If the examination was completed and there were no abnormal findings, the value should be NORMAL. If the examination was not performed on a particular body system, or at the subject level, then the value should be null, and NOT DONE should appear in PESTAT.", "label": "Verbatim Examination Finding", "name": "PEORRES", "ordinal": "13", "role": "Result Qualifier", "simpleDatatype": "Char"}, {"_links": {"codelist": [{"href": "/mdr/root/ct/sdtmct/codelists/C71620", "title": "Version-agnostic anchor resource for codelist C71620", "type": "Root Value Domain"}], "modelClassVariable": {"href": "/mdr/sdtm/1-2/classes/Findings/variables/--ORRESU", "title": "Original Units", "type": "Class Variable"}, "parentDataset": {"href": "/mdr/sdtmig/3-1-2/datasets/PE", "title": "Physical Examination", "type": "SDTM Dataset"}, "parentProduct": {"href": "/mdr/sdtmig/3-1-2", "title": "Study Data Tabulation Model Implementation Guide: Human Clinical Trials Version 3.1.2 (Final)", "type": "Implementation Guide"}, "rootItem": {"href": "/mdr/root/sdtmig/datasets/PE/variables/PEORRESU", "title": "Version-agnostic anchor resource for SDTMIG variable PE.PEORRESU", "type": "Root Data Element"}, "self": {"href": "/mdr/sdtmig/3-1-2/datasets/PE/variables/PEORRESU", "title": "Original Units", "type": "SDTM Dataset Variable"}}, "core": "Perm", "description": "Original units in which the data were collected. The unit for PEORRES.", "label": "Original Units", "name": "PEORRESU", "ordinal": "14", "role": "Variable Qualifier", "simpleDatatype": "Char"}, {"_links": {"modelClassVariable": {"href": "/mdr/sdtm/1-2/classes/Findings/variables/--STRESC", "title": "Result or Finding in Standard Format", "type": "Class Variable"}, "parentDataset": {"href": "/mdr/sdtmig/3-1-2/datasets/PE", "title": "Physical Examination", "type": "SDTM Dataset"}, "parentProduct": {"href": "/mdr/sdtmig/3-1-2", "title": "Study Data Tabulation Model Implementation Guide: Human Clinical Trials Version 3.1.2 (Final)", "type": "Implementation Guide"}, "rootItem": {"href": "/mdr/root/sdtmig/datasets/PE/variables/PESTRESC", "title": "Version-agnostic anchor resource for SDTMIG variable PE.PESTRESC", "type": "Root Data Element"}, "self": {"href": "/mdr/sdtmig/3-1-2/datasets/PE/variables/PESTRESC", "title": "Character Result/Finding in Std Format", "type": "SDTM Dataset Variable"}}, "core": "Exp", "description": "If there are findings for a body system, then either the dictionary preferred term (if findings are coded using a dictionary) or PEORRES (if findings are not coded) should appear here. If PEORRES is null, PESTRESC should be null", "label": "Character Result/Finding in Std Format", "name": "PESTRESC", "ordinal": "15", "role": "Result Qualifier", "simpleDatatype": "Char"}, {"_links": {"codelist": [{"href": "/mdr/root/ct/sdtmct/codelists/C66789", "title": "Version-agnostic anchor resource for codelist C66789", "type": "Root Value Domain"}], "modelClassVariable": {"href": "/mdr/sdtm/1-2/classes/Findings/variables/--STAT", "title": "Completion Status", "type": "Class Variable"}, "parentDataset": {"href": "/mdr/sdtmig/3-1-2/datasets/PE", "title": "Physical Examination", "type": "SDTM Dataset"}, "parentProduct": {"href": "/mdr/sdtmig/3-1-2", "title": "Study Data Tabulation Model Implementation Guide: Human Clinical Trials Version 3.1.2 (Final)", "type": "Implementation Guide"}, "rootItem": {"href": "/mdr/root/sdtmig/datasets/PE/variables/PESTAT", "title": "Version-agnostic anchor resource for SDTMIG variable PE.PESTAT", "type": "Root Data Element"}, "self": {"href": "/mdr/sdtmig/3-1-2/datasets/PE/variables/PESTAT", "title": "Completion Status", "type": "SDTM Dataset Variable"}}, "core": "Perm", "description": "Used to indicate exam not done. Should be null if a result exists in PEORRES.", "label": "Completion Status", "name": "PESTAT", "ordinal": "16", "role": "Record Qualifier", "simpleDatatype": "Char"}, {"_links": {"modelClassVariable": {"href": "/mdr/sdtm/1-2/classes/Findings/variables/--REASND", "title": "Reason Not Done", "type": "Class Variable"}, "parentDataset": {"href": "/mdr/sdtmig/3-1-2/datasets/PE", "title": "Physical Examination", "type": "SDTM Dataset"}, "parentProduct": {"href": "/mdr/sdtmig/3-1-2", "title": "Study Data Tabulation Model Implementation Guide: Human Clinical Trials Version 3.1.2 (Final)", "type": "Implementation Guide"}, "rootItem": {"href": "/mdr/root/sdtmig/datasets/PE/variables/PEREASND", "title": "Version-agnostic anchor resource for SDTMIG variable PE.PEREASND", "type": "Root Data Element"}, "self": {"href": "/mdr/sdtmig/3-1-2/datasets/PE/variables/PEREASND", "title": "Reason Not Examined", "type": "SDTM Dataset Variable"}}, "core": "Perm", "description": "Describes why an examination was not performed or why a body system was not examined. Example: SUBJECT REFUSED. Used in conjunction with STAT when value is NOT DONE.", "label": "Reason Not Examined", "name": "PEREASND", "ordinal": "17", "role": "Record Qualifier", "simpleDatatype": "Char"}, {"_links": {"codelist": [{"href": "/mdr/root/ct/sdtmct/codelists/C74456", "title": "Version-agnostic anchor resource for codelist C74456", "type": "Root Value Domain"}], "modelClassVariable": {"href": "/mdr/sdtm/1-2/classes/Findings/variables/--LOC", "title": "Location Used for the Measurement", "type": "Class Variable"}, "parentDataset": {"href": "/mdr/sdtmig/3-1-2/datasets/PE", "title": "Physical Examination", "type": "SDTM Dataset"}, "parentProduct": {"href": "/mdr/sdtmig/3-1-2", "title": "Study Data Tabulation Model Implementation Guide: Human Clinical Trials Version 3.1.2 (Final)", "type": "Implementation Guide"}, "rootItem": {"href": "/mdr/root/sdtmig/datasets/PE/variables/PELOC", "title": "Version-agnostic anchor resource for SDTMIG variable PE.PELOC", "type": "Root Data Element"}, "self": {"href": "/mdr/sdtmig/3-1-2/datasets/PE/variables/PELOC", "title": "Location of Physical Exam Finding", "type": "SDTM Dataset Variable"}}, "core": "Perm", "description": "Can be used to specify where a physical exam finding occurred. Example: LEFT ARM for skin rash.", "label": "Location of Physical Exam Finding", "name": "PELOC", "ordinal": "18", "role": "Record Qualifier", "simpleDatatype": "Char"}, {"_links": {"modelClassVariable": {"href": "/mdr/sdtm/1-2/classes/Findings/variables/--METHOD", "title": "Method of Test or Examination", "type": "Class Variable"}, "parentDataset": {"href": "/mdr/sdtmig/3-1-2/datasets/PE", "title": "Physical Examination", "type": "SDTM Dataset"}, "parentProduct": {"href": "/mdr/sdtmig/3-1-2", "title": "Study Data Tabulation Model Implementation Guide: Human Clinical Trials Version 3.1.2 (Final)", "type": "Implementation Guide"}, "rootItem": {"href": "/mdr/root/sdtmig/datasets/PE/variables/PEMETHOD", "title": "Version-agnostic anchor resource for SDTMIG variable PE.PEMETHOD", "type": "Root Data Element"}, "self": {"href": "/mdr/sdtmig/3-1-2/datasets/PE/variables/PEMETHOD", "title": "Method of Test or Examination", "type": "SDTM Dataset Variable"}}, "core": "Perm", "description": "Method of the test or examination. Examples: XRAY, MRI.", "label": "Method of Test or Examination", "name": "PEMETHOD", "ordinal": "19", "role": "Record Qualifier", "simpleDatatype": "Char"}, {"_links": {"modelClassVariable": {"href": "/mdr/sdtm/1-2/classes/Findings/variables/--EVAL", "title": "Evaluator", "type": "Class Variable"}, "parentDataset": {"href": "/mdr/sdtmig/3-1-2/datasets/PE", "title": "Physical Examination", "type": "SDTM Dataset"}, "parentProduct": {"href": "/mdr/sdtmig/3-1-2", "title": "Study Data Tabulation Model Implementation Guide: Human Clinical Trials Version 3.1.2 (Final)", "type": "Implementation Guide"}, "rootItem": {"href": "/mdr/root/sdtmig/datasets/PE/variables/PEEVAL", "title": "Version-agnostic anchor resource for SDTMIG variable PE.PEEVAL", "type": "Root Data Element"}, "self": {"href": "/mdr/sdtmig/3-1-2/datasets/PE/variables/PEEVAL", "title": "Evaluator", "type": "SDTM Dataset Variable"}}, "core": "Perm", "description": "Role of the person who provided the evaluation. Used only for results that are subjective (e.g., assigned by a person or a group). Should be null for records that contain collected or derived data. Examples: INVESTIGATOR, ADJUDICATION COMMITTEE, VENDOR.", "label": "Evaluator", "name": "PEEVAL", "ordinal": "20", "role": "Record Qualifier", "simpleDatatype": "Char"}, {"_links": {"modelClassVariable": {"href": "/mdr/sdtm/1-2/classes/GeneralObservations/variables/VISITNUM", "title": "Visit Number", "type": "Class Variable"}, "parentDataset": {"href": "/mdr/sdtmig/3-1-2/datasets/PE", "title": "Physical Examination", "type": "SDTM Dataset"}, "parentProduct": {"href": "/mdr/sdtmig/3-1-2", "title": "Study Data Tabulation Model Implementation Guide: Human Clinical Trials Version 3.1.2 (Final)", "type": "Implementation Guide"}, "rootItem": {"href": "/mdr/root/sdtmig/datasets/PE/variables/VISITNUM", "title": "Version-agnostic anchor resource for SDTMIG variable PE.VISITNUM", "type": "Root Data Element"}, "self": {"href": "/mdr/sdtmig/3-1-2/datasets/PE/variables/VISITNUM", "title": "Visit Number", "type": "SDTM Dataset Variable"}}, "core": "Exp", "description": "1. Clinical encounter number. 2. Numeric version of VISIT, used for sorting.", "label": "Visit Number", "name": "VISITNUM", "ordinal": "21", "role": "Timing", "simpleDatatype": "Num"}, {"_links": {"modelClassVariable": {"href": "/mdr/sdtm/1-2/classes/GeneralObservations/variables/VISIT", "title": "Visit Name", "type": "Class Variable"}, "parentDataset": {"href": "/mdr/sdtmig/3-1-2/datasets/PE", "title": "Physical Examination", "type": "SDTM Dataset"}, "parentProduct": {"href": "/mdr/sdtmig/3-1-2", "title": "Study Data Tabulation Model Implementation Guide: Human Clinical Trials Version 3.1.2 (Final)", "type": "Implementation Guide"}, "rootItem": {"href": "/mdr/root/sdtmig/datasets/PE/variables/VISIT", "title": "Version-agnostic anchor resource for SDTMIG variable PE.VISIT", "type": "Root Data Element"}, "self": {"href": "/mdr/sdtmig/3-1-2/datasets/PE/variables/VISIT", "title": "Visit Name", "type": "SDTM Dataset Variable"}}, "core": "Perm", "description": "1. Protocol-defined description of clinical encounter. 2. May be used in addition to VISITNUM and/or VISITDY.", "label": "Visit Name", "name": "VISIT", "ordinal": "22", "role": "Timing", "simpleDatatype": "Char"}, {"_links": {"modelClassVariable": {"href": "/mdr/sdtm/1-2/classes/GeneralObservations/variables/VISITDY", "title": "Planned Study Day of Visit", "type": "Class Variable"}, "parentDataset": {"href": "/mdr/sdtmig/3-1-2/datasets/PE", "title": "Physical Examination", "type": "SDTM Dataset"}, "parentProduct": {"href": "/mdr/sdtmig/3-1-2", "title": "Study Data Tabulation Model Implementation Guide: Human Clinical Trials Version 3.1.2 (Final)", "type": "Implementation Guide"}, "rootItem": {"href": "/mdr/root/sdtmig/datasets/PE/variables/VISITDY", "title": "Version-agnostic anchor resource for SDTMIG variable PE.VISITDY", "type": "Root Data Element"}, "self": {"href": "/mdr/sdtmig/3-1-2/datasets/PE/variables/VISITDY", "title": "Planned Study Day of Visit", "type": "SDTM Dataset Variable"}}, "core": "Perm", "description": "Planned study day of the visit based upon RFSTDTC in Demographics.", "label": "Planned Study Day of Visit", "name": "VISITDY", "ordinal": "23", "role": "Timing", "simpleDatatype": "Num"}, {"_links": {"modelClassVariable": {"href": "/mdr/sdtm/1-2/classes/GeneralObservations/variables/--DTC", "title": "Date/Time of Collection", "type": "Class Variable"}, "parentDataset": {"href": "/mdr/sdtmig/3-1-2/datasets/PE", "title": "Physical Examination", "type": "SDTM Dataset"}, "parentProduct": {"href": "/mdr/sdtmig/3-1-2", "title": "Study Data Tabulation Model Implementation Guide: Human Clinical Trials Version 3.1.2 (Final)", "type": "Implementation Guide"}, "rootItem": {"href": "/mdr/root/sdtmig/datasets/PE/variables/PEDTC", "title": "Version-agnostic anchor resource for SDTMIG variable PE.PEDTC", "type": "Root Data Element"}, "self": {"href": "/mdr/sdtmig/3-1-2/datasets/PE/variables/PEDTC", "title": "Date/Time of Examination", "type": "SDTM Dataset Variable"}}, "core": "Exp", "describedValueDomain": "ISO 8601", "label": "Date/Time of Examination", "name": "PEDTC", "ordinal": "24", "role": "Timing", "simpleDatatype": "Char"}, {"_links": {"modelClassVariable": {"href": "/mdr/sdtm/1-2/classes/GeneralObservations/variables/--DY", "title": "Study Day of Visit/Collection/Exam", "type": "Class Variable"}, "parentDataset": {"href": "/mdr/sdtmig/3-1-2/datasets/PE", "title": "Physical Examination", "type": "SDTM Dataset"}, "parentProduct": {"href": "/mdr/sdtmig/3-1-2", "title": "Study Data Tabulation Model Implementation Guide: Human Clinical Trials Version 3.1.2 (Final)", "type": "Implementation Guide"}, "rootItem": {"href": "/mdr/root/sdtmig/datasets/PE/variables/PEDY", "title": "Version-agnostic anchor resource for SDTMIG variable PE.PEDY", "type": "Root Data Element"}, "self": {"href": "/mdr/sdtmig/3-1-2/datasets/PE/variables/PEDY", "title": "Study Day of Examination", "type": "SDTM Dataset Variable"}}, "core": "Perm", "description": "1. Study day of physical exam, measured as integer days. 2. Algorithm for calculations must be relative to the sponsor-defined RFSTDTC variable in Demographics.", "label": "Study Day of Examination", "name": "PEDY", "ordinal": "25", "role": "Timing", "simpleDatatype": "Num"}], "description": "A findings domain that contains findings observed during a physical examination where the body is evaluated by inspection, palpation, percussion, and auscultation. (Source: CDISC Controlled Terminology, DOMAIN, C49608, 2018-06-29)", "label": "Physical Examination", "name": "PE", "ordinal": "16"}
