{"_links": {"modelDataset": {"href": "/mdr/sdtm/1-2/datasets/SE", "title": "Subject Elements", "type": "SDTM Dataset"}, "parentClass": {"href": "/mdr/sdtmig/3-1-2/classes/SpecialPurpose", "title": "Special-Purpose Datasets", "type": "Class"}, "parentProduct": {"href": "/mdr/sdtmig/3-1-2", "title": "Study Data Tabulation Model Implementation Guide: Human Clinical Trials Version 3.1.2 (Final)", "type": "Implementation Guide"}, "self": {"href": "/mdr/sdtmig/3-1-2/datasets/SE", "title": "Subject Elements", "type": "SDTM Dataset"}}, "datasetStructure": "One record per actual Element per subject", "datasetVariables": [{"_links": {"modelDatasetVariable": {"href": "/mdr/sdtm/1-2/datasets/SE/variables/STUDYID", "title": "Study Identifier", "type": "SDTM Dataset Variable"}, "parentDataset": {"href": "/mdr/sdtmig/3-1-2/datasets/SE", "title": "Subject Elements", "type": "SDTM Dataset"}, "parentProduct": {"href": "/mdr/sdtmig/3-1-2", "title": "Study Data Tabulation Model Implementation Guide: Human Clinical Trials Version 3.1.2 (Final)", "type": "Implementation Guide"}, "rootItem": {"href": "/mdr/root/sdtmig/datasets/SE/variables/STUDYID", "title": "Version-agnostic anchor resource for SDTMIG variable SE.STUDYID", "type": "Root Data Element"}, "self": {"href": "/mdr/sdtmig/3-1-2/datasets/SE/variables/STUDYID", "title": "Study Identifier", "type": "SDTM Dataset Variable"}}, "core": "Req", "description": "Unique identifier for a study.", "label": "Study Identifier", "name": "STUDYID", "ordinal": "1", "role": "Identifier", "simpleDatatype": "Char"}, {"_links": {"modelDatasetVariable": {"href": "/mdr/sdtm/1-2/datasets/SE/variables/DOMAIN", "title": "Domain Abbreviation", "type": "SDTM Dataset Variable"}, "parentDataset": {"href": "/mdr/sdtmig/3-1-2/datasets/SE", "title": "Subject Elements", "type": "SDTM Dataset"}, "parentProduct": {"href": "/mdr/sdtmig/3-1-2", "title": "Study Data Tabulation Model Implementation Guide: Human Clinical Trials Version 3.1.2 (Final)", "type": "Implementation Guide"}, "rootItem": {"href": "/mdr/root/sdtmig/datasets/SE/variables/DOMAIN", "title": "Version-agnostic anchor resource for SDTMIG variable SE.DOMAIN", "type": "Root Data Element"}, "self": {"href": "/mdr/sdtmig/3-1-2/datasets/SE/variables/DOMAIN", "title": "Domain Abbreviation", "type": "SDTM Dataset Variable"}}, "core": "Req", "description": "Two-character abbreviation for the domain.", "label": "Domain Abbreviation", "name": "DOMAIN", "ordinal": "2", "role": "Identifier", "simpleDatatype": "Char", "valueList": ["SE"]}, {"_links": {"modelDatasetVariable": {"href": "/mdr/sdtm/1-2/datasets/SE/variables/USUBJID", "title": "Unique Subject Identifier", "type": "SDTM Dataset Variable"}, "parentDataset": {"href": "/mdr/sdtmig/3-1-2/datasets/SE", "title": "Subject Elements", "type": "SDTM Dataset"}, "parentProduct": {"href": "/mdr/sdtmig/3-1-2", "title": "Study Data Tabulation Model Implementation Guide: Human Clinical Trials Version 3.1.2 (Final)", "type": "Implementation Guide"}, "rootItem": {"href": "/mdr/root/sdtmig/datasets/SE/variables/USUBJID", "title": "Version-agnostic anchor resource for SDTMIG variable SE.USUBJID", "type": "Root Data Element"}, "self": {"href": "/mdr/sdtmig/3-1-2/datasets/SE/variables/USUBJID", "title": "Unique Subject Identifier", "type": "SDTM Dataset Variable"}}, "core": "Req", "description": "Identifier used to uniquely identify a subject across all studies for all applications or submissions involving the product.", "label": "Unique Subject Identifier", "name": "USUBJID", "ordinal": "3", "role": "Identifier", "simpleDatatype": "Char"}, {"_links": {"modelDatasetVariable": {"href": "/mdr/sdtm/1-2/datasets/SE/variables/SESEQ", "title": "Sequence Number", "type": "SDTM Dataset Variable"}, "parentDataset": {"href": "/mdr/sdtmig/3-1-2/datasets/SE", "title": "Subject Elements", "type": "SDTM Dataset"}, "parentProduct": {"href": "/mdr/sdtmig/3-1-2", "title": "Study Data Tabulation Model Implementation Guide: Human Clinical Trials Version 3.1.2 (Final)", "type": "Implementation Guide"}, "rootItem": {"href": "/mdr/root/sdtmig/datasets/SE/variables/SESEQ", "title": "Version-agnostic anchor resource for SDTMIG variable SE.SESEQ", "type": "Root Data Element"}, "self": {"href": "/mdr/sdtmig/3-1-2/datasets/SE/variables/SESEQ", "title": "Sequence Number", "type": "SDTM Dataset Variable"}}, "core": "Req", "description": "Sequence Number given to ensure uniqueness of subject records within a domain. Should be assigned to be consistent chronological order.", "label": "Sequence Number", "name": "SESEQ", "ordinal": "4", "role": "Identifier", "simpleDatatype": "Num"}, {"_links": {"modelDatasetVariable": {"href": "/mdr/sdtm/1-2/datasets/SE/variables/ETCD", "title": "Subject Element Code", "type": "SDTM Dataset Variable"}, "parentDataset": {"href": "/mdr/sdtmig/3-1-2/datasets/SE", "title": "Subject Elements", "type": "SDTM Dataset"}, "parentProduct": {"href": "/mdr/sdtmig/3-1-2", "title": "Study Data Tabulation Model Implementation Guide: Human Clinical Trials Version 3.1.2 (Final)", "type": "Implementation Guide"}, "rootItem": {"href": "/mdr/root/sdtmig/datasets/SE/variables/ETCD", "title": "Version-agnostic anchor resource for SDTMIG variable SE.ETCD", "type": "Root Data Element"}, "self": {"href": "/mdr/sdtmig/3-1-2/datasets/SE/variables/ETCD", "title": "Element Code", "type": "SDTM Dataset Variable"}}, "core": "Req", "description": "1. ETCD (the companion to ELEMENT) is limited to 8 characters and does not have special character restrictions. These values should be short for ease of use in programming, but it is not expected that ETCD will need to serve as a variable name. 2. If an encountered Element differs from the planned Element to the point that it is considered a new Element, then use \"UNPLAN\" as the value for ETCD to represent this Element.", "label": "Element Code", "name": "ETCD", "ordinal": "5", "role": "Topic", "simpleDatatype": "Char"}, {"_links": {"modelDatasetVariable": {"href": "/mdr/sdtm/1-2/datasets/SE/variables/ELEMENT", "title": "Description of Subject Element", "type": "SDTM Dataset Variable"}, "parentDataset": {"href": "/mdr/sdtmig/3-1-2/datasets/SE", "title": "Subject Elements", "type": "SDTM Dataset"}, "parentProduct": {"href": "/mdr/sdtmig/3-1-2", "title": "Study Data Tabulation Model Implementation Guide: Human Clinical Trials Version 3.1.2 (Final)", "type": "Implementation Guide"}, "rootItem": {"href": "/mdr/root/sdtmig/datasets/SE/variables/ELEMENT", "title": "Version-agnostic anchor resource for SDTMIG variable SE.ELEMENT", "type": "Root Data Element"}, "self": {"href": "/mdr/sdtmig/3-1-2/datasets/SE/variables/ELEMENT", "title": "Description of Element", "type": "SDTM Dataset Variable"}}, "core": "Perm", "description": "The name of the Element. If ETCD has a value of \"UNPLAN\" then ELEMENT should be Null.", "label": "Description of Element", "name": "ELEMENT", "ordinal": "6", "role": "Synonym Qualifier", "simpleDatatype": "Char"}, {"_links": {"modelDatasetVariable": {"href": "/mdr/sdtm/1-2/datasets/SE/variables/SESTDTC", "title": "Start Date/Time of Element", "type": "SDTM Dataset Variable"}, "parentDataset": {"href": "/mdr/sdtmig/3-1-2/datasets/SE", "title": "Subject Elements", "type": "SDTM Dataset"}, "parentProduct": {"href": "/mdr/sdtmig/3-1-2", "title": "Study Data Tabulation Model Implementation Guide: Human Clinical Trials Version 3.1.2 (Final)", "type": "Implementation Guide"}, "rootItem": {"href": "/mdr/root/sdtmig/datasets/SE/variables/SESTDTC", "title": "Version-agnostic anchor resource for SDTMIG variable SE.SESTDTC", "type": "Root Data Element"}, "self": {"href": "/mdr/sdtmig/3-1-2/datasets/SE/variables/SESTDTC", "title": "Start Date/Time of Element", "type": "SDTM Dataset Variable"}}, "core": "Req", "describedValueDomain": "ISO 8601", "description": "Start date/time for an Element for each subject.", "label": "Start Date/Time of Element", "name": "SESTDTC", "ordinal": "7", "role": "Timing", "simpleDatatype": "Char"}, {"_links": {"modelDatasetVariable": {"href": "/mdr/sdtm/1-2/datasets/SE/variables/SEENDTC", "title": "End Date/Time of Element", "type": "SDTM Dataset Variable"}, "parentDataset": {"href": "/mdr/sdtmig/3-1-2/datasets/SE", "title": "Subject Elements", "type": "SDTM Dataset"}, "parentProduct": {"href": "/mdr/sdtmig/3-1-2", "title": "Study Data Tabulation Model Implementation Guide: Human Clinical Trials Version 3.1.2 (Final)", "type": "Implementation Guide"}, "rootItem": {"href": "/mdr/root/sdtmig/datasets/SE/variables/SEENDTC", "title": "Version-agnostic anchor resource for SDTMIG variable SE.SEENDTC", "type": "Root Data Element"}, "self": {"href": "/mdr/sdtmig/3-1-2/datasets/SE/variables/SEENDTC", "title": "End Date/Time of Element", "type": "SDTM Dataset Variable"}}, "core": "Exp", "describedValueDomain": "ISO 8601", "description": "End date/time for an Element for each subject.", "label": "End Date/Time of Element", "name": "SEENDTC", "ordinal": "8", "role": "Timing", "simpleDatatype": "Char"}, {"_links": {"modelDatasetVariable": {"href": "/mdr/sdtm/1-2/datasets/SE/variables/TAETORD", "title": "Planned Order of Elements within Arm", "type": "SDTM Dataset Variable"}, "parentDataset": {"href": "/mdr/sdtmig/3-1-2/datasets/SE", "title": "Subject Elements", "type": "SDTM Dataset"}, "parentProduct": {"href": "/mdr/sdtmig/3-1-2", "title": "Study Data Tabulation Model Implementation Guide: Human Clinical Trials Version 3.1.2 (Final)", "type": "Implementation Guide"}, "rootItem": {"href": "/mdr/root/sdtmig/datasets/SE/variables/TAETORD", "title": "Version-agnostic anchor resource for SDTMIG variable SE.TAETORD", "type": "Root Data Element"}, "self": {"href": "/mdr/sdtmig/3-1-2/datasets/SE/variables/TAETORD", "title": "Planned Order of Elements within Arm", "type": "SDTM Dataset Variable"}}, "core": "Perm", "description": "Number that gives the planned order of the Element within the subject's assigned ARM.", "label": "Planned Order of Elements within Arm", "name": "TAETORD", "ordinal": "9", "role": "Timing", "simpleDatatype": "Num"}, {"_links": {"modelDatasetVariable": {"href": "/mdr/sdtm/1-2/datasets/SE/variables/EPOCH", "title": "Epoch", "type": "SDTM Dataset Variable"}, "parentDataset": {"href": "/mdr/sdtmig/3-1-2/datasets/SE", "title": "Subject Elements", "type": "SDTM Dataset"}, "parentProduct": {"href": "/mdr/sdtmig/3-1-2", "title": "Study Data Tabulation Model Implementation Guide: Human Clinical Trials Version 3.1.2 (Final)", "type": "Implementation Guide"}, "rootItem": {"href": "/mdr/root/sdtmig/datasets/SE/variables/EPOCH", "title": "Version-agnostic anchor resource for SDTMIG variable SE.EPOCH", "type": "Root Data Element"}, "self": {"href": "/mdr/sdtmig/3-1-2/datasets/SE/variables/EPOCH", "title": "Epoch", "type": "SDTM Dataset Variable"}}, "core": "Perm", "description": "Epoch associated with the Element in the planned sequence of Elements for the ARM to which the subject was assigned", "label": "Epoch", "name": "EPOCH", "ordinal": "10", "role": "Timing", "simpleDatatype": "Char"}, {"_links": {"modelDatasetVariable": {"href": "/mdr/sdtm/1-2/datasets/SE/variables/SEUPDES", "title": "Description of Unplanned Element", "type": "SDTM Dataset Variable"}, "parentDataset": {"href": "/mdr/sdtmig/3-1-2/datasets/SE", "title": "Subject Elements", "type": "SDTM Dataset"}, "parentProduct": {"href": "/mdr/sdtmig/3-1-2", "title": "Study Data Tabulation Model Implementation Guide: Human Clinical Trials Version 3.1.2 (Final)", "type": "Implementation Guide"}, "rootItem": {"href": "/mdr/root/sdtmig/datasets/SE/variables/SEUPDES", "title": "Version-agnostic anchor resource for SDTMIG variable SE.SEUPDES", "type": "Root Data Element"}, "self": {"href": "/mdr/sdtmig/3-1-2/datasets/SE/variables/SEUPDES", "title": "Description of Unplanned Element", "type": "SDTM Dataset Variable"}}, "core": "Perm", "description": "Description of what happened to the subject during this unplanned Element. Used only if ETCD has the value of \"UNPLAN\".", "label": "Description of Unplanned Element", "name": "SEUPDES", "ordinal": "11", "role": "Synonym Qualifier", "simpleDatatype": "Char"}], "description": "A special-purpose domain that contains the actual order of elements followed by the subject, together with the start date/time and end date/time for each element. (Source: CDISC Controlled Terminology, DOMAIN, C49616, 2018-06-29)", "label": "Subject Elements", "name": "SE", "ordinal": "3"}
