{"_links": {"modelDataset": {"href": "/mdr/sdtm/1-2/datasets/SV", "title": "Subject Visits", "type": "SDTM Dataset"}, "parentClass": {"href": "/mdr/sdtmig/3-1-2/classes/SpecialPurpose", "title": "Special-Purpose Datasets", "type": "Class"}, "parentProduct": {"href": "/mdr/sdtmig/3-1-2", "title": "Study Data Tabulation Model Implementation Guide: Human Clinical Trials Version 3.1.2 (Final)", "type": "Implementation Guide"}, "self": {"href": "/mdr/sdtmig/3-1-2/datasets/SV", "title": "Subject Visits", "type": "SDTM Dataset"}}, "datasetStructure": "One record per subject per actual visit", "datasetVariables": [{"_links": {"modelDatasetVariable": {"href": "/mdr/sdtm/1-2/datasets/SV/variables/STUDYID", "title": "Study Identifier", "type": "SDTM Dataset Variable"}, "parentDataset": {"href": "/mdr/sdtmig/3-1-2/datasets/SV", "title": "Subject Visits", "type": "SDTM Dataset"}, "parentProduct": {"href": "/mdr/sdtmig/3-1-2", "title": "Study Data Tabulation Model Implementation Guide: Human Clinical Trials Version 3.1.2 (Final)", "type": "Implementation Guide"}, "rootItem": {"href": "/mdr/root/sdtmig/datasets/SV/variables/STUDYID", "title": "Version-agnostic anchor resource for SDTMIG variable SV.STUDYID", "type": "Root Data Element"}, "self": {"href": "/mdr/sdtmig/3-1-2/datasets/SV/variables/STUDYID", "title": "Study Identifier", "type": "SDTM Dataset Variable"}}, "core": "Req", "description": "Unique identifier for a study.", "label": "Study Identifier", "name": "STUDYID", "ordinal": "1", "role": "Identifier", "simpleDatatype": "Char"}, {"_links": {"modelDatasetVariable": {"href": "/mdr/sdtm/1-2/datasets/SV/variables/DOMAIN", "title": "Domain Abbreviation", "type": "SDTM Dataset Variable"}, "parentDataset": {"href": "/mdr/sdtmig/3-1-2/datasets/SV", "title": "Subject Visits", "type": "SDTM Dataset"}, "parentProduct": {"href": "/mdr/sdtmig/3-1-2", "title": "Study Data Tabulation Model Implementation Guide: Human Clinical Trials Version 3.1.2 (Final)", "type": "Implementation Guide"}, "rootItem": {"href": "/mdr/root/sdtmig/datasets/SV/variables/DOMAIN", "title": "Version-agnostic anchor resource for SDTMIG variable SV.DOMAIN", "type": "Root Data Element"}, "self": {"href": "/mdr/sdtmig/3-1-2/datasets/SV/variables/DOMAIN", "title": "Domain Abbreviation", "type": "SDTM Dataset Variable"}}, "core": "Req", "description": "Two-character abbreviation for the domain.", "label": "Domain Abbreviation", "name": "DOMAIN", "ordinal": "2", "role": "Identifier", "simpleDatatype": "Char", "valueList": ["SV"]}, {"_links": {"modelDatasetVariable": {"href": "/mdr/sdtm/1-2/datasets/SV/variables/USUBJID", "title": "Unique Subject Identifier", "type": "SDTM Dataset Variable"}, "parentDataset": {"href": "/mdr/sdtmig/3-1-2/datasets/SV", "title": "Subject Visits", "type": "SDTM Dataset"}, "parentProduct": {"href": "/mdr/sdtmig/3-1-2", "title": "Study Data Tabulation Model Implementation Guide: Human Clinical Trials Version 3.1.2 (Final)", "type": "Implementation Guide"}, "rootItem": {"href": "/mdr/root/sdtmig/datasets/SV/variables/USUBJID", "title": "Version-agnostic anchor resource for SDTMIG variable SV.USUBJID", "type": "Root Data Element"}, "self": {"href": "/mdr/sdtmig/3-1-2/datasets/SV/variables/USUBJID", "title": "Unique Subject Identifier", "type": "SDTM Dataset Variable"}}, "core": "Req", "description": "Identifier used to uniquely identify a subject across all studies for all applications or submissions involving the product.", "label": "Unique Subject Identifier", "name": "USUBJID", "ordinal": "3", "role": "Identifier", "simpleDatatype": "Char"}, {"_links": {"modelDatasetVariable": {"href": "/mdr/sdtm/1-2/datasets/SV/variables/VISITNUM", "title": "Visit Number", "type": "SDTM Dataset Variable"}, "parentDataset": {"href": "/mdr/sdtmig/3-1-2/datasets/SV", "title": "Subject Visits", "type": "SDTM Dataset"}, "parentProduct": {"href": "/mdr/sdtmig/3-1-2", "title": "Study Data Tabulation Model Implementation Guide: Human Clinical Trials Version 3.1.2 (Final)", "type": "Implementation Guide"}, "rootItem": {"href": "/mdr/root/sdtmig/datasets/SV/variables/VISITNUM", "title": "Version-agnostic anchor resource for SDTMIG variable SV.VISITNUM", "type": "Root Data Element"}, "self": {"href": "/mdr/sdtmig/3-1-2/datasets/SV/variables/VISITNUM", "title": "Visit Number", "type": "SDTM Dataset Variable"}}, "core": "Req", "description": "1. Clinical encounter number. (Decimal numbering may be useful for inserting unplanned visits.) 2. Numeric version of VISIT, used for sorting.", "label": "Visit Number", "name": "VISITNUM", "ordinal": "4", "role": "Topic", "simpleDatatype": "Num"}, {"_links": {"modelDatasetVariable": {"href": "/mdr/sdtm/1-2/datasets/SV/variables/VISIT", "title": "Visit Name", "type": "SDTM Dataset Variable"}, "parentDataset": {"href": "/mdr/sdtmig/3-1-2/datasets/SV", "title": "Subject Visits", "type": "SDTM Dataset"}, "parentProduct": {"href": "/mdr/sdtmig/3-1-2", "title": "Study Data Tabulation Model Implementation Guide: Human Clinical Trials Version 3.1.2 (Final)", "type": "Implementation Guide"}, "rootItem": {"href": "/mdr/root/sdtmig/datasets/SV/variables/VISIT", "title": "Version-agnostic anchor resource for SDTMIG variable SV.VISIT", "type": "Root Data Element"}, "self": {"href": "/mdr/sdtmig/3-1-2/datasets/SV/variables/VISIT", "title": "Visit Name", "type": "SDTM Dataset Variable"}}, "core": "Perm", "description": "1. Protocol-defined description of clinical encounter. 2. May be used in addition to VISITNUM and/or VISITDY as a text description of the clinical encounter.", "label": "Visit Name", "name": "VISIT", "ordinal": "5", "role": "Synonym Qualifier", "simpleDatatype": "Char"}, {"_links": {"modelDatasetVariable": {"href": "/mdr/sdtm/1-2/datasets/SV/variables/VISITDY", "title": "Planned Study Day of Visit", "type": "SDTM Dataset Variable"}, "parentDataset": {"href": "/mdr/sdtmig/3-1-2/datasets/SV", "title": "Subject Visits", "type": "SDTM Dataset"}, "parentProduct": {"href": "/mdr/sdtmig/3-1-2", "title": "Study Data Tabulation Model Implementation Guide: Human Clinical Trials Version 3.1.2 (Final)", "type": "Implementation Guide"}, "rootItem": {"href": "/mdr/root/sdtmig/datasets/SV/variables/VISITDY", "title": "Version-agnostic anchor resource for SDTMIG variable SV.VISITDY", "type": "Root Data Element"}, "self": {"href": "/mdr/sdtmig/3-1-2/datasets/SV/variables/VISITDY", "title": "Planned Study Day of Visit", "type": "SDTM Dataset Variable"}}, "core": "Perm", "description": "Planned study day of the start of the visit based upon RFSTDTC in Demographics.", "label": "Planned Study Day of Visit", "name": "VISITDY", "ordinal": "6", "role": "Timing", "simpleDatatype": "Num"}, {"_links": {"modelDatasetVariable": {"href": "/mdr/sdtm/1-2/datasets/SV/variables/SVSTDTC", "title": "Start Date/Time of Visit", "type": "SDTM Dataset Variable"}, "parentDataset": {"href": "/mdr/sdtmig/3-1-2/datasets/SV", "title": "Subject Visits", "type": "SDTM Dataset"}, "parentProduct": {"href": "/mdr/sdtmig/3-1-2", "title": "Study Data Tabulation Model Implementation Guide: Human Clinical Trials Version 3.1.2 (Final)", "type": "Implementation Guide"}, "rootItem": {"href": "/mdr/root/sdtmig/datasets/SV/variables/SVSTDTC", "title": "Version-agnostic anchor resource for SDTMIG variable SV.SVSTDTC", "type": "Root Data Element"}, "self": {"href": "/mdr/sdtmig/3-1-2/datasets/SV/variables/SVSTDTC", "title": "Start Date/Time of Visit", "type": "SDTM Dataset Variable"}}, "core": "Exp", "describedValueDomain": "ISO 8601", "description": "Start date/time for a Visit.", "label": "Start Date/Time of Visit", "name": "SVSTDTC", "ordinal": "7", "role": "Timing", "simpleDatatype": "Char"}, {"_links": {"modelDatasetVariable": {"href": "/mdr/sdtm/1-2/datasets/SV/variables/SVENDTC", "title": "End Date/Time of Visit", "type": "SDTM Dataset Variable"}, "parentDataset": {"href": "/mdr/sdtmig/3-1-2/datasets/SV", "title": "Subject Visits", "type": "SDTM Dataset"}, "parentProduct": {"href": "/mdr/sdtmig/3-1-2", "title": "Study Data Tabulation Model Implementation Guide: Human Clinical Trials Version 3.1.2 (Final)", "type": "Implementation Guide"}, "rootItem": {"href": "/mdr/root/sdtmig/datasets/SV/variables/SVENDTC", "title": "Version-agnostic anchor resource for SDTMIG variable SV.SVENDTC", "type": "Root Data Element"}, "self": {"href": "/mdr/sdtmig/3-1-2/datasets/SV/variables/SVENDTC", "title": "End Date/Time of Visit", "type": "SDTM Dataset Variable"}}, "core": "Exp", "describedValueDomain": "ISO 8601", "description": "End date/time of a Visit.", "label": "End Date/Time of Visit", "name": "SVENDTC", "ordinal": "8", "role": "Timing", "simpleDatatype": "Char"}, {"_links": {"modelDatasetVariable": {"href": "/mdr/sdtm/1-2/datasets/SV/variables/SVSTDY", "title": "Study Day of Start of Visit", "type": "SDTM Dataset Variable"}, "parentDataset": {"href": "/mdr/sdtmig/3-1-2/datasets/SV", "title": "Subject Visits", "type": "SDTM Dataset"}, "parentProduct": {"href": "/mdr/sdtmig/3-1-2", "title": "Study Data Tabulation Model Implementation Guide: Human Clinical Trials Version 3.1.2 (Final)", "type": "Implementation Guide"}, "rootItem": {"href": "/mdr/root/sdtmig/datasets/SV/variables/SVSTDY", "title": "Version-agnostic anchor resource for SDTMIG variable SV.SVSTDY", "type": "Root Data Element"}, "self": {"href": "/mdr/sdtmig/3-1-2/datasets/SV/variables/SVSTDY", "title": "Study Day of Start of Visit", "type": "SDTM Dataset Variable"}}, "core": "Perm", "description": "Study day of start of visit relative to the sponsor-defined RFSTDTC.", "label": "Study Day of Start of Visit", "name": "SVSTDY", "ordinal": "9", "role": "Timing", "simpleDatatype": "Num"}, {"_links": {"modelDatasetVariable": {"href": "/mdr/sdtm/1-2/datasets/SV/variables/SVENDY", "title": "Study Day of End of Visit", "type": "SDTM Dataset Variable"}, "parentDataset": {"href": "/mdr/sdtmig/3-1-2/datasets/SV", "title": "Subject Visits", "type": "SDTM Dataset"}, "parentProduct": {"href": "/mdr/sdtmig/3-1-2", "title": "Study Data Tabulation Model Implementation Guide: Human Clinical Trials Version 3.1.2 (Final)", "type": "Implementation Guide"}, "rootItem": {"href": "/mdr/root/sdtmig/datasets/SV/variables/SVENDY", "title": "Version-agnostic anchor resource for SDTMIG variable SV.SVENDY", "type": "Root Data Element"}, "self": {"href": "/mdr/sdtmig/3-1-2/datasets/SV/variables/SVENDY", "title": "Study Day of End of Visit", "type": "SDTM Dataset Variable"}}, "core": "Perm", "description": "Study day of end of visit relative to the sponsor-defined RFSTDTC.", "label": "Study Day of End of Visit", "name": "SVENDY", "ordinal": "10", "role": "Timing", "simpleDatatype": "Num"}, {"_links": {"modelDatasetVariable": {"href": "/mdr/sdtm/1-2/datasets/SV/variables/SVUPDES", "title": "Description of Unplanned Visit", "type": "SDTM Dataset Variable"}, "parentDataset": {"href": "/mdr/sdtmig/3-1-2/datasets/SV", "title": "Subject Visits", "type": "SDTM Dataset"}, "parentProduct": {"href": "/mdr/sdtmig/3-1-2", "title": "Study Data Tabulation Model Implementation Guide: Human Clinical Trials Version 3.1.2 (Final)", "type": "Implementation Guide"}, "rootItem": {"href": "/mdr/root/sdtmig/datasets/SV/variables/SVUPDES", "title": "Version-agnostic anchor resource for SDTMIG variable SV.SVUPDES", "type": "Root Data Element"}, "self": {"href": "/mdr/sdtmig/3-1-2/datasets/SV/variables/SVUPDES", "title": "Description of Unplanned Visit", "type": "SDTM Dataset Variable"}}, "core": "Perm", "description": "Description of what happened to the subject during an unplanned visit.", "label": "Description of Unplanned Visit", "name": "SVUPDES", "ordinal": "11", "role": "Synonym Qualifier", "simpleDatatype": "Char"}], "description": "A special-purpose domain that contains the actual start and end data/time for each visit of each individual subject. (Source: CDISC Controlled Terminology, DOMAIN, C49617, 2018-06-29)", "label": "Subject Visits", "name": "SV", "ordinal": "4"}
