{"_links": {"parentClass": {"href": "/mdr/sdtmig/3-3/classes/Interventions", "title": "Interventions Observation Class", "type": "Class"}, "parentProduct": {"href": "/mdr/sdtmig/3-3", "title": "Study Data Tabulation Model Implementation Guide: Human Clinical Trials Version 3.3 (Final)", "type": "Implementation Guide"}, "priorVersion": {"href": "/mdr/sdtmig/3-2/datasets/EX", "title": "Exposure", "type": "SDTM Dataset"}, "self": {"href": "/mdr/sdtmig/3-3/datasets/EX", "title": "Exposure", "type": "SDTM Dataset"}}, "datasetStructure": "One record per protocol-specified study treatment, constant-dosing interval, per subject", "datasetVariables": [{"_links": {"modelClassVariable": {"href": "/mdr/sdtm/1-7/classes/GeneralObservations/variables/STUDYID", "title": "Study Identifier", "type": "Class Variable"}, "parentDataset": {"href": "/mdr/sdtmig/3-3/datasets/EX", "title": "Exposure", "type": "SDTM Dataset"}, "parentProduct": {"href": "/mdr/sdtmig/3-3", "title": "Study Data Tabulation Model Implementation Guide: Human Clinical Trials Version 3.3 (Final)", "type": "Implementation Guide"}, "priorVersion": {"href": "/mdr/sdtmig/3-2/datasets/EX/variables/STUDYID", "title": "Study Identifier", "type": "SDTM Dataset Variable"}, "rootItem": {"href": "/mdr/root/sdtmig/datasets/EX/variables/STUDYID", "title": "Version-agnostic anchor resource for SDTMIG variable EX.STUDYID", "type": "Root Data Element"}, "self": {"href": "/mdr/sdtmig/3-3/datasets/EX/variables/STUDYID", "title": "Study Identifier", "type": "SDTM Dataset Variable"}}, "core": "Req", "description": "Unique identifier for a study.", "label": "Study Identifier", "name": "STUDYID", "ordinal": "1", "role": "Identifier", "simpleDatatype": "Char"}, {"_links": {"modelClassVariable": {"href": "/mdr/sdtm/1-7/classes/GeneralObservations/variables/DOMAIN", "title": "Domain Abbreviation", "type": "Class Variable"}, "parentDataset": {"href": "/mdr/sdtmig/3-3/datasets/EX", "title": "Exposure", "type": "SDTM Dataset"}, "parentProduct": {"href": "/mdr/sdtmig/3-3", "title": "Study Data Tabulation Model Implementation Guide: Human Clinical Trials Version 3.3 (Final)", "type": "Implementation Guide"}, "priorVersion": {"href": "/mdr/sdtmig/3-2/datasets/EX/variables/DOMAIN", "title": "Domain Abbreviation", "type": "SDTM Dataset Variable"}, "rootItem": {"href": "/mdr/root/sdtmig/datasets/EX/variables/DOMAIN", "title": "Version-agnostic anchor resource for SDTMIG variable EX.DOMAIN", "type": "Root Data Element"}, "self": {"href": "/mdr/sdtmig/3-3/datasets/EX/variables/DOMAIN", "title": "Domain Abbreviation", "type": "SDTM Dataset Variable"}}, "core": "Req", "description": "Two-character abbreviation for the domain.", "label": "Domain Abbreviation", "name": "DOMAIN", "ordinal": "2", "role": "Identifier", "simpleDatatype": "Char", "valueList": ["EX"]}, {"_links": {"modelClassVariable": {"href": "/mdr/sdtm/1-7/classes/GeneralObservations/variables/USUBJID", "title": "Unique Subject Identifier", "type": "Class Variable"}, "parentDataset": {"href": "/mdr/sdtmig/3-3/datasets/EX", "title": "Exposure", "type": "SDTM Dataset"}, "parentProduct": {"href": "/mdr/sdtmig/3-3", "title": "Study Data Tabulation Model Implementation Guide: Human Clinical Trials Version 3.3 (Final)", "type": "Implementation Guide"}, "priorVersion": {"href": "/mdr/sdtmig/3-2/datasets/EX/variables/USUBJID", "title": "Unique Subject Identifier", "type": "SDTM Dataset Variable"}, "rootItem": {"href": "/mdr/root/sdtmig/datasets/EX/variables/USUBJID", "title": "Version-agnostic anchor resource for SDTMIG variable EX.USUBJID", "type": "Root Data Element"}, "self": {"href": "/mdr/sdtmig/3-3/datasets/EX/variables/USUBJID", "title": "Unique Subject Identifier", "type": "SDTM Dataset Variable"}}, "core": "Req", "description": "Identifier used to uniquely identify a subject across all studies for all applications or submissions involving the product.", "label": "Unique Subject Identifier", "name": "USUBJID", "ordinal": "3", "role": "Identifier", "simpleDatatype": "Char"}, {"_links": {"modelClassVariable": {"href": "/mdr/sdtm/1-7/classes/GeneralObservations/variables/--SEQ", "title": "Sequence Number", "type": "Class Variable"}, "parentDataset": {"href": "/mdr/sdtmig/3-3/datasets/EX", "title": "Exposure", "type": "SDTM Dataset"}, "parentProduct": {"href": "/mdr/sdtmig/3-3", "title": "Study Data Tabulation Model Implementation Guide: Human Clinical Trials Version 3.3 (Final)", "type": "Implementation Guide"}, "priorVersion": {"href": "/mdr/sdtmig/3-2/datasets/EX/variables/EXSEQ", "title": "Sequence Number", "type": "SDTM Dataset Variable"}, "rootItem": {"href": "/mdr/root/sdtmig/datasets/EX/variables/EXSEQ", "title": "Version-agnostic anchor resource for SDTMIG variable EX.EXSEQ", "type": "Root Data Element"}, "self": {"href": "/mdr/sdtmig/3-3/datasets/EX/variables/EXSEQ", "title": "Sequence Number", "type": "SDTM Dataset Variable"}}, "core": "Req", "description": "Sequence Number given to ensure uniqueness of subject records within a domain. May be any valid number.", "label": "Sequence Number", "name": "EXSEQ", "ordinal": "4", "role": "Identifier", "simpleDatatype": "Num"}, {"_links": {"modelClassVariable": {"href": "/mdr/sdtm/1-7/classes/GeneralObservations/variables/--GRPID", "title": "Group ID", "type": "Class Variable"}, "parentDataset": {"href": "/mdr/sdtmig/3-3/datasets/EX", "title": "Exposure", "type": "SDTM Dataset"}, "parentProduct": {"href": "/mdr/sdtmig/3-3", "title": "Study Data Tabulation Model Implementation Guide: Human Clinical Trials Version 3.3 (Final)", "type": "Implementation Guide"}, "priorVersion": {"href": "/mdr/sdtmig/3-2/datasets/EX/variables/EXGRPID", "title": "Group ID", "type": "SDTM Dataset Variable"}, "rootItem": {"href": "/mdr/root/sdtmig/datasets/EX/variables/EXGRPID", "title": "Version-agnostic anchor resource for SDTMIG variable EX.EXGRPID", "type": "Root Data Element"}, "self": {"href": "/mdr/sdtmig/3-3/datasets/EX/variables/EXGRPID", "title": "Group ID", "type": "SDTM Dataset Variable"}}, "core": "Perm", "description": "Used to tie together a block of related records in a single domain for a subject.", "label": "Group ID", "name": "EXGRPID", "ordinal": "5", "role": "Identifier", "simpleDatatype": "Char"}, {"_links": {"modelClassVariable": {"href": "/mdr/sdtm/1-7/classes/GeneralObservations/variables/--REFID", "title": "Reference ID", "type": "Class Variable"}, "parentDataset": {"href": "/mdr/sdtmig/3-3/datasets/EX", "title": "Exposure", "type": "SDTM Dataset"}, "parentProduct": {"href": "/mdr/sdtmig/3-3", "title": "Study Data Tabulation Model Implementation Guide: Human Clinical Trials Version 3.3 (Final)", "type": "Implementation Guide"}, "priorVersion": {"href": "/mdr/sdtmig/3-2/datasets/EX/variables/EXREFID", "title": "Reference ID", "type": "SDTM Dataset Variable"}, "rootItem": {"href": "/mdr/root/sdtmig/datasets/EX/variables/EXREFID", "title": "Version-agnostic anchor resource for SDTMIG variable EX.EXREFID", "type": "Root Data Element"}, "self": {"href": "/mdr/sdtmig/3-3/datasets/EX/variables/EXREFID", "title": "Reference ID", "type": "SDTM Dataset Variable"}}, "core": "Perm", "description": "Internal or external identifier (e.g., kit number, bottle label, vial identifier).", "label": "Reference ID", "name": "EXREFID", "ordinal": "6", "role": "Identifier", "simpleDatatype": "Char"}, {"_links": {"modelClassVariable": {"href": "/mdr/sdtm/1-7/classes/GeneralObservations/variables/--SPID", "title": "Sponsor-Defined Identifier", "type": "Class Variable"}, "parentDataset": {"href": "/mdr/sdtmig/3-3/datasets/EX", "title": "Exposure", "type": "SDTM Dataset"}, "parentProduct": {"href": "/mdr/sdtmig/3-3", "title": "Study Data Tabulation Model Implementation Guide: Human Clinical Trials Version 3.3 (Final)", "type": "Implementation Guide"}, "priorVersion": {"href": "/mdr/sdtmig/3-2/datasets/EX/variables/EXSPID", "title": "Sponsor-Defined Identifier", "type": "SDTM Dataset Variable"}, "rootItem": {"href": "/mdr/root/sdtmig/datasets/EX/variables/EXSPID", "title": "Version-agnostic anchor resource for SDTMIG variable EX.EXSPID", "type": "Root Data Element"}, "self": {"href": "/mdr/sdtmig/3-3/datasets/EX/variables/EXSPID", "title": "Sponsor-Defined Identifier", "type": "SDTM Dataset Variable"}}, "core": "Perm", "description": "Sponsor-defined reference number. Perhaps pre-printed on the CRF as an explicit line identifier or defined in the sponsor's operational database. Example: Line number on a CRF Page.", "label": "Sponsor-Defined Identifier", "name": "EXSPID", "ordinal": "7", "role": "Identifier", "simpleDatatype": "Char"}, {"_links": {"modelClassVariable": {"href": "/mdr/sdtm/1-7/classes/GeneralObservations/variables/--LNKID", "title": "Link ID", "type": "Class Variable"}, "parentDataset": {"href": "/mdr/sdtmig/3-3/datasets/EX", "title": "Exposure", "type": "SDTM Dataset"}, "parentProduct": {"href": "/mdr/sdtmig/3-3", "title": "Study Data Tabulation Model Implementation Guide: Human Clinical Trials Version 3.3 (Final)", "type": "Implementation Guide"}, "priorVersion": {"href": "/mdr/sdtmig/3-2/datasets/EX/variables/EXLNKID", "title": "Link ID", "type": "SDTM Dataset Variable"}, "rootItem": {"href": "/mdr/root/sdtmig/datasets/EX/variables/EXLNKID", "title": "Version-agnostic anchor resource for SDTMIG variable EX.EXLNKID", "type": "Root Data Element"}, "self": {"href": "/mdr/sdtmig/3-3/datasets/EX/variables/EXLNKID", "title": "Link ID", "type": "SDTM Dataset Variable"}}, "core": "Perm", "description": "Identifier used to link related records across domains.", "label": "Link ID", "name": "EXLNKID", "ordinal": "8", "role": "Identifier", "simpleDatatype": "Char"}, {"_links": {"modelClassVariable": {"href": "/mdr/sdtm/1-7/classes/GeneralObservations/variables/--LNKGRP", "title": "Link Group ID", "type": "Class Variable"}, "parentDataset": {"href": "/mdr/sdtmig/3-3/datasets/EX", "title": "Exposure", "type": "SDTM Dataset"}, "parentProduct": {"href": "/mdr/sdtmig/3-3", "title": "Study Data Tabulation Model Implementation Guide: Human Clinical Trials Version 3.3 (Final)", "type": "Implementation Guide"}, "priorVersion": {"href": "/mdr/sdtmig/3-2/datasets/EX/variables/EXLNKGRP", "title": "Link Group ID", "type": "SDTM Dataset Variable"}, "rootItem": {"href": "/mdr/root/sdtmig/datasets/EX/variables/EXLNKGRP", "title": "Version-agnostic anchor resource for SDTMIG variable EX.EXLNKGRP", "type": "Root Data Element"}, "self": {"href": "/mdr/sdtmig/3-3/datasets/EX/variables/EXLNKGRP", "title": "Link Group ID", "type": "SDTM Dataset Variable"}}, "core": "Perm", "description": "Identifier used to link related, grouped records across domains.", "label": "Link Group ID", "name": "EXLNKGRP", "ordinal": "9", "role": "Identifier", "simpleDatatype": "Char"}, {"_links": {"modelClassVariable": {"href": "/mdr/sdtm/1-7/classes/Interventions/variables/--TRT", "title": "Name of Treatment", "type": "Class Variable"}, "parentDataset": {"href": "/mdr/sdtmig/3-3/datasets/EX", "title": "Exposure", "type": "SDTM Dataset"}, "parentProduct": {"href": "/mdr/sdtmig/3-3", "title": "Study Data Tabulation Model Implementation Guide: Human Clinical Trials Version 3.3 (Final)", "type": "Implementation Guide"}, "priorVersion": {"href": "/mdr/sdtmig/3-2/datasets/EX/variables/EXTRT", "title": "Name of Treatment", "type": "SDTM Dataset Variable"}, "rootItem": {"href": "/mdr/root/sdtmig/datasets/EX/variables/EXTRT", "title": "Version-agnostic anchor resource for SDTMIG variable EX.EXTRT", "type": "Root Data Element"}, "self": {"href": "/mdr/sdtmig/3-3/datasets/EX/variables/EXTRT", "title": "Name of Treatment", "type": "SDTM Dataset Variable"}}, "core": "Req", "description": "Name of the protocol-specified study treatment given during the dosing period for the observation.", "label": "Name of Treatment", "name": "EXTRT", "ordinal": "10", "role": "Topic", "simpleDatatype": "Char"}, {"_links": {"modelClassVariable": {"href": "/mdr/sdtm/1-7/classes/Interventions/variables/--CAT", "title": "Category", "type": "Class Variable"}, "parentDataset": {"href": "/mdr/sdtmig/3-3/datasets/EX", "title": "Exposure", "type": "SDTM Dataset"}, "parentProduct": {"href": "/mdr/sdtmig/3-3", "title": "Study Data Tabulation Model Implementation Guide: Human Clinical Trials Version 3.3 (Final)", "type": "Implementation Guide"}, "priorVersion": {"href": "/mdr/sdtmig/3-2/datasets/EX/variables/EXCAT", "title": "Category of Treatment", "type": "SDTM Dataset Variable"}, "rootItem": {"href": "/mdr/root/sdtmig/datasets/EX/variables/EXCAT", "title": "Version-agnostic anchor resource for SDTMIG variable EX.EXCAT", "type": "Root Data Element"}, "self": {"href": "/mdr/sdtmig/3-3/datasets/EX/variables/EXCAT", "title": "Category of Treatment", "type": "SDTM Dataset Variable"}}, "core": "Perm", "description": "Used to define a category of EXTRT values.", "label": "Category of Treatment", "name": "EXCAT", "ordinal": "11", "role": "Grouping Qualifier", "simpleDatatype": "Char"}, {"_links": {"modelClassVariable": {"href": "/mdr/sdtm/1-7/classes/Interventions/variables/--SCAT", "title": "Subcategory", "type": "Class Variable"}, "parentDataset": {"href": "/mdr/sdtmig/3-3/datasets/EX", "title": "Exposure", "type": "SDTM Dataset"}, "parentProduct": {"href": "/mdr/sdtmig/3-3", "title": "Study Data Tabulation Model Implementation Guide: Human Clinical Trials Version 3.3 (Final)", "type": "Implementation Guide"}, "priorVersion": {"href": "/mdr/sdtmig/3-2/datasets/EX/variables/EXSCAT", "title": "Subcategory of Treatment", "type": "SDTM Dataset Variable"}, "rootItem": {"href": "/mdr/root/sdtmig/datasets/EX/variables/EXSCAT", "title": "Version-agnostic anchor resource for SDTMIG variable EX.EXSCAT", "type": "Root Data Element"}, "self": {"href": "/mdr/sdtmig/3-3/datasets/EX/variables/EXSCAT", "title": "Subcategory of Treatment", "type": "SDTM Dataset Variable"}}, "core": "Perm", "description": "A further categorization of EXCAT values.", "label": "Subcategory of Treatment", "name": "EXSCAT", "ordinal": "12", "role": "Grouping Qualifier", "simpleDatatype": "Char"}, {"_links": {"modelClassVariable": {"href": "/mdr/sdtm/1-7/classes/Interventions/variables/--DOSE", "title": "Dose", "type": "Class Variable"}, "parentDataset": {"href": "/mdr/sdtmig/3-3/datasets/EX", "title": "Exposure", "type": "SDTM Dataset"}, "parentProduct": {"href": "/mdr/sdtmig/3-3", "title": "Study Data Tabulation Model Implementation Guide: Human Clinical Trials Version 3.3 (Final)", "type": "Implementation Guide"}, "priorVersion": {"href": "/mdr/sdtmig/3-2/datasets/EX/variables/EXDOSE", "title": "Dose", "type": "SDTM Dataset Variable"}, "rootItem": {"href": "/mdr/root/sdtmig/datasets/EX/variables/EXDOSE", "title": "Version-agnostic anchor resource for SDTMIG variable EX.EXDOSE", "type": "Root Data Element"}, "self": {"href": "/mdr/sdtmig/3-3/datasets/EX/variables/EXDOSE", "title": "Dose", "type": "SDTM Dataset Variable"}}, "core": "Exp", "description": "Amount of EXTRT when numeric. Not populated when EXDOSTXT is populated.", "label": "Dose", "name": "EXDOSE", "ordinal": "13", "role": "Record Qualifier", "simpleDatatype": "Num"}, {"_links": {"modelClassVariable": {"href": "/mdr/sdtm/1-7/classes/Interventions/variables/--DOSTXT", "title": "Dose Description", "type": "Class Variable"}, "parentDataset": {"href": "/mdr/sdtmig/3-3/datasets/EX", "title": "Exposure", "type": "SDTM Dataset"}, "parentProduct": {"href": "/mdr/sdtmig/3-3", "title": "Study Data Tabulation Model Implementation Guide: Human Clinical Trials Version 3.3 (Final)", "type": "Implementation Guide"}, "priorVersion": {"href": "/mdr/sdtmig/3-2/datasets/EX/variables/EXDOSTXT", "title": "Dose Description", "type": "SDTM Dataset Variable"}, "rootItem": {"href": "/mdr/root/sdtmig/datasets/EX/variables/EXDOSTXT", "title": "Version-agnostic anchor resource for SDTMIG variable EX.EXDOSTXT", "type": "Root Data Element"}, "self": {"href": "/mdr/sdtmig/3-3/datasets/EX/variables/EXDOSTXT", "title": "Dose Description", "type": "SDTM Dataset Variable"}}, "core": "Perm", "description": "Amount of EXTRT when non-numeric. Dosing amounts or a range of dosing information collected in text form. Example: 200-400. Not populated when EXDOSE is populated.", "label": "Dose Description", "name": "EXDOSTXT", "ordinal": "14", "role": "Record Qualifier", "simpleDatatype": "Char"}, {"_links": {"codelist": [{"href": "/mdr/root/ct/sdtmct/codelists/C71620", "title": "Version-agnostic anchor resource for codelist C71620", "type": "Root Value Domain"}], "modelClassVariable": {"href": "/mdr/sdtm/1-7/classes/Interventions/variables/--DOSU", "title": "Dose Units", "type": "Class Variable"}, "parentDataset": {"href": "/mdr/sdtmig/3-3/datasets/EX", "title": "Exposure", "type": "SDTM Dataset"}, "parentProduct": {"href": "/mdr/sdtmig/3-3", "title": "Study Data Tabulation Model Implementation Guide: Human Clinical Trials Version 3.3 (Final)", "type": "Implementation Guide"}, "priorVersion": {"href": "/mdr/sdtmig/3-2/datasets/EX/variables/EXDOSU", "title": "Dose Units", "type": "SDTM Dataset Variable"}, "rootItem": {"href": "/mdr/root/sdtmig/datasets/EX/variables/EXDOSU", "title": "Version-agnostic anchor resource for SDTMIG variable EX.EXDOSU", "type": "Root Data Element"}, "self": {"href": "/mdr/sdtmig/3-3/datasets/EX/variables/EXDOSU", "title": "Dose Units", "type": "SDTM Dataset Variable"}}, "core": "Exp", "description": "Units for EXDOSE, EXDOSTOT, or EXDOSTXT representing protocol-specified values. Examples: \"ng\", \"mg\", \"mg/kg\", \"mg/m2\".", "label": "Dose Units", "name": "EXDOSU", "ordinal": "15", "role": "Variable Qualifier", "simpleDatatype": "Char"}, {"_links": {"codelist": [{"href": "/mdr/root/ct/sdtmct/codelists/C66726", "title": "Version-agnostic anchor resource for codelist C66726", "type": "Root Value Domain"}], "modelClassVariable": {"href": "/mdr/sdtm/1-7/classes/Interventions/variables/--DOSFRM", "title": "Dose Form", "type": "Class Variable"}, "parentDataset": {"href": "/mdr/sdtmig/3-3/datasets/EX", "title": "Exposure", "type": "SDTM Dataset"}, "parentProduct": {"href": "/mdr/sdtmig/3-3", "title": "Study Data Tabulation Model Implementation Guide: Human Clinical Trials Version 3.3 (Final)", "type": "Implementation Guide"}, "priorVersion": {"href": "/mdr/sdtmig/3-2/datasets/EX/variables/EXDOSFRM", "title": "Dose Form", "type": "SDTM Dataset Variable"}, "rootItem": {"href": "/mdr/root/sdtmig/datasets/EX/variables/EXDOSFRM", "title": "Version-agnostic anchor resource for SDTMIG variable EX.EXDOSFRM", "type": "Root Data Element"}, "self": {"href": "/mdr/sdtmig/3-3/datasets/EX/variables/EXDOSFRM", "title": "Dose Form", "type": "SDTM Dataset Variable"}}, "core": "Exp", "description": "Dose form for EXTRT. Examples: \"TABLET\", \"LOTION\".", "label": "Dose Form", "name": "EXDOSFRM", "ordinal": "16", "role": "Variable Qualifier", "simpleDatatype": "Char"}, {"_links": {"codelist": [{"href": "/mdr/root/ct/sdtmct/codelists/C71113", "title": "Version-agnostic anchor resource for codelist C71113", "type": "Root Value Domain"}], "modelClassVariable": {"href": "/mdr/sdtm/1-7/classes/Interventions/variables/--DOSFRQ", "title": "Dosing Frequency per Interval", "type": "Class Variable"}, "parentDataset": {"href": "/mdr/sdtmig/3-3/datasets/EX", "title": "Exposure", "type": "SDTM Dataset"}, "parentProduct": {"href": "/mdr/sdtmig/3-3", "title": "Study Data Tabulation Model Implementation Guide: Human Clinical Trials Version 3.3 (Final)", "type": "Implementation Guide"}, "priorVersion": {"href": "/mdr/sdtmig/3-2/datasets/EX/variables/EXDOSFRQ", "title": "Dosing Frequency per Interval", "type": "SDTM Dataset Variable"}, "rootItem": {"href": "/mdr/root/sdtmig/datasets/EX/variables/EXDOSFRQ", "title": "Version-agnostic anchor resource for SDTMIG variable EX.EXDOSFRQ", "type": "Root Data Element"}, "self": {"href": "/mdr/sdtmig/3-3/datasets/EX/variables/EXDOSFRQ", "title": "Dosing Frequency per Interval", "type": "SDTM Dataset Variable"}}, "core": "Perm", "description": "Usually expressed as the number of repeated administrations of EXDOSE within a specific time period. Examples: \"Q2H\", \"QD\", \"BID\".", "label": "Dosing Frequency per Interval", "name": "EXDOSFRQ", "ordinal": "17", "role": "Variable Qualifier", "simpleDatatype": "Char"}, {"_links": {"modelClassVariable": {"href": "/mdr/sdtm/1-7/classes/Interventions/variables/--DOSRGM", "title": "Intended Dose Regimen", "type": "Class Variable"}, "parentDataset": {"href": "/mdr/sdtmig/3-3/datasets/EX", "title": "Exposure", "type": "SDTM Dataset"}, "parentProduct": {"href": "/mdr/sdtmig/3-3", "title": "Study Data Tabulation Model Implementation Guide: Human Clinical Trials Version 3.3 (Final)", "type": "Implementation Guide"}, "priorVersion": {"href": "/mdr/sdtmig/3-2/datasets/EX/variables/EXDOSRGM", "title": "Intended Dose Regimen", "type": "SDTM Dataset Variable"}, "rootItem": {"href": "/mdr/root/sdtmig/datasets/EX/variables/EXDOSRGM", "title": "Version-agnostic anchor resource for SDTMIG variable EX.EXDOSRGM", "type": "Root Data Element"}, "self": {"href": "/mdr/sdtmig/3-3/datasets/EX/variables/EXDOSRGM", "title": "Intended Dose Regimen", "type": "SDTM Dataset Variable"}}, "core": "Perm", "description": "Text description of the intended schedule or regimen for the Intervention. Example: \"TWO WEEKS ON, TWO WEEKS OFF\".", "label": "Intended Dose Regimen", "name": "EXDOSRGM", "ordinal": "18", "role": "Variable Qualifier", "simpleDatatype": "Char"}, {"_links": {"codelist": [{"href": "/mdr/root/ct/sdtmct/codelists/C66729", "title": "Version-agnostic anchor resource for codelist C66729", "type": "Root Value Domain"}], "modelClassVariable": {"href": "/mdr/sdtm/1-7/classes/Interventions/variables/--ROUTE", "title": "Route of Administration", "type": "Class Variable"}, "parentDataset": {"href": "/mdr/sdtmig/3-3/datasets/EX", "title": "Exposure", "type": "SDTM Dataset"}, "parentProduct": {"href": "/mdr/sdtmig/3-3", "title": "Study Data Tabulation Model Implementation Guide: Human Clinical Trials Version 3.3 (Final)", "type": "Implementation Guide"}, "priorVersion": {"href": "/mdr/sdtmig/3-2/datasets/EX/variables/EXROUTE", "title": "Route of Administration", "type": "SDTM Dataset Variable"}, "rootItem": {"href": "/mdr/root/sdtmig/datasets/EX/variables/EXROUTE", "title": "Version-agnostic anchor resource for SDTMIG variable EX.EXROUTE", "type": "Root Data Element"}, "self": {"href": "/mdr/sdtmig/3-3/datasets/EX/variables/EXROUTE", "title": "Route of Administration", "type": "SDTM Dataset Variable"}}, "core": "Perm", "description": "Route of administration for the intervention. Examples: \"ORAL\", \"INTRAVENOUS\".", "label": "Route of Administration", "name": "EXROUTE", "ordinal": "19", "role": "Variable Qualifier", "simpleDatatype": "Char"}, {"_links": {"modelClassVariable": {"href": "/mdr/sdtm/1-7/classes/Interventions/variables/--LOT", "title": "Lot Number", "type": "Class Variable"}, "parentDataset": {"href": "/mdr/sdtmig/3-3/datasets/EX", "title": "Exposure", "type": "SDTM Dataset"}, "parentProduct": {"href": "/mdr/sdtmig/3-3", "title": "Study Data Tabulation Model Implementation Guide: Human Clinical Trials Version 3.3 (Final)", "type": "Implementation Guide"}, "priorVersion": {"href": "/mdr/sdtmig/3-2/datasets/EX/variables/EXLOT", "title": "Lot Number", "type": "SDTM Dataset Variable"}, "rootItem": {"href": "/mdr/root/sdtmig/datasets/EX/variables/EXLOT", "title": "Version-agnostic anchor resource for SDTMIG variable EX.EXLOT", "type": "Root Data Element"}, "self": {"href": "/mdr/sdtmig/3-3/datasets/EX/variables/EXLOT", "title": "Lot Number", "type": "SDTM Dataset Variable"}}, "core": "Perm", "description": "Lot number of the intervention product.", "label": "Lot Number", "name": "EXLOT", "ordinal": "20", "role": "Record Qualifier", "simpleDatatype": "Char"}, {"_links": {"codelist": [{"href": "/mdr/root/ct/sdtmct/codelists/C74456", "title": "Version-agnostic anchor resource for codelist C74456", "type": "Root Value Domain"}], "modelClassVariable": {"href": "/mdr/sdtm/1-7/classes/Interventions/variables/--LOC", "title": "Location of Dose Administration", "type": "Class Variable"}, "parentDataset": {"href": "/mdr/sdtmig/3-3/datasets/EX", "title": "Exposure", "type": "SDTM Dataset"}, "parentProduct": {"href": "/mdr/sdtmig/3-3", "title": "Study Data Tabulation Model Implementation Guide: Human Clinical Trials Version 3.3 (Final)", "type": "Implementation Guide"}, "priorVersion": {"href": "/mdr/sdtmig/3-2/datasets/EX/variables/EXLOC", "title": "Location of Dose Administration", "type": "SDTM Dataset Variable"}, "rootItem": {"href": "/mdr/root/sdtmig/datasets/EX/variables/EXLOC", "title": "Version-agnostic anchor resource for SDTMIG variable EX.EXLOC", "type": "Root Data Element"}, "self": {"href": "/mdr/sdtmig/3-3/datasets/EX/variables/EXLOC", "title": "Location of Dose Administration", "type": "SDTM Dataset Variable"}}, "core": "Perm", "description": "Specifies location of administration. Examples: \"ARM\", \"LIP\".", "label": "Location of Dose Administration", "name": "EXLOC", "ordinal": "21", "role": "Record Qualifier", "simpleDatatype": "Char"}, {"_links": {"codelist": [{"href": "/mdr/root/ct/sdtmct/codelists/C99073", "title": "Version-agnostic anchor resource for codelist C99073", "type": "Root Value Domain"}], "modelClassVariable": {"href": "/mdr/sdtm/1-7/classes/Interventions/variables/--LAT", "title": "Laterality", "type": "Class Variable"}, "parentDataset": {"href": "/mdr/sdtmig/3-3/datasets/EX", "title": "Exposure", "type": "SDTM Dataset"}, "parentProduct": {"href": "/mdr/sdtmig/3-3", "title": "Study Data Tabulation Model Implementation Guide: Human Clinical Trials Version 3.3 (Final)", "type": "Implementation Guide"}, "priorVersion": {"href": "/mdr/sdtmig/3-2/datasets/EX/variables/EXLAT", "title": "Laterality", "type": "SDTM Dataset Variable"}, "rootItem": {"href": "/mdr/root/sdtmig/datasets/EX/variables/EXLAT", "title": "Version-agnostic anchor resource for SDTMIG variable EX.EXLAT", "type": "Root Data Element"}, "self": {"href": "/mdr/sdtmig/3-3/datasets/EX/variables/EXLAT", "title": "Laterality", "type": "SDTM Dataset Variable"}}, "core": "Perm", "description": "Qualifier for anatomical location further detailing laterality of the intervention administration. Examples: \"LEFT\", \"RIGHT\".", "label": "Laterality", "name": "EXLAT", "ordinal": "22", "role": "Variable Qualifier", "simpleDatatype": "Char"}, {"_links": {"codelist": [{"href": "/mdr/root/ct/sdtmct/codelists/C99074", "title": "Version-agnostic anchor resource for codelist C99074", "type": "Root Value Domain"}], "modelClassVariable": {"href": "/mdr/sdtm/1-7/classes/Interventions/variables/--DIR", "title": "Directionality", "type": "Class Variable"}, "parentDataset": {"href": "/mdr/sdtmig/3-3/datasets/EX", "title": "Exposure", "type": "SDTM Dataset"}, "parentProduct": {"href": "/mdr/sdtmig/3-3", "title": "Study Data Tabulation Model Implementation Guide: Human Clinical Trials Version 3.3 (Final)", "type": "Implementation Guide"}, "priorVersion": {"href": "/mdr/sdtmig/3-2/datasets/EX/variables/EXDIR", "title": "Directionality", "type": "SDTM Dataset Variable"}, "rootItem": {"href": "/mdr/root/sdtmig/datasets/EX/variables/EXDIR", "title": "Version-agnostic anchor resource for SDTMIG variable EX.EXDIR", "type": "Root Data Element"}, "self": {"href": "/mdr/sdtmig/3-3/datasets/EX/variables/EXDIR", "title": "Directionality", "type": "SDTM Dataset Variable"}}, "core": "Perm", "description": "Qualifier for anatomical location further detailing directionality. Examples: \"ANTERIOR\", \"LOWER\", \"PROXIMAL\", \"UPPER\".", "label": "Directionality", "name": "EXDIR", "ordinal": "23", "role": "Variable Qualifier", "simpleDatatype": "Char"}, {"_links": {"codelist": [{"href": "/mdr/root/ct/sdtmct/codelists/C66742", "title": "Version-agnostic anchor resource for codelist C66742", "type": "Root Value Domain"}], "modelClassVariable": {"href": "/mdr/sdtm/1-7/classes/Interventions/variables/--FAST", "title": "Fasting Status", "type": "Class Variable"}, "parentDataset": {"href": "/mdr/sdtmig/3-3/datasets/EX", "title": "Exposure", "type": "SDTM Dataset"}, "parentProduct": {"href": "/mdr/sdtmig/3-3", "title": "Study Data Tabulation Model Implementation Guide: Human Clinical Trials Version 3.3 (Final)", "type": "Implementation Guide"}, "priorVersion": {"href": "/mdr/sdtmig/3-2/datasets/EX/variables/EXFAST", "title": "Fasting Status", "type": "SDTM Dataset Variable"}, "rootItem": {"href": "/mdr/root/sdtmig/datasets/EX/variables/EXFAST", "title": "Version-agnostic anchor resource for SDTMIG variable EX.EXFAST", "type": "Root Data Element"}, "self": {"href": "/mdr/sdtmig/3-3/datasets/EX/variables/EXFAST", "title": "Fasting Status", "type": "SDTM Dataset Variable"}}, "core": "Perm", "description": "Indicator used to identify fasting status. Examples: \"Y\", \"N\".", "label": "Fasting Status", "name": "EXFAST", "ordinal": "24", "role": "Record Qualifier", "simpleDatatype": "Char"}, {"_links": {"modelClassVariable": {"href": "/mdr/sdtm/1-7/classes/Interventions/variables/--ADJ", "title": "Reason for Dose Adjustment", "type": "Class Variable"}, "parentDataset": {"href": "/mdr/sdtmig/3-3/datasets/EX", "title": "Exposure", "type": "SDTM Dataset"}, "parentProduct": {"href": "/mdr/sdtmig/3-3", "title": "Study Data Tabulation Model Implementation Guide: Human Clinical Trials Version 3.3 (Final)", "type": "Implementation Guide"}, "priorVersion": {"href": "/mdr/sdtmig/3-2/datasets/EX/variables/EXADJ", "title": "Reason for Dose Adjustment", "type": "SDTM Dataset Variable"}, "rootItem": {"href": "/mdr/root/sdtmig/datasets/EX/variables/EXADJ", "title": "Version-agnostic anchor resource for SDTMIG variable EX.EXADJ", "type": "Root Data Element"}, "self": {"href": "/mdr/sdtmig/3-3/datasets/EX/variables/EXADJ", "title": "Reason for Dose Adjustment", "type": "SDTM Dataset Variable"}}, "core": "Perm", "description": "Describes reason or explanation of why a dose is adjusted.", "label": "Reason for Dose Adjustment", "name": "EXADJ", "ordinal": "25", "role": "Record Qualifier", "simpleDatatype": "Char"}, {"_links": {"modelClassVariable": {"href": "/mdr/sdtm/1-7/classes/GeneralObservations/variables/TAETORD", "title": "Planned Order of Element Within Arm", "type": "Class Variable"}, "parentDataset": {"href": "/mdr/sdtmig/3-3/datasets/EX", "title": "Exposure", "type": "SDTM Dataset"}, "parentProduct": {"href": "/mdr/sdtmig/3-3", "title": "Study Data Tabulation Model Implementation Guide: Human Clinical Trials Version 3.3 (Final)", "type": "Implementation Guide"}, "rootItem": {"href": "/mdr/root/sdtmig/datasets/EX/variables/TAETORD", "title": "Version-agnostic anchor resource for SDTMIG variable EX.TAETORD", "type": "Root Data Element"}, "self": {"href": "/mdr/sdtmig/3-3/datasets/EX/variables/TAETORD", "title": "Planned Order of Element within Arm", "type": "SDTM Dataset Variable"}}, "core": "Perm", "description": "Number that gives the planned order of the Element within the Arm.", "label": "Planned Order of Element within Arm", "name": "TAETORD", "ordinal": "26", "role": "Timing", "simpleDatatype": "Num"}, {"_links": {"codelist": [{"href": "/mdr/root/ct/sdtmct/codelists/C99079", "title": "Version-agnostic anchor resource for codelist C99079", "type": "Root Value Domain"}], "modelClassVariable": {"href": "/mdr/sdtm/1-7/classes/GeneralObservations/variables/EPOCH", "title": "Epoch", "type": "Class Variable"}, "parentDataset": {"href": "/mdr/sdtmig/3-3/datasets/EX", "title": "Exposure", "type": "SDTM Dataset"}, "parentProduct": {"href": "/mdr/sdtmig/3-3", "title": "Study Data Tabulation Model Implementation Guide: Human Clinical Trials Version 3.3 (Final)", "type": "Implementation Guide"}, "priorVersion": {"href": "/mdr/sdtmig/3-2/datasets/EX/variables/EPOCH", "title": "Epoch", "type": "SDTM Dataset Variable"}, "rootItem": {"href": "/mdr/root/sdtmig/datasets/EX/variables/EPOCH", "title": "Version-agnostic anchor resource for SDTMIG variable EX.EPOCH", "type": "Root Data Element"}, "self": {"href": "/mdr/sdtmig/3-3/datasets/EX/variables/EPOCH", "title": "Epoch", "type": "SDTM Dataset Variable"}}, "core": "Perm", "description": "Trial Epoch of the Exposure record. Examples: \"RUN-IN\", \"TREATMENT\".", "label": "Epoch", "name": "EPOCH", "ordinal": "27", "role": "Timing", "simpleDatatype": "Char"}, {"_links": {"modelClassVariable": {"href": "/mdr/sdtm/1-7/classes/GeneralObservations/variables/--STDTC", "title": "Start Date/Time of Observation", "type": "Class Variable"}, "parentDataset": {"href": "/mdr/sdtmig/3-3/datasets/EX", "title": "Exposure", "type": "SDTM Dataset"}, "parentProduct": {"href": "/mdr/sdtmig/3-3", "title": "Study Data Tabulation Model Implementation Guide: Human Clinical Trials Version 3.3 (Final)", "type": "Implementation Guide"}, "priorVersion": {"href": "/mdr/sdtmig/3-2/datasets/EX/variables/EXSTDTC", "title": "Start Date/Time of Treatment", "type": "SDTM Dataset Variable"}, "rootItem": {"href": "/mdr/root/sdtmig/datasets/EX/variables/EXSTDTC", "title": "Version-agnostic anchor resource for SDTMIG variable EX.EXSTDTC", "type": "Root Data Element"}, "self": {"href": "/mdr/sdtmig/3-3/datasets/EX/variables/EXSTDTC", "title": "Start Date/Time of Treatment", "type": "SDTM Dataset Variable"}}, "core": "Exp", "describedValueDomain": "ISO 8601", "description": "The date/time when administration of the treatment indicated by EXTRT and EXDOSE began.", "label": "Start Date/Time of Treatment", "name": "EXSTDTC", "ordinal": "28", "role": "Timing", "simpleDatatype": "Char"}, {"_links": {"modelClassVariable": {"href": "/mdr/sdtm/1-7/classes/GeneralObservations/variables/--ENDTC", "title": "End Date/Time of Observation", "type": "Class Variable"}, "parentDataset": {"href": "/mdr/sdtmig/3-3/datasets/EX", "title": "Exposure", "type": "SDTM Dataset"}, "parentProduct": {"href": "/mdr/sdtmig/3-3", "title": "Study Data Tabulation Model Implementation Guide: Human Clinical Trials Version 3.3 (Final)", "type": "Implementation Guide"}, "priorVersion": {"href": "/mdr/sdtmig/3-2/datasets/EX/variables/EXENDTC", "title": "End Date/Time of Treatment", "type": "SDTM Dataset Variable"}, "rootItem": {"href": "/mdr/root/sdtmig/datasets/EX/variables/EXENDTC", "title": "Version-agnostic anchor resource for SDTMIG variable EX.EXENDTC", "type": "Root Data Element"}, "self": {"href": "/mdr/sdtmig/3-3/datasets/EX/variables/EXENDTC", "title": "End Date/Time of Treatment", "type": "SDTM Dataset Variable"}}, "core": "Exp", "describedValueDomain": "ISO 8601", "description": "The date/time when administration of the treatment indicated by EXTRT and EXDOSE ended. For administrations considered given at a point in time (e.g., oral tablet, pre-filled syringe injection), where only an administration date/time is collected, EXSTDTC should be copied to EXENDTC as the standard representation.", "label": "End Date/Time of Treatment", "name": "EXENDTC", "ordinal": "29", "role": "Timing", "simpleDatatype": "Char"}, {"_links": {"modelClassVariable": {"href": "/mdr/sdtm/1-7/classes/GeneralObservations/variables/--STDY", "title": "Study Day of Start of Observation", "type": "Class Variable"}, "parentDataset": {"href": "/mdr/sdtmig/3-3/datasets/EX", "title": "Exposure", "type": "SDTM Dataset"}, "parentProduct": {"href": "/mdr/sdtmig/3-3", "title": "Study Data Tabulation Model Implementation Guide: Human Clinical Trials Version 3.3 (Final)", "type": "Implementation Guide"}, "priorVersion": {"href": "/mdr/sdtmig/3-2/datasets/EX/variables/EXSTDY", "title": "Study Day of Start of Treatment", "type": "SDTM Dataset Variable"}, "rootItem": {"href": "/mdr/root/sdtmig/datasets/EX/variables/EXSTDY", "title": "Version-agnostic anchor resource for SDTMIG variable EX.EXSTDY", "type": "Root Data Element"}, "self": {"href": "/mdr/sdtmig/3-3/datasets/EX/variables/EXSTDY", "title": "Study Day of Start of Treatment", "type": "SDTM Dataset Variable"}}, "core": "Perm", "description": "Study day of EXSTDTC relative to DM.RFSTDTC.", "label": "Study Day of Start of Treatment", "name": "EXSTDY", "ordinal": "30", "role": "Timing", "simpleDatatype": "Num"}, {"_links": {"modelClassVariable": {"href": "/mdr/sdtm/1-7/classes/GeneralObservations/variables/--ENDY", "title": "Study Day of End of Observation", "type": "Class Variable"}, "parentDataset": {"href": "/mdr/sdtmig/3-3/datasets/EX", "title": "Exposure", "type": "SDTM Dataset"}, "parentProduct": {"href": "/mdr/sdtmig/3-3", "title": "Study Data Tabulation Model Implementation Guide: Human Clinical Trials Version 3.3 (Final)", "type": "Implementation Guide"}, "priorVersion": {"href": "/mdr/sdtmig/3-2/datasets/EX/variables/EXENDY", "title": "Study Day of End of Treatment", "type": "SDTM Dataset Variable"}, "rootItem": {"href": "/mdr/root/sdtmig/datasets/EX/variables/EXENDY", "title": "Version-agnostic anchor resource for SDTMIG variable EX.EXENDY", "type": "Root Data Element"}, "self": {"href": "/mdr/sdtmig/3-3/datasets/EX/variables/EXENDY", "title": "Study Day of End of Treatment", "type": "SDTM Dataset Variable"}}, "core": "Perm", "description": "Study day of EXENDTC relative to DM.RFSTDTC.", "label": "Study Day of End of Treatment", "name": "EXENDY", "ordinal": "31", "role": "Timing", "simpleDatatype": "Num"}, {"_links": {"modelClassVariable": {"href": "/mdr/sdtm/1-7/classes/GeneralObservations/variables/--DUR", "title": "Duration", "type": "Class Variable"}, "parentDataset": {"href": "/mdr/sdtmig/3-3/datasets/EX", "title": "Exposure", "type": "SDTM Dataset"}, "parentProduct": {"href": "/mdr/sdtmig/3-3", "title": "Study Data Tabulation Model Implementation Guide: Human Clinical Trials Version 3.3 (Final)", "type": "Implementation Guide"}, "priorVersion": {"href": "/mdr/sdtmig/3-2/datasets/EX/variables/EXDUR", "title": "Duration of Treatment", "type": "SDTM Dataset Variable"}, "rootItem": {"href": "/mdr/root/sdtmig/datasets/EX/variables/EXDUR", "title": "Version-agnostic anchor resource for SDTMIG variable EX.EXDUR", "type": "Root Data Element"}, "self": {"href": "/mdr/sdtmig/3-3/datasets/EX/variables/EXDUR", "title": "Duration of Treatment", "type": "SDTM Dataset Variable"}}, "core": "Perm", "describedValueDomain": "ISO 8601", "description": "Collected duration of administration. Used only if collected on the CRF and not derived from start and end date/times.", "label": "Duration of Treatment", "name": "EXDUR", "ordinal": "32", "role": "Timing", "simpleDatatype": "Char"}, {"_links": {"modelClassVariable": {"href": "/mdr/sdtm/1-7/classes/GeneralObservations/variables/--TPT", "title": "Planned Time Point Name", "type": "Class Variable"}, "parentDataset": {"href": "/mdr/sdtmig/3-3/datasets/EX", "title": "Exposure", "type": "SDTM Dataset"}, "parentProduct": {"href": "/mdr/sdtmig/3-3", "title": "Study Data Tabulation Model Implementation Guide: Human Clinical Trials Version 3.3 (Final)", "type": "Implementation Guide"}, "priorVersion": {"href": "/mdr/sdtmig/3-2/datasets/EX/variables/EXTPT", "title": "Planned Time Point Name", "type": "SDTM Dataset Variable"}, "rootItem": {"href": "/mdr/root/sdtmig/datasets/EX/variables/EXTPT", "title": "Version-agnostic anchor resource for SDTMIG variable EX.EXTPT", "type": "Root Data Element"}, "self": {"href": "/mdr/sdtmig/3-3/datasets/EX/variables/EXTPT", "title": "Planned Time Point Name", "type": "SDTM Dataset Variable"}}, "core": "Perm", "description": "1. Text Description of time when administration should occur.\n2. This may be represented as an elapsed time relative to a fixed reference point, such as time of last dose. See EXTPTNUM and EXTPTREF.", "label": "Planned Time Point Name", "name": "EXTPT", "ordinal": "33", "role": "Timing", "simpleDatatype": "Char"}, {"_links": {"modelClassVariable": {"href": "/mdr/sdtm/1-7/classes/GeneralObservations/variables/--TPTNUM", "title": "Planned Time Point Number", "type": "Class Variable"}, "parentDataset": {"href": "/mdr/sdtmig/3-3/datasets/EX", "title": "Exposure", "type": "SDTM Dataset"}, "parentProduct": {"href": "/mdr/sdtmig/3-3", "title": "Study Data Tabulation Model Implementation Guide: Human Clinical Trials Version 3.3 (Final)", "type": "Implementation Guide"}, "priorVersion": {"href": "/mdr/sdtmig/3-2/datasets/EX/variables/EXTPTNUM", "title": "Planned Time Point Number", "type": "SDTM Dataset Variable"}, "rootItem": {"href": "/mdr/root/sdtmig/datasets/EX/variables/EXTPTNUM", "title": "Version-agnostic anchor resource for SDTMIG variable EX.EXTPTNUM", "type": "Root Data Element"}, "self": {"href": "/mdr/sdtmig/3-3/datasets/EX/variables/EXTPTNUM", "title": "Planned Time Point Number", "type": "SDTM Dataset Variable"}}, "core": "Perm", "description": "Numerical version of EXTPT to aid in sorting.", "label": "Planned Time Point Number", "name": "EXTPTNUM", "ordinal": "34", "role": "Timing", "simpleDatatype": "Num"}, {"_links": {"modelClassVariable": {"href": "/mdr/sdtm/1-7/classes/GeneralObservations/variables/--ELTM", "title": "Planned Elapsed Time from Time Point Ref", "type": "Class Variable"}, "parentDataset": {"href": "/mdr/sdtmig/3-3/datasets/EX", "title": "Exposure", "type": "SDTM Dataset"}, "parentProduct": {"href": "/mdr/sdtmig/3-3", "title": "Study Data Tabulation Model Implementation Guide: Human Clinical Trials Version 3.3 (Final)", "type": "Implementation Guide"}, "priorVersion": {"href": "/mdr/sdtmig/3-2/datasets/EX/variables/EXELTM", "title": "Planned Elapsed Time from Time Point Ref", "type": "SDTM Dataset Variable"}, "rootItem": {"href": "/mdr/root/sdtmig/datasets/EX/variables/EXELTM", "title": "Version-agnostic anchor resource for SDTMIG variable EX.EXELTM", "type": "Root Data Element"}, "self": {"href": "/mdr/sdtmig/3-3/datasets/EX/variables/EXELTM", "title": "Planned Elapsed Time from Time Point Ref", "type": "SDTM Dataset Variable"}}, "core": "Perm", "describedValueDomain": "ISO 8601", "description": "Planned elapsed time relative to the planned fixed reference (EXTPTREF). This variable is useful where there are repetitive measures. Not a clock time.", "label": "Planned Elapsed Time from Time Point Ref", "name": "EXELTM", "ordinal": "35", "role": "Timing", "simpleDatatype": "Char"}, {"_links": {"modelClassVariable": {"href": "/mdr/sdtm/1-7/classes/GeneralObservations/variables/--TPTREF", "title": "Time Point Reference", "type": "Class Variable"}, "parentDataset": {"href": "/mdr/sdtmig/3-3/datasets/EX", "title": "Exposure", "type": "SDTM Dataset"}, "parentProduct": {"href": "/mdr/sdtmig/3-3", "title": "Study Data Tabulation Model Implementation Guide: Human Clinical Trials Version 3.3 (Final)", "type": "Implementation Guide"}, "priorVersion": {"href": "/mdr/sdtmig/3-2/datasets/EX/variables/EXTPTREF", "title": "Time Point Reference", "type": "SDTM Dataset Variable"}, "rootItem": {"href": "/mdr/root/sdtmig/datasets/EX/variables/EXTPTREF", "title": "Version-agnostic anchor resource for SDTMIG variable EX.EXTPTREF", "type": "Root Data Element"}, "self": {"href": "/mdr/sdtmig/3-3/datasets/EX/variables/EXTPTREF", "title": "Time Point Reference", "type": "SDTM Dataset Variable"}}, "core": "Perm", "description": "Name of the fixed reference point referred to by EXELTM, EXTPTNUM, and EXTPT. Examples: PREVIOUS DOSE, PREVIOUS MEAL.", "label": "Time Point Reference", "name": "EXTPTREF", "ordinal": "36", "role": "Timing", "simpleDatatype": "Char"}, {"_links": {"modelClassVariable": {"href": "/mdr/sdtm/1-7/classes/GeneralObservations/variables/--RFTDTC", "title": "Date/Time of Reference Time Point", "type": "Class Variable"}, "parentDataset": {"href": "/mdr/sdtmig/3-3/datasets/EX", "title": "Exposure", "type": "SDTM Dataset"}, "parentProduct": {"href": "/mdr/sdtmig/3-3", "title": "Study Data Tabulation Model Implementation Guide: Human Clinical Trials Version 3.3 (Final)", "type": "Implementation Guide"}, "priorVersion": {"href": "/mdr/sdtmig/3-2/datasets/EX/variables/EXRFTDTC", "title": "Date/Time of Reference Time Point", "type": "SDTM Dataset Variable"}, "rootItem": {"href": "/mdr/root/sdtmig/datasets/EX/variables/EXRFTDTC", "title": "Version-agnostic anchor resource for SDTMIG variable EX.EXRFTDTC", "type": "Root Data Element"}, "self": {"href": "/mdr/sdtmig/3-3/datasets/EX/variables/EXRFTDTC", "title": "Date/Time of Reference Time Point", "type": "SDTM Dataset Variable"}}, "core": "Perm", "describedValueDomain": "ISO 8601", "description": "Date/time for a fixed reference time point defined by EXTPTREF.", "label": "Date/Time of Reference Time Point", "name": "EXRFTDTC", "ordinal": "37", "role": "Timing", "simpleDatatype": "Char"}], "description": "An interventions domain that contains the details of a subject's exposure to protocol-specified study treatment. Study treatment may be any intervention that is prospectively defined as a test material within a study, and is typically but not always supplied to the subject. (Source: CDISC Controlled Terminology, DOMAIN, C49587, 2018-06-29)", "label": "Exposure", "name": "EX", "ordinal": "8"}
