{"_links": {"parentClass": {"href": "/mdr/sdtmig/3-3/classes/Findings", "title": "Findings Observation Class", "type": "Class"}, "parentProduct": {"href": "/mdr/sdtmig/3-3", "title": "Study Data Tabulation Model Implementation Guide: Human Clinical Trials Version 3.3 (Final)", "type": "Implementation Guide"}, "self": {"href": "/mdr/sdtmig/3-3/datasets/FT", "title": "Functional Tests", "type": "SDTM Dataset"}}, "datasetStructure": "One record per Functional Test finding per time point per visit per subject", "datasetVariables": [{"_links": {"modelClassVariable": {"href": "/mdr/sdtm/1-7/classes/GeneralObservations/variables/STUDYID", "title": "Study Identifier", "type": "Class Variable"}, "parentDataset": {"href": "/mdr/sdtmig/3-3/datasets/FT", "title": "Functional Tests", "type": "SDTM Dataset"}, "parentProduct": {"href": "/mdr/sdtmig/3-3", "title": "Study Data Tabulation Model Implementation Guide: Human Clinical Trials Version 3.3 (Final)", "type": "Implementation Guide"}, "rootItem": {"href": "/mdr/root/sdtmig/datasets/FT/variables/STUDYID", "title": "Version-agnostic anchor resource for SDTMIG variable FT.STUDYID", "type": "Root Data Element"}, "self": {"href": "/mdr/sdtmig/3-3/datasets/FT/variables/STUDYID", "title": "Study Identifier", "type": "SDTM Dataset Variable"}}, "core": "Req", "description": "Unique identifier for a study.", "label": "Study Identifier", "name": "STUDYID", "ordinal": "1", "role": "Identifier", "simpleDatatype": "Char"}, {"_links": {"modelClassVariable": {"href": "/mdr/sdtm/1-7/classes/GeneralObservations/variables/DOMAIN", "title": "Domain Abbreviation", "type": "Class Variable"}, "parentDataset": {"href": "/mdr/sdtmig/3-3/datasets/FT", "title": "Functional Tests", "type": "SDTM Dataset"}, "parentProduct": {"href": "/mdr/sdtmig/3-3", "title": "Study Data Tabulation Model Implementation Guide: Human Clinical Trials Version 3.3 (Final)", "type": "Implementation Guide"}, "rootItem": {"href": "/mdr/root/sdtmig/datasets/FT/variables/DOMAIN", "title": "Version-agnostic anchor resource for SDTMIG variable FT.DOMAIN", "type": "Root Data Element"}, "self": {"href": "/mdr/sdtmig/3-3/datasets/FT/variables/DOMAIN", "title": "Domain Abbreviation", "type": "SDTM Dataset Variable"}}, "core": "Req", "description": "Two-character abbreviation for the domain.", "label": "Domain Abbreviation", "name": "DOMAIN", "ordinal": "2", "role": "Identifier", "simpleDatatype": "Char", "valueList": ["FT"]}, {"_links": {"modelClassVariable": {"href": "/mdr/sdtm/1-7/classes/GeneralObservations/variables/USUBJID", "title": "Unique Subject Identifier", "type": "Class Variable"}, "parentDataset": {"href": "/mdr/sdtmig/3-3/datasets/FT", "title": "Functional Tests", "type": "SDTM Dataset"}, "parentProduct": {"href": "/mdr/sdtmig/3-3", "title": "Study Data Tabulation Model Implementation Guide: Human Clinical Trials Version 3.3 (Final)", "type": "Implementation Guide"}, "rootItem": {"href": "/mdr/root/sdtmig/datasets/FT/variables/USUBJID", "title": "Version-agnostic anchor resource for SDTMIG variable FT.USUBJID", "type": "Root Data Element"}, "self": {"href": "/mdr/sdtmig/3-3/datasets/FT/variables/USUBJID", "title": "Unique Subject Identifier", "type": "SDTM Dataset Variable"}}, "core": "Req", "description": "Identifier used to uniquely identify a subject across all studies for all applications or submissions involving the product.", "label": "Unique Subject Identifier", "name": "USUBJID", "ordinal": "3", "role": "Identifier", "simpleDatatype": "Char"}, {"_links": {"modelClassVariable": {"href": "/mdr/sdtm/1-7/classes/GeneralObservations/variables/--SEQ", "title": "Sequence Number", "type": "Class Variable"}, "parentDataset": {"href": "/mdr/sdtmig/3-3/datasets/FT", "title": "Functional Tests", "type": "SDTM Dataset"}, "parentProduct": {"href": "/mdr/sdtmig/3-3", "title": "Study Data Tabulation Model Implementation Guide: Human Clinical Trials Version 3.3 (Final)", "type": "Implementation Guide"}, "rootItem": {"href": "/mdr/root/sdtmig/datasets/FT/variables/FTSEQ", "title": "Version-agnostic anchor resource for SDTMIG variable FT.FTSEQ", "type": "Root Data Element"}, "self": {"href": "/mdr/sdtmig/3-3/datasets/FT/variables/FTSEQ", "title": "Sequence Number", "type": "SDTM Dataset Variable"}}, "core": "Req", "description": "Sequence number to ensure uniqueness of records within a dataset for a subject. May be any valid number.", "label": "Sequence Number", "name": "FTSEQ", "ordinal": "4", "role": "Identifier", "simpleDatatype": "Num"}, {"_links": {"modelClassVariable": {"href": "/mdr/sdtm/1-7/classes/GeneralObservations/variables/--GRPID", "title": "Group ID", "type": "Class Variable"}, "parentDataset": {"href": "/mdr/sdtmig/3-3/datasets/FT", "title": "Functional Tests", "type": "SDTM Dataset"}, "parentProduct": {"href": "/mdr/sdtmig/3-3", "title": "Study Data Tabulation Model Implementation Guide: Human Clinical Trials Version 3.3 (Final)", "type": "Implementation Guide"}, "rootItem": {"href": "/mdr/root/sdtmig/datasets/FT/variables/FTGRPID", "title": "Version-agnostic anchor resource for SDTMIG variable FT.FTGRPID", "type": "Root Data Element"}, "self": {"href": "/mdr/sdtmig/3-3/datasets/FT/variables/FTGRPID", "title": "Group ID", "type": "SDTM Dataset Variable"}}, "core": "Perm", "description": "Optional group identifier, used to link together a block of related records within a subject in a domain.", "label": "Group ID", "name": "FTGRPID", "ordinal": "5", "role": "Identifier", "simpleDatatype": "Char"}, {"_links": {"modelClassVariable": {"href": "/mdr/sdtm/1-7/classes/GeneralObservations/variables/--REFID", "title": "Reference ID", "type": "Class Variable"}, "parentDataset": {"href": "/mdr/sdtmig/3-3/datasets/FT", "title": "Functional Tests", "type": "SDTM Dataset"}, "parentProduct": {"href": "/mdr/sdtmig/3-3", "title": "Study Data Tabulation Model Implementation Guide: Human Clinical Trials Version 3.3 (Final)", "type": "Implementation Guide"}, "rootItem": {"href": "/mdr/root/sdtmig/datasets/FT/variables/FTREFID", "title": "Version-agnostic anchor resource for SDTMIG variable FT.FTREFID", "type": "Root Data Element"}, "self": {"href": "/mdr/sdtmig/3-3/datasets/FT/variables/FTREFID", "title": "Reference ID", "type": "SDTM Dataset Variable"}}, "core": "Perm", "description": "Optional internal or external identifier.", "label": "Reference ID", "name": "FTREFID", "ordinal": "6", "role": "Identifier", "simpleDatatype": "Char"}, {"_links": {"modelClassVariable": {"href": "/mdr/sdtm/1-7/classes/GeneralObservations/variables/--SPID", "title": "Sponsor-Defined Identifier", "type": "Class Variable"}, "parentDataset": {"href": "/mdr/sdtmig/3-3/datasets/FT", "title": "Functional Tests", "type": "SDTM Dataset"}, "parentProduct": {"href": "/mdr/sdtmig/3-3", "title": "Study Data Tabulation Model Implementation Guide: Human Clinical Trials Version 3.3 (Final)", "type": "Implementation Guide"}, "rootItem": {"href": "/mdr/root/sdtmig/datasets/FT/variables/FTSPID", "title": "Version-agnostic anchor resource for SDTMIG variable FT.FTSPID", "type": "Root Data Element"}, "self": {"href": "/mdr/sdtmig/3-3/datasets/FT/variables/FTSPID", "title": "Sponsor-Defined Identifier", "type": "SDTM Dataset Variable"}}, "core": "Perm", "description": "Sponsor-defined identifier. Perhaps preprinted on the CRF as an explicit line identifier or defined in the sponsor's operational database. Example: Line number from the test page.", "label": "Sponsor-Defined Identifier", "name": "FTSPID", "ordinal": "7", "role": "Identifier", "simpleDatatype": "Char"}, {"_links": {"modelClassVariable": {"href": "/mdr/sdtm/1-7/classes/Findings/variables/--TESTCD", "title": "Short Name of Measurement, Test, or Exam", "type": "Class Variable"}, "parentDataset": {"href": "/mdr/sdtmig/3-3/datasets/FT", "title": "Functional Tests", "type": "SDTM Dataset"}, "parentProduct": {"href": "/mdr/sdtmig/3-3", "title": "Study Data Tabulation Model Implementation Guide: Human Clinical Trials Version 3.3 (Final)", "type": "Implementation Guide"}, "rootItem": {"href": "/mdr/root/sdtmig/datasets/FT/variables/FTTESTCD", "title": "Version-agnostic anchor resource for SDTMIG variable FT.FTTESTCD", "type": "Root Data Element"}, "self": {"href": "/mdr/sdtmig/3-3/datasets/FT/variables/FTTESTCD", "title": "Short Name of Test", "type": "SDTM Dataset Variable"}}, "core": "Req", "description": "Short character value for FTTEST, which can be used as a column name when converting a dataset from a vertical format to a horizontal format. The value cannot be longer than 8 characters, nor can it start with a number (e.g., \"1TEST\" is not valid). FTTESTCD cannot contain characters other than letters, numbers, or underscores.\nControlled terminology for FTTESTCD is published in separate codelists for each questionnaire. See https://www.cdisc.org/standards/semantics/terminology for values for FTTESTCD. Examples: \"W250101\", \"W25F0102\".", "label": "Short Name of Test", "name": "FTTESTCD", "ordinal": "8", "role": "Topic", "simpleDatatype": "Char"}, {"_links": {"modelClassVariable": {"href": "/mdr/sdtm/1-7/classes/Findings/variables/--TEST", "title": "Name of Measurement, Test, or Exam", "type": "Class Variable"}, "parentDataset": {"href": "/mdr/sdtmig/3-3/datasets/FT", "title": "Functional Tests", "type": "SDTM Dataset"}, "parentProduct": {"href": "/mdr/sdtmig/3-3", "title": "Study Data Tabulation Model Implementation Guide: Human Clinical Trials Version 3.3 (Final)", "type": "Implementation Guide"}, "rootItem": {"href": "/mdr/root/sdtmig/datasets/FT/variables/FTTEST", "title": "Version-agnostic anchor resource for SDTMIG variable FT.FTTEST", "type": "Root Data Element"}, "self": {"href": "/mdr/sdtmig/3-3/datasets/FT/variables/FTTEST", "title": "Name of Test", "type": "SDTM Dataset Variable"}}, "core": "Req", "description": "Verbatim name of the question used to obtain the finding. The value in FTTEST cannot be longer than 40 characters.\nControlled terminology for FTTEST is published in separate codelists for each questionnaire. See https://www.cdisc.org/standards/semantics/terminology for values for FTTEST. Examples: \"W2501-25 Foot Walk Time\", \"W25F-More Than Two Attempts\".", "label": "Name of Test", "name": "FTTEST", "ordinal": "9", "role": "Synonym Qualifier", "simpleDatatype": "Char"}, {"_links": {"codelist": [{"href": "/mdr/root/ct/sdtmct/codelists/C115304", "title": "Version-agnostic anchor resource for codelist C115304", "type": "Root Value Domain"}], "modelClassVariable": {"href": "/mdr/sdtm/1-7/classes/Findings/variables/--CAT", "title": "Category", "type": "Class Variable"}, "parentDataset": {"href": "/mdr/sdtmig/3-3/datasets/FT", "title": "Functional Tests", "type": "SDTM Dataset"}, "parentProduct": {"href": "/mdr/sdtmig/3-3", "title": "Study Data Tabulation Model Implementation Guide: Human Clinical Trials Version 3.3 (Final)", "type": "Implementation Guide"}, "rootItem": {"href": "/mdr/root/sdtmig/datasets/FT/variables/FTCAT", "title": "Version-agnostic anchor resource for SDTMIG variable FT.FTCAT", "type": "Root Data Element"}, "self": {"href": "/mdr/sdtmig/3-3/datasets/FT/variables/FTCAT", "title": "Category", "type": "SDTM Dataset Variable"}}, "core": "Req", "description": "Used to specify the functional test in which the functional test question identified by FTTEST and FTTESTCD was included.", "label": "Category", "name": "FTCAT", "ordinal": "10", "role": "Grouping Qualifier", "simpleDatatype": "Char"}, {"_links": {"modelClassVariable": {"href": "/mdr/sdtm/1-7/classes/Findings/variables/--SCAT", "title": "Subcategory", "type": "Class Variable"}, "parentDataset": {"href": "/mdr/sdtmig/3-3/datasets/FT", "title": "Functional Tests", "type": "SDTM Dataset"}, "parentProduct": {"href": "/mdr/sdtmig/3-3", "title": "Study Data Tabulation Model Implementation Guide: Human Clinical Trials Version 3.3 (Final)", "type": "Implementation Guide"}, "rootItem": {"href": "/mdr/root/sdtmig/datasets/FT/variables/FTSCAT", "title": "Version-agnostic anchor resource for SDTMIG variable FT.FTSCAT", "type": "Root Data Element"}, "self": {"href": "/mdr/sdtmig/3-3/datasets/FT/variables/FTSCAT", "title": "Subcategory", "type": "SDTM Dataset Variable"}}, "core": "Perm", "description": "Used to define a further categorization of FTCAT values.", "label": "Subcategory", "name": "FTSCAT", "ordinal": "11", "role": "Grouping Qualifier", "simpleDatatype": "Char"}, {"_links": {"codelist": [{"href": "/mdr/root/ct/sdtmct/codelists/C71148", "title": "Version-agnostic anchor resource for codelist C71148", "type": "Root Value Domain"}], "modelClassVariable": {"href": "/mdr/sdtm/1-7/classes/Findings/variables/--POS", "title": "Position of Subject During Observation", "type": "Class Variable"}, "parentDataset": {"href": "/mdr/sdtmig/3-3/datasets/FT", "title": "Functional Tests", "type": "SDTM Dataset"}, "parentProduct": {"href": "/mdr/sdtmig/3-3", "title": "Study Data Tabulation Model Implementation Guide: Human Clinical Trials Version 3.3 (Final)", "type": "Implementation Guide"}, "rootItem": {"href": "/mdr/root/sdtmig/datasets/FT/variables/FTPOS", "title": "Version-agnostic anchor resource for SDTMIG variable FT.FTPOS", "type": "Root Data Element"}, "self": {"href": "/mdr/sdtmig/3-3/datasets/FT/variables/FTPOS", "title": "Position of Subject During Observation", "type": "SDTM Dataset Variable"}}, "core": "Perm", "description": "Position of the subject during the test. Examples: \"SUPINE\", \"STANDING\", \"SITTING\".", "label": "Position of Subject During Observation", "name": "FTPOS", "ordinal": "12", "role": "Record Qualifier", "simpleDatatype": "Char"}, {"_links": {"modelClassVariable": {"href": "/mdr/sdtm/1-7/classes/Findings/variables/--ORRES", "title": "Result or Finding in Original Units", "type": "Class Variable"}, "parentDataset": {"href": "/mdr/sdtmig/3-3/datasets/FT", "title": "Functional Tests", "type": "SDTM Dataset"}, "parentProduct": {"href": "/mdr/sdtmig/3-3", "title": "Study Data Tabulation Model Implementation Guide: Human Clinical Trials Version 3.3 (Final)", "type": "Implementation Guide"}, "rootItem": {"href": "/mdr/root/sdtmig/datasets/FT/variables/FTORRES", "title": "Version-agnostic anchor resource for SDTMIG variable FT.FTORRES", "type": "Root Data Element"}, "self": {"href": "/mdr/sdtmig/3-3/datasets/FT/variables/FTORRES", "title": "Result or Finding in Original Units", "type": "SDTM Dataset Variable"}}, "core": "Exp", "description": "Result of the measurement or finding as originally received or collected.", "label": "Result or Finding in Original Units", "name": "FTORRES", "ordinal": "13", "role": "Result Qualifier", "simpleDatatype": "Char"}, {"_links": {"codelist": [{"href": "/mdr/root/ct/sdtmct/codelists/C71620", "title": "Version-agnostic anchor resource for codelist C71620", "type": "Root Value Domain"}], "modelClassVariable": {"href": "/mdr/sdtm/1-7/classes/Findings/variables/--ORRESU", "title": "Original Units", "type": "Class Variable"}, "parentDataset": {"href": "/mdr/sdtmig/3-3/datasets/FT", "title": "Functional Tests", "type": "SDTM Dataset"}, "parentProduct": {"href": "/mdr/sdtmig/3-3", "title": "Study Data Tabulation Model Implementation Guide: Human Clinical Trials Version 3.3 (Final)", "type": "Implementation Guide"}, "rootItem": {"href": "/mdr/root/sdtmig/datasets/FT/variables/FTORRESU", "title": "Version-agnostic anchor resource for SDTMIG variable FT.FTORRESU", "type": "Root Data Element"}, "self": {"href": "/mdr/sdtmig/3-3/datasets/FT/variables/FTORRESU", "title": "Original Units", "type": "SDTM Dataset Variable"}}, "core": "Perm", "description": "Original units in which the data were collected. Unit for FTORRES.", "label": "Original Units", "name": "FTORRESU", "ordinal": "14", "role": "Variable Qualifier", "simpleDatatype": "Char"}, {"_links": {"modelClassVariable": {"href": "/mdr/sdtm/1-7/classes/Findings/variables/--STRESC", "title": "Result or Finding in Standard Format", "type": "Class Variable"}, "parentDataset": {"href": "/mdr/sdtmig/3-3/datasets/FT", "title": "Functional Tests", "type": "SDTM Dataset"}, "parentProduct": {"href": "/mdr/sdtmig/3-3", "title": "Study Data Tabulation Model Implementation Guide: Human Clinical Trials Version 3.3 (Final)", "type": "Implementation Guide"}, "rootItem": {"href": "/mdr/root/sdtmig/datasets/FT/variables/FTSTRESC", "title": "Version-agnostic anchor resource for SDTMIG variable FT.FTSTRESC", "type": "Root Data Element"}, "self": {"href": "/mdr/sdtmig/3-3/datasets/FT/variables/FTSTRESC", "title": "Result or Finding in Standard Format", "type": "SDTM Dataset Variable"}}, "core": "Exp", "description": "Contains the result value for all findings, copied or derived from FTORRES in a standard format or in standard units. FTSTRESC should store all results or findings in character format; if results are numeric, they should also be stored in numeric format in FTSTRESN.", "label": "Result or Finding in Standard Format", "name": "FTSTRESC", "ordinal": "15", "role": "Result Qualifier", "simpleDatatype": "Char"}, {"_links": {"modelClassVariable": {"href": "/mdr/sdtm/1-7/classes/Findings/variables/--STRESN", "title": "Numeric Result/Finding in Standard Units", "type": "Class Variable"}, "parentDataset": {"href": "/mdr/sdtmig/3-3/datasets/FT", "title": "Functional Tests", "type": "SDTM Dataset"}, "parentProduct": {"href": "/mdr/sdtmig/3-3", "title": "Study Data Tabulation Model Implementation Guide: Human Clinical Trials Version 3.3 (Final)", "type": "Implementation Guide"}, "rootItem": {"href": "/mdr/root/sdtmig/datasets/FT/variables/FTSTRESN", "title": "Version-agnostic anchor resource for SDTMIG variable FT.FTSTRESN", "type": "Root Data Element"}, "self": {"href": "/mdr/sdtmig/3-3/datasets/FT/variables/FTSTRESN", "title": "Numeric Result/Finding in Standard Units", "type": "SDTM Dataset Variable"}}, "core": "Perm", "description": "Used for continuous or numeric results or findings in standard format; copied in numeric format from FTSTRESC. FTSTRESN should store all numeric test results or findings.", "label": "Numeric Result/Finding in Standard Units", "name": "FTSTRESN", "ordinal": "16", "role": "Result Qualifier", "simpleDatatype": "Num"}, {"_links": {"codelist": [{"href": "/mdr/root/ct/sdtmct/codelists/C71620", "title": "Version-agnostic anchor resource for codelist C71620", "type": "Root Value Domain"}], "modelClassVariable": {"href": "/mdr/sdtm/1-7/classes/Findings/variables/--STRESU", "title": "Standard Units", "type": "Class Variable"}, "parentDataset": {"href": "/mdr/sdtmig/3-3/datasets/FT", "title": "Functional Tests", "type": "SDTM Dataset"}, "parentProduct": {"href": "/mdr/sdtmig/3-3", "title": "Study Data Tabulation Model Implementation Guide: Human Clinical Trials Version 3.3 (Final)", "type": "Implementation Guide"}, "rootItem": {"href": "/mdr/root/sdtmig/datasets/FT/variables/FTSTRESU", "title": "Version-agnostic anchor resource for SDTMIG variable FT.FTSTRESU", "type": "Root Data Element"}, "self": {"href": "/mdr/sdtmig/3-3/datasets/FT/variables/FTSTRESU", "title": "Standard Units", "type": "SDTM Dataset Variable"}}, "core": "Perm", "description": "Standardized units used for FTSTRESC and FTSTRESN.", "label": "Standard Units", "name": "FTSTRESU", "ordinal": "17", "role": "Variable Qualifier", "simpleDatatype": "Char"}, {"_links": {"codelist": [{"href": "/mdr/root/ct/sdtmct/codelists/C66789", "title": "Version-agnostic anchor resource for codelist C66789", "type": "Root Value Domain"}], "modelClassVariable": {"href": "/mdr/sdtm/1-7/classes/Findings/variables/--STAT", "title": "Completion Status", "type": "Class Variable"}, "parentDataset": {"href": "/mdr/sdtmig/3-3/datasets/FT", "title": "Functional Tests", "type": "SDTM Dataset"}, "parentProduct": {"href": "/mdr/sdtmig/3-3", "title": "Study Data Tabulation Model Implementation Guide: Human Clinical Trials Version 3.3 (Final)", "type": "Implementation Guide"}, "rootItem": {"href": "/mdr/root/sdtmig/datasets/FT/variables/FTSTAT", "title": "Version-agnostic anchor resource for SDTMIG variable FT.FTSTAT", "type": "Root Data Element"}, "self": {"href": "/mdr/sdtmig/3-3/datasets/FT/variables/FTSTAT", "title": "Completion Status", "type": "SDTM Dataset Variable"}}, "core": "Perm", "description": "Used to indicate that a test was not done, or a test was attempted but did not generate a result. Should be null or have a value of \"NOT DONE\".", "label": "Completion Status", "name": "FTSTAT", "ordinal": "18", "role": "Record Qualifier", "simpleDatatype": "Char"}, {"_links": {"modelClassVariable": {"href": "/mdr/sdtm/1-7/classes/Findings/variables/--REASND", "title": "Reason Not Done", "type": "Class Variable"}, "parentDataset": {"href": "/mdr/sdtmig/3-3/datasets/FT", "title": "Functional Tests", "type": "SDTM Dataset"}, "parentProduct": {"href": "/mdr/sdtmig/3-3", "title": "Study Data Tabulation Model Implementation Guide: Human Clinical Trials Version 3.3 (Final)", "type": "Implementation Guide"}, "rootItem": {"href": "/mdr/root/sdtmig/datasets/FT/variables/FTREASND", "title": "Version-agnostic anchor resource for SDTMIG variable FT.FTREASND", "type": "Root Data Element"}, "self": {"href": "/mdr/sdtmig/3-3/datasets/FT/variables/FTREASND", "title": "Reason Not Done", "type": "SDTM Dataset Variable"}}, "core": "Perm", "description": "Describes why a test was not done, or a test was attempted but did not generate a result. Used in conjunction with FTSTAT when value is \"NOT DONE\".", "label": "Reason Not Done", "name": "FTREASND", "ordinal": "19", "role": "Record Qualifier", "simpleDatatype": "Char"}, {"_links": {"modelClassVariable": {"href": "/mdr/sdtm/1-7/classes/Findings/variables/--XFN", "title": "External File Path", "type": "Class Variable"}, "parentDataset": {"href": "/mdr/sdtmig/3-3/datasets/FT", "title": "Functional Tests", "type": "SDTM Dataset"}, "parentProduct": {"href": "/mdr/sdtmig/3-3", "title": "Study Data Tabulation Model Implementation Guide: Human Clinical Trials Version 3.3 (Final)", "type": "Implementation Guide"}, "rootItem": {"href": "/mdr/root/sdtmig/datasets/FT/variables/FTXFN", "title": "Version-agnostic anchor resource for SDTMIG variable FT.FTXFN", "type": "Root Data Element"}, "self": {"href": "/mdr/sdtmig/3-3/datasets/FT/variables/FTXFN", "title": "External File Path", "type": "SDTM Dataset Variable"}}, "core": "Perm", "description": "File path to an external file.", "label": "External File Path", "name": "FTXFN", "ordinal": "20", "role": "Record Qualifier", "simpleDatatype": "Char"}, {"_links": {"modelClassVariable": {"href": "/mdr/sdtm/1-7/classes/Findings/variables/--NAM", "title": "Laboratory/Vendor Name", "type": "Class Variable"}, "parentDataset": {"href": "/mdr/sdtmig/3-3/datasets/FT", "title": "Functional Tests", "type": "SDTM Dataset"}, "parentProduct": {"href": "/mdr/sdtmig/3-3", "title": "Study Data Tabulation Model Implementation Guide: Human Clinical Trials Version 3.3 (Final)", "type": "Implementation Guide"}, "rootItem": {"href": "/mdr/root/sdtmig/datasets/FT/variables/FTNAM", "title": "Version-agnostic anchor resource for SDTMIG variable FT.FTNAM", "type": "Root Data Element"}, "self": {"href": "/mdr/sdtmig/3-3/datasets/FT/variables/FTNAM", "title": "Vendor Name", "type": "SDTM Dataset Variable"}}, "core": "Perm", "description": "Name or identifier of the vendor or laboratory that provided the test results.", "label": "Vendor Name", "name": "FTNAM", "ordinal": "21", "role": "Record Qualifier", "simpleDatatype": "Char"}, {"_links": {"codelist": [{"href": "/mdr/root/ct/sdtmct/codelists/C85492", "title": "Version-agnostic anchor resource for codelist C85492", "type": "Root Value Domain"}], "modelClassVariable": {"href": "/mdr/sdtm/1-7/classes/Findings/variables/--METHOD", "title": "Method of Test or Examination", "type": "Class Variable"}, "parentDataset": {"href": "/mdr/sdtmig/3-3/datasets/FT", "title": "Functional Tests", "type": "SDTM Dataset"}, "parentProduct": {"href": "/mdr/sdtmig/3-3", "title": "Study Data Tabulation Model Implementation Guide: Human Clinical Trials Version 3.3 (Final)", "type": "Implementation Guide"}, "rootItem": {"href": "/mdr/root/sdtmig/datasets/FT/variables/FTMETHOD", "title": "Version-agnostic anchor resource for SDTMIG variable FT.FTMETHOD", "type": "Root Data Element"}, "self": {"href": "/mdr/sdtmig/3-3/datasets/FT/variables/FTMETHOD", "title": "Method of Test", "type": "SDTM Dataset Variable"}}, "core": "Perm", "description": "Method of the test.", "label": "Method of Test", "name": "FTMETHOD", "ordinal": "22", "role": "Record Qualifier", "simpleDatatype": "Char"}, {"_links": {"codelist": [{"href": "/mdr/root/ct/sdtmct/codelists/C66742", "title": "Version-agnostic anchor resource for codelist C66742", "type": "Root Value Domain"}], "modelClassVariable": {"href": "/mdr/sdtm/1-7/classes/Findings/variables/--LOBXFL", "title": "Last Observation Before Exposure Flag", "type": "Class Variable"}, "parentDataset": {"href": "/mdr/sdtmig/3-3/datasets/FT", "title": "Functional Tests", "type": "SDTM Dataset"}, "parentProduct": {"href": "/mdr/sdtmig/3-3", "title": "Study Data Tabulation Model Implementation Guide: Human Clinical Trials Version 3.3 (Final)", "type": "Implementation Guide"}, "rootItem": {"href": "/mdr/root/sdtmig/datasets/FT/variables/FTLOBXFL", "title": "Version-agnostic anchor resource for SDTMIG variable FT.FTLOBXFL", "type": "Root Data Element"}, "self": {"href": "/mdr/sdtmig/3-3/datasets/FT/variables/FTLOBXFL", "title": "Last Observation Before Exposure Flag", "type": "SDTM Dataset Variable"}}, "core": "Exp", "description": "Operationally-derived indicator used to identify the last non-missing value prior to RFXSTDTC. The value should be \"Y\" or null.", "label": "Last Observation Before Exposure Flag", "name": "FTLOBXFL", "ordinal": "23", "role": "Record Qualifier", "simpleDatatype": "Char"}, {"_links": {"codelist": [{"href": "/mdr/root/ct/sdtmct/codelists/C66742", "title": "Version-agnostic anchor resource for codelist C66742", "type": "Root Value Domain"}], "modelClassVariable": {"href": "/mdr/sdtm/1-7/classes/Findings/variables/--BLFL", "title": "Baseline Flag", "type": "Class Variable"}, "parentDataset": {"href": "/mdr/sdtmig/3-3/datasets/FT", "title": "Functional Tests", "type": "SDTM Dataset"}, "parentProduct": {"href": "/mdr/sdtmig/3-3", "title": "Study Data Tabulation Model Implementation Guide: Human Clinical Trials Version 3.3 (Final)", "type": "Implementation Guide"}, "rootItem": {"href": "/mdr/root/sdtmig/datasets/FT/variables/FTBLFL", "title": "Version-agnostic anchor resource for SDTMIG variable FT.FTBLFL", "type": "Root Data Element"}, "self": {"href": "/mdr/sdtmig/3-3/datasets/FT/variables/FTBLFL", "title": "Baseline Flag", "type": "SDTM Dataset Variable"}}, "core": "Perm", "description": "A baseline defined by the sponsor (could be derived in the same manner as FTLOBXFL or ABLFL, but is not required to be). The value should be \"Y\" or null. Note that FTBLFL is retained for backward compatibility. The authoritative baseline flag for statistical analysis is in an ADaM dataset.", "label": "Baseline Flag", "name": "FTBLFL", "ordinal": "24", "role": "Record Qualifier", "simpleDatatype": "Char"}, {"_links": {"codelist": [{"href": "/mdr/root/ct/sdtmct/codelists/C66742", "title": "Version-agnostic anchor resource for codelist C66742", "type": "Root Value Domain"}], "modelClassVariable": {"href": "/mdr/sdtm/1-7/classes/Findings/variables/--DRVFL", "title": "Derived Flag", "type": "Class Variable"}, "parentDataset": {"href": "/mdr/sdtmig/3-3/datasets/FT", "title": "Functional Tests", "type": "SDTM Dataset"}, "parentProduct": {"href": "/mdr/sdtmig/3-3", "title": "Study Data Tabulation Model Implementation Guide: Human Clinical Trials Version 3.3 (Final)", "type": "Implementation Guide"}, "rootItem": {"href": "/mdr/root/sdtmig/datasets/FT/variables/FTDRVFL", "title": "Version-agnostic anchor resource for SDTMIG variable FT.FTDRVFL", "type": "Root Data Element"}, "self": {"href": "/mdr/sdtmig/3-3/datasets/FT/variables/FTDRVFL", "title": "Derived Flag", "type": "SDTM Dataset Variable"}}, "core": "Perm", "description": "Used to indicate a derived record (e.g., a record that represents the average of other records such as a computed baseline). Should be \"Y\" or null.", "label": "Derived Flag", "name": "FTDRVFL", "ordinal": "25", "role": "Record Qualifier", "simpleDatatype": "Char"}, {"_links": {"codelist": [{"href": "/mdr/root/ct/sdtmct/codelists/C78735", "title": "Version-agnostic anchor resource for codelist C78735", "type": "Root Value Domain"}], "modelClassVariable": {"href": "/mdr/sdtm/1-7/classes/Findings/variables/--EVAL", "title": "Evaluator", "type": "Class Variable"}, "parentDataset": {"href": "/mdr/sdtmig/3-3/datasets/FT", "title": "Functional Tests", "type": "SDTM Dataset"}, "parentProduct": {"href": "/mdr/sdtmig/3-3", "title": "Study Data Tabulation Model Implementation Guide: Human Clinical Trials Version 3.3 (Final)", "type": "Implementation Guide"}, "rootItem": {"href": "/mdr/root/sdtmig/datasets/FT/variables/FTEVAL", "title": "Version-agnostic anchor resource for SDTMIG variable FT.FTEVAL", "type": "Root Data Element"}, "self": {"href": "/mdr/sdtmig/3-3/datasets/FT/variables/FTEVAL", "title": "Evaluator", "type": "SDTM Dataset Variable"}}, "core": "Perm", "description": "Role of the person who provided the evaluation. Used only for results that are subjective (e.g., assigned by a person or a group). Examples: \"ADJUDICATION COMMITTEE\", \"INDEPENDENT ASSESSOR\", \"RADIOLOGIST\".", "label": "Evaluator", "name": "FTEVAL", "ordinal": "26", "role": "Record Qualifier", "simpleDatatype": "Char"}, {"_links": {"modelClassVariable": {"href": "/mdr/sdtm/1-7/classes/Findings/variables/--REPNUM", "title": "Repetition Number", "type": "Class Variable"}, "parentDataset": {"href": "/mdr/sdtmig/3-3/datasets/FT", "title": "Functional Tests", "type": "SDTM Dataset"}, "parentProduct": {"href": "/mdr/sdtmig/3-3", "title": "Study Data Tabulation Model Implementation Guide: Human Clinical Trials Version 3.3 (Final)", "type": "Implementation Guide"}, "rootItem": {"href": "/mdr/root/sdtmig/datasets/FT/variables/FTREPNUM", "title": "Version-agnostic anchor resource for SDTMIG variable FT.FTREPNUM", "type": "Root Data Element"}, "self": {"href": "/mdr/sdtmig/3-3/datasets/FT/variables/FTREPNUM", "title": "Repetition Number", "type": "SDTM Dataset Variable"}}, "core": "Perm", "description": "The incidence number of a test that is repeated within a given timeframe for the same test. The level of granularity can vary, e.g., within a time point or within a visit. For example, multiple measurements of blood pressure or multiple analyses of a sample.", "label": "Repetition Number", "name": "FTREPNUM", "ordinal": "27", "role": "Record Qualifier", "simpleDatatype": "Num"}, {"_links": {"modelClassVariable": {"href": "/mdr/sdtm/1-7/classes/GeneralObservations/variables/VISITNUM", "title": "Visit Number", "type": "Class Variable"}, "parentDataset": {"href": "/mdr/sdtmig/3-3/datasets/FT", "title": "Functional Tests", "type": "SDTM Dataset"}, "parentProduct": {"href": "/mdr/sdtmig/3-3", "title": "Study Data Tabulation Model Implementation Guide: Human Clinical Trials Version 3.3 (Final)", "type": "Implementation Guide"}, "rootItem": {"href": "/mdr/root/sdtmig/datasets/FT/variables/VISITNUM", "title": "Version-agnostic anchor resource for SDTMIG variable FT.VISITNUM", "type": "Root Data Element"}, "self": {"href": "/mdr/sdtmig/3-3/datasets/FT/variables/VISITNUM", "title": "Visit Number", "type": "SDTM Dataset Variable"}}, "core": "Exp", "description": "Clinical encounter number. Numeric version of VISIT, used for sorting.", "label": "Visit Number", "name": "VISITNUM", "ordinal": "28", "role": "Timing", "simpleDatatype": "Num"}, {"_links": {"modelClassVariable": {"href": "/mdr/sdtm/1-7/classes/GeneralObservations/variables/VISIT", "title": "Visit Name", "type": "Class Variable"}, "parentDataset": {"href": "/mdr/sdtmig/3-3/datasets/FT", "title": "Functional Tests", "type": "SDTM Dataset"}, "parentProduct": {"href": "/mdr/sdtmig/3-3", "title": "Study Data Tabulation Model Implementation Guide: Human Clinical Trials Version 3.3 (Final)", "type": "Implementation Guide"}, "rootItem": {"href": "/mdr/root/sdtmig/datasets/FT/variables/VISIT", "title": "Version-agnostic anchor resource for SDTMIG variable FT.VISIT", "type": "Root Data Element"}, "self": {"href": "/mdr/sdtmig/3-3/datasets/FT/variables/VISIT", "title": "Visit Name", "type": "SDTM Dataset Variable"}}, "core": "Perm", "description": "Protocol-defined description of a clinical encounter.", "label": "Visit Name", "name": "VISIT", "ordinal": "29", "role": "Timing", "simpleDatatype": "Char"}, {"_links": {"modelClassVariable": {"href": "/mdr/sdtm/1-7/classes/GeneralObservations/variables/VISITDY", "title": "Planned Study Day of Visit", "type": "Class Variable"}, "parentDataset": {"href": "/mdr/sdtmig/3-3/datasets/FT", "title": "Functional Tests", "type": "SDTM Dataset"}, "parentProduct": {"href": "/mdr/sdtmig/3-3", "title": "Study Data Tabulation Model Implementation Guide: Human Clinical Trials Version 3.3 (Final)", "type": "Implementation Guide"}, "rootItem": {"href": "/mdr/root/sdtmig/datasets/FT/variables/VISITDY", "title": "Version-agnostic anchor resource for SDTMIG variable FT.VISITDY", "type": "Root Data Element"}, "self": {"href": "/mdr/sdtmig/3-3/datasets/FT/variables/VISITDY", "title": "Planned Study Day of Visit", "type": "SDTM Dataset Variable"}}, "core": "Perm", "description": "Planned study day of VISIT based upon RFSTDTC in Demographics. Should be an integer.", "label": "Planned Study Day of Visit", "name": "VISITDY", "ordinal": "30", "role": "Timing", "simpleDatatype": "Num"}, {"_links": {"modelClassVariable": {"href": "/mdr/sdtm/1-7/classes/GeneralObservations/variables/TAETORD", "title": "Planned Order of Element Within Arm", "type": "Class Variable"}, "parentDataset": {"href": "/mdr/sdtmig/3-3/datasets/FT", "title": "Functional Tests", "type": "SDTM Dataset"}, "parentProduct": {"href": "/mdr/sdtmig/3-3", "title": "Study Data Tabulation Model Implementation Guide: Human Clinical Trials Version 3.3 (Final)", "type": "Implementation Guide"}, "rootItem": {"href": "/mdr/root/sdtmig/datasets/FT/variables/TAETORD", "title": "Version-agnostic anchor resource for SDTMIG variable FT.TAETORD", "type": "Root Data Element"}, "self": {"href": "/mdr/sdtmig/3-3/datasets/FT/variables/TAETORD", "title": "Planned Order of Element within Arm", "type": "SDTM Dataset Variable"}}, "core": "Perm", "description": "Number that gives the planned order of the Element within the Arm for the element in which the assessment was made.", "label": "Planned Order of Element within Arm", "name": "TAETORD", "ordinal": "31", "role": "Timing", "simpleDatatype": "Num"}, {"_links": {"codelist": [{"href": "/mdr/root/ct/sdtmct/codelists/C99079", "title": "Version-agnostic anchor resource for codelist C99079", "type": "Root Value Domain"}], "modelClassVariable": {"href": "/mdr/sdtm/1-7/classes/GeneralObservations/variables/EPOCH", "title": "Epoch", "type": "Class Variable"}, "parentDataset": {"href": "/mdr/sdtmig/3-3/datasets/FT", "title": "Functional Tests", "type": "SDTM Dataset"}, "parentProduct": {"href": "/mdr/sdtmig/3-3", "title": "Study Data Tabulation Model Implementation Guide: Human Clinical Trials Version 3.3 (Final)", "type": "Implementation Guide"}, "rootItem": {"href": "/mdr/root/sdtmig/datasets/FT/variables/EPOCH", "title": "Version-agnostic anchor resource for SDTMIG variable FT.EPOCH", "type": "Root Data Element"}, "self": {"href": "/mdr/sdtmig/3-3/datasets/FT/variables/EPOCH", "title": "Epoch", "type": "SDTM Dataset Variable"}}, "core": "Perm", "description": "Epoch associated with the observation date/time of the functional tests finding.", "label": "Epoch", "name": "EPOCH", "ordinal": "32", "role": "Timing", "simpleDatatype": "Char"}, {"_links": {"modelClassVariable": {"href": "/mdr/sdtm/1-7/classes/GeneralObservations/variables/--DTC", "title": "Date/Time of Collection", "type": "Class Variable"}, "parentDataset": {"href": "/mdr/sdtmig/3-3/datasets/FT", "title": "Functional Tests", "type": "SDTM Dataset"}, "parentProduct": {"href": "/mdr/sdtmig/3-3", "title": "Study Data Tabulation Model Implementation Guide: Human Clinical Trials Version 3.3 (Final)", "type": "Implementation Guide"}, "rootItem": {"href": "/mdr/root/sdtmig/datasets/FT/variables/FTDTC", "title": "Version-agnostic anchor resource for SDTMIG variable FT.FTDTC", "type": "Root Data Element"}, "self": {"href": "/mdr/sdtmig/3-3/datasets/FT/variables/FTDTC", "title": "Date/Time of Test", "type": "SDTM Dataset Variable"}}, "core": "Exp", "describedValueDomain": "ISO 8601", "description": "Collection date and time of functional test.", "label": "Date/Time of Test", "name": "FTDTC", "ordinal": "33", "role": "Timing", "simpleDatatype": "Char"}, {"_links": {"modelClassVariable": {"href": "/mdr/sdtm/1-7/classes/GeneralObservations/variables/--DY", "title": "Study Day of Visit/Collection/Exam", "type": "Class Variable"}, "parentDataset": {"href": "/mdr/sdtmig/3-3/datasets/FT", "title": "Functional Tests", "type": "SDTM Dataset"}, "parentProduct": {"href": "/mdr/sdtmig/3-3", "title": "Study Data Tabulation Model Implementation Guide: Human Clinical Trials Version 3.3 (Final)", "type": "Implementation Guide"}, "rootItem": {"href": "/mdr/root/sdtmig/datasets/FT/variables/FTDY", "title": "Version-agnostic anchor resource for SDTMIG variable FT.FTDY", "type": "Root Data Element"}, "self": {"href": "/mdr/sdtmig/3-3/datasets/FT/variables/FTDY", "title": "Study Day of Test", "type": "SDTM Dataset Variable"}}, "core": "Perm", "description": "Actual study day of test expressed in integer days relative to the sponsor-defined RFSTDTC in Demographics.", "label": "Study Day of Test", "name": "FTDY", "ordinal": "34", "role": "Timing", "simpleDatatype": "Num"}, {"_links": {"modelClassVariable": {"href": "/mdr/sdtm/1-7/classes/GeneralObservations/variables/--TPT", "title": "Planned Time Point Name", "type": "Class Variable"}, "parentDataset": {"href": "/mdr/sdtmig/3-3/datasets/FT", "title": "Functional Tests", "type": "SDTM Dataset"}, "parentProduct": {"href": "/mdr/sdtmig/3-3", "title": "Study Data Tabulation Model Implementation Guide: Human Clinical Trials Version 3.3 (Final)", "type": "Implementation Guide"}, "rootItem": {"href": "/mdr/root/sdtmig/datasets/FT/variables/FTTPT", "title": "Version-agnostic anchor resource for SDTMIG variable FT.FTTPT", "type": "Root Data Element"}, "self": {"href": "/mdr/sdtmig/3-3/datasets/FT/variables/FTTPT", "title": "Planned Time Point Name", "type": "SDTM Dataset Variable"}}, "core": "Perm", "description": "Text description of time when a measurement or observation should be taken, as defined in the protocol. This may be represented as an elapsed time relative to a fixed reference point, such as time of last dose. See FTTPTNUM and FTTPTREF.", "label": "Planned Time Point Name", "name": "FTTPT", "ordinal": "35", "role": "Timing", "simpleDatatype": "Char"}, {"_links": {"modelClassVariable": {"href": "/mdr/sdtm/1-7/classes/GeneralObservations/variables/--TPTNUM", "title": "Planned Time Point Number", "type": "Class Variable"}, "parentDataset": {"href": "/mdr/sdtmig/3-3/datasets/FT", "title": "Functional Tests", "type": "SDTM Dataset"}, "parentProduct": {"href": "/mdr/sdtmig/3-3", "title": "Study Data Tabulation Model Implementation Guide: Human Clinical Trials Version 3.3 (Final)", "type": "Implementation Guide"}, "rootItem": {"href": "/mdr/root/sdtmig/datasets/FT/variables/FTTPTNUM", "title": "Version-agnostic anchor resource for SDTMIG variable FT.FTTPTNUM", "type": "Root Data Element"}, "self": {"href": "/mdr/sdtmig/3-3/datasets/FT/variables/FTTPTNUM", "title": "Planned Time Point Number", "type": "SDTM Dataset Variable"}}, "core": "Perm", "description": "Numeric version of planned time point used in sorting.", "label": "Planned Time Point Number", "name": "FTTPTNUM", "ordinal": "36", "role": "Timing", "simpleDatatype": "Num"}, {"_links": {"modelClassVariable": {"href": "/mdr/sdtm/1-7/classes/GeneralObservations/variables/--ELTM", "title": "Planned Elapsed Time from Time Point Ref", "type": "Class Variable"}, "parentDataset": {"href": "/mdr/sdtmig/3-3/datasets/FT", "title": "Functional Tests", "type": "SDTM Dataset"}, "parentProduct": {"href": "/mdr/sdtmig/3-3", "title": "Study Data Tabulation Model Implementation Guide: Human Clinical Trials Version 3.3 (Final)", "type": "Implementation Guide"}, "rootItem": {"href": "/mdr/root/sdtmig/datasets/FT/variables/FTELTM", "title": "Version-agnostic anchor resource for SDTMIG variable FT.FTELTM", "type": "Root Data Element"}, "self": {"href": "/mdr/sdtmig/3-3/datasets/FT/variables/FTELTM", "title": "Planned Elapsed Time from Time Point Ref", "type": "SDTM Dataset Variable"}}, "core": "Perm", "describedValueDomain": "ISO 8601", "description": "Planned elapsed time relative to a planned fixed reference (FTTPTREF). Not a clock time or a date/time variable, but an interval, represented as ISO duration.", "label": "Planned Elapsed Time from Time Point Ref", "name": "FTELTM", "ordinal": "37", "role": "Timing", "simpleDatatype": "Char"}, {"_links": {"modelClassVariable": {"href": "/mdr/sdtm/1-7/classes/GeneralObservations/variables/--TPTREF", "title": "Time Point Reference", "type": "Class Variable"}, "parentDataset": {"href": "/mdr/sdtmig/3-3/datasets/FT", "title": "Functional Tests", "type": "SDTM Dataset"}, "parentProduct": {"href": "/mdr/sdtmig/3-3", "title": "Study Data Tabulation Model Implementation Guide: Human Clinical Trials Version 3.3 (Final)", "type": "Implementation Guide"}, "rootItem": {"href": "/mdr/root/sdtmig/datasets/FT/variables/FTTPTREF", "title": "Version-agnostic anchor resource for SDTMIG variable FT.FTTPTREF", "type": "Root Data Element"}, "self": {"href": "/mdr/sdtmig/3-3/datasets/FT/variables/FTTPTREF", "title": "Time Point Reference", "type": "SDTM Dataset Variable"}}, "core": "Perm", "description": "Description of the fixed reference point referred to by FTELTM, FTTPTNUM, and FTTPT. Examples: \"PREVIOUS DOSE\", \"PREVIOUS MEAL\".", "label": "Time Point Reference", "name": "FTTPTREF", "ordinal": "38", "role": "Timing", "simpleDatatype": "Char"}, {"_links": {"modelClassVariable": {"href": "/mdr/sdtm/1-7/classes/GeneralObservations/variables/--RFTDTC", "title": "Date/Time of Reference Time Point", "type": "Class Variable"}, "parentDataset": {"href": "/mdr/sdtmig/3-3/datasets/FT", "title": "Functional Tests", "type": "SDTM Dataset"}, "parentProduct": {"href": "/mdr/sdtmig/3-3", "title": "Study Data Tabulation Model Implementation Guide: Human Clinical Trials Version 3.3 (Final)", "type": "Implementation Guide"}, "rootItem": {"href": "/mdr/root/sdtmig/datasets/FT/variables/FTRFTDTC", "title": "Version-agnostic anchor resource for SDTMIG variable FT.FTRFTDTC", "type": "Root Data Element"}, "self": {"href": "/mdr/sdtmig/3-3/datasets/FT/variables/FTRFTDTC", "title": "Date/Time of Reference Time Point", "type": "SDTM Dataset Variable"}}, "core": "Perm", "describedValueDomain": "ISO 8601", "description": "Date/time for a fixed reference time point defined by FTTPTREF.", "label": "Date/Time of Reference Time Point", "name": "FTRFTDTC", "ordinal": "39", "role": "Timing", "simpleDatatype": "Char"}], "description": "A findings domain that contains data for named, stand-alone, task-based evaluations designed to provide an assessment of mobility, dexterity, or cognitive ability. (Source: CDISC Controlled Terminology, DOMAIN, C117756, 2018-06-29)", "label": "Functional Tests", "name": "FT", "ordinal": "39"}
