{"_links": {"parentClass": {"href": "/mdr/sdtmig/3-3/classes/Findings", "title": "Findings Observation Class", "type": "Class"}, "parentProduct": {"href": "/mdr/sdtmig/3-3", "title": "Study Data Tabulation Model Implementation Guide: Human Clinical Trials Version 3.3 (Final)", "type": "Implementation Guide"}, "self": {"href": "/mdr/sdtmig/3-3/datasets/OE", "title": "Ophthalmic Examinations", "type": "SDTM Dataset"}}, "datasetStructure": "One record per ophthalmic finding per method per location, per time point per visit per subject", "datasetVariables": [{"_links": {"modelClassVariable": {"href": "/mdr/sdtm/1-7/classes/GeneralObservations/variables/STUDYID", "title": "Study Identifier", "type": "Class Variable"}, "parentDataset": {"href": "/mdr/sdtmig/3-3/datasets/OE", "title": "Ophthalmic Examinations", "type": "SDTM Dataset"}, "parentProduct": {"href": "/mdr/sdtmig/3-3", "title": "Study Data Tabulation Model Implementation Guide: Human Clinical Trials Version 3.3 (Final)", "type": "Implementation Guide"}, "rootItem": {"href": "/mdr/root/sdtmig/datasets/OE/variables/STUDYID", "title": "Version-agnostic anchor resource for SDTMIG variable OE.STUDYID", "type": "Root Data Element"}, "self": {"href": "/mdr/sdtmig/3-3/datasets/OE/variables/STUDYID", "title": "Study Identifier", "type": "SDTM Dataset Variable"}}, "core": "Req", "description": "Unique identifier for a study.", "label": "Study Identifier", "name": "STUDYID", "ordinal": "1", "role": "Identifier", "simpleDatatype": "Char"}, {"_links": {"modelClassVariable": {"href": "/mdr/sdtm/1-7/classes/GeneralObservations/variables/DOMAIN", "title": "Domain Abbreviation", "type": "Class Variable"}, "parentDataset": {"href": "/mdr/sdtmig/3-3/datasets/OE", "title": "Ophthalmic Examinations", "type": "SDTM Dataset"}, "parentProduct": {"href": "/mdr/sdtmig/3-3", "title": "Study Data Tabulation Model Implementation Guide: Human Clinical Trials Version 3.3 (Final)", "type": "Implementation Guide"}, "rootItem": {"href": "/mdr/root/sdtmig/datasets/OE/variables/DOMAIN", "title": "Version-agnostic anchor resource for SDTMIG variable OE.DOMAIN", "type": "Root Data Element"}, "self": {"href": "/mdr/sdtmig/3-3/datasets/OE/variables/DOMAIN", "title": "Domain Abbreviation", "type": "SDTM Dataset Variable"}}, "core": "Req", "description": "Two-character abbreviation for the domain.", "label": "Domain Abbreviation", "name": "DOMAIN", "ordinal": "2", "role": "Identifier", "simpleDatatype": "Char", "valueList": ["OE"]}, {"_links": {"modelClassVariable": {"href": "/mdr/sdtm/1-7/classes/GeneralObservations/variables/USUBJID", "title": "Unique Subject Identifier", "type": "Class Variable"}, "parentDataset": {"href": "/mdr/sdtmig/3-3/datasets/OE", "title": "Ophthalmic Examinations", "type": "SDTM Dataset"}, "parentProduct": {"href": "/mdr/sdtmig/3-3", "title": "Study Data Tabulation Model Implementation Guide: Human Clinical Trials Version 3.3 (Final)", "type": "Implementation Guide"}, "rootItem": {"href": "/mdr/root/sdtmig/datasets/OE/variables/USUBJID", "title": "Version-agnostic anchor resource for SDTMIG variable OE.USUBJID", "type": "Root Data Element"}, "self": {"href": "/mdr/sdtmig/3-3/datasets/OE/variables/USUBJID", "title": "Unique Subject Identifier", "type": "SDTM Dataset Variable"}}, "core": "Req", "description": "Identifier used to uniquely identify a subject across all studies for all applications or submissions involving the product.", "label": "Unique Subject Identifier", "name": "USUBJID", "ordinal": "3", "role": "Identifier", "simpleDatatype": "Char"}, {"_links": {"codelist": [{"href": "/mdr/root/ct/sdtmct/codelists/C119013", "title": "Version-agnostic anchor resource for codelist C119013", "type": "Root Value Domain"}], "modelClassVariable": {"href": "/mdr/sdtm/1-7/classes/GeneralObservations/variables/FOCID", "title": "Focus of Study-Specific Interest", "type": "Class Variable"}, "parentDataset": {"href": "/mdr/sdtmig/3-3/datasets/OE", "title": "Ophthalmic Examinations", "type": "SDTM Dataset"}, "parentProduct": {"href": "/mdr/sdtmig/3-3", "title": "Study Data Tabulation Model Implementation Guide: Human Clinical Trials Version 3.3 (Final)", "type": "Implementation Guide"}, "rootItem": {"href": "/mdr/root/sdtmig/datasets/OE/variables/FOCID", "title": "Version-agnostic anchor resource for SDTMIG variable OE.FOCID", "type": "Root Data Element"}, "self": {"href": "/mdr/sdtmig/3-3/datasets/OE/variables/FOCID", "title": "Focus of Study-Specific Interest", "type": "SDTM Dataset Variable"}}, "core": "Perm", "description": "Identification of a focus of study-specific interest on or within a subject or specimen as called out in the protocol for which a measurement, test, or examination was performed.", "label": "Focus of Study-Specific Interest", "name": "FOCID", "ordinal": "4", "role": "Identifier", "simpleDatatype": "Char"}, {"_links": {"modelClassVariable": {"href": "/mdr/sdtm/1-7/classes/GeneralObservations/variables/--SEQ", "title": "Sequence Number", "type": "Class Variable"}, "parentDataset": {"href": "/mdr/sdtmig/3-3/datasets/OE", "title": "Ophthalmic Examinations", "type": "SDTM Dataset"}, "parentProduct": {"href": "/mdr/sdtmig/3-3", "title": "Study Data Tabulation Model Implementation Guide: Human Clinical Trials Version 3.3 (Final)", "type": "Implementation Guide"}, "rootItem": {"href": "/mdr/root/sdtmig/datasets/OE/variables/OESEQ", "title": "Version-agnostic anchor resource for SDTMIG variable OE.OESEQ", "type": "Root Data Element"}, "self": {"href": "/mdr/sdtmig/3-3/datasets/OE/variables/OESEQ", "title": "Sequence Number", "type": "SDTM Dataset Variable"}}, "core": "Req", "description": "Sequence number given to ensure uniqueness of subject records within a domain. May be any valid number.", "label": "Sequence Number", "name": "OESEQ", "ordinal": "5", "role": "Identifier", "simpleDatatype": "Num"}, {"_links": {"modelClassVariable": {"href": "/mdr/sdtm/1-7/classes/GeneralObservations/variables/--GRPID", "title": "Group ID", "type": "Class Variable"}, "parentDataset": {"href": "/mdr/sdtmig/3-3/datasets/OE", "title": "Ophthalmic Examinations", "type": "SDTM Dataset"}, "parentProduct": {"href": "/mdr/sdtmig/3-3", "title": "Study Data Tabulation Model Implementation Guide: Human Clinical Trials Version 3.3 (Final)", "type": "Implementation Guide"}, "rootItem": {"href": "/mdr/root/sdtmig/datasets/OE/variables/OEGRPID", "title": "Version-agnostic anchor resource for SDTMIG variable OE.OEGRPID", "type": "Root Data Element"}, "self": {"href": "/mdr/sdtmig/3-3/datasets/OE/variables/OEGRPID", "title": "Group ID", "type": "SDTM Dataset Variable"}}, "core": "Perm", "description": "Optional group identifier, used to link together a block of related records within a subject in a domain.", "label": "Group ID", "name": "OEGRPID", "ordinal": "6", "role": "Identifier", "simpleDatatype": "Char"}, {"_links": {"modelClassVariable": {"href": "/mdr/sdtm/1-7/classes/GeneralObservations/variables/--LNKID", "title": "Link ID", "type": "Class Variable"}, "parentDataset": {"href": "/mdr/sdtmig/3-3/datasets/OE", "title": "Ophthalmic Examinations", "type": "SDTM Dataset"}, "parentProduct": {"href": "/mdr/sdtmig/3-3", "title": "Study Data Tabulation Model Implementation Guide: Human Clinical Trials Version 3.3 (Final)", "type": "Implementation Guide"}, "rootItem": {"href": "/mdr/root/sdtmig/datasets/OE/variables/OELNKID", "title": "Version-agnostic anchor resource for SDTMIG variable OE.OELNKID", "type": "Root Data Element"}, "self": {"href": "/mdr/sdtmig/3-3/datasets/OE/variables/OELNKID", "title": "Link ID", "type": "SDTM Dataset Variable"}}, "core": "Perm", "description": "Identifier used to link related records across domains. This may be a one-to-one or a one-to-many relationship.", "label": "Link ID", "name": "OELNKID", "ordinal": "7", "role": "Identifier", "simpleDatatype": "Char"}, {"_links": {"modelClassVariable": {"href": "/mdr/sdtm/1-7/classes/GeneralObservations/variables/--LNKGRP", "title": "Link Group ID", "type": "Class Variable"}, "parentDataset": {"href": "/mdr/sdtmig/3-3/datasets/OE", "title": "Ophthalmic Examinations", "type": "SDTM Dataset"}, "parentProduct": {"href": "/mdr/sdtmig/3-3", "title": "Study Data Tabulation Model Implementation Guide: Human Clinical Trials Version 3.3 (Final)", "type": "Implementation Guide"}, "rootItem": {"href": "/mdr/root/sdtmig/datasets/OE/variables/OELNKGRP", "title": "Version-agnostic anchor resource for SDTMIG variable OE.OELNKGRP", "type": "Root Data Element"}, "self": {"href": "/mdr/sdtmig/3-3/datasets/OE/variables/OELNKGRP", "title": "Link Group", "type": "SDTM Dataset Variable"}}, "core": "Perm", "description": "Identifier used to link related records across domains. This will usually be a many-to-one relationship.", "label": "Link Group", "name": "OELNKGRP", "ordinal": "8", "role": "Identifier", "simpleDatatype": "Char"}, {"_links": {"codelist": [{"href": "/mdr/root/ct/sdtmct/codelists/C117743", "title": "Version-agnostic anchor resource for codelist C117743", "type": "Root Value Domain"}], "modelClassVariable": {"href": "/mdr/sdtm/1-7/classes/Findings/variables/--TESTCD", "title": "Short Name of Measurement, Test, or Exam", "type": "Class Variable"}, "parentDataset": {"href": "/mdr/sdtmig/3-3/datasets/OE", "title": "Ophthalmic Examinations", "type": "SDTM Dataset"}, "parentProduct": {"href": "/mdr/sdtmig/3-3", "title": "Study Data Tabulation Model Implementation Guide: Human Clinical Trials Version 3.3 (Final)", "type": "Implementation Guide"}, "rootItem": {"href": "/mdr/root/sdtmig/datasets/OE/variables/OETESTCD", "title": "Version-agnostic anchor resource for SDTMIG variable OE.OETESTCD", "type": "Root Data Element"}, "self": {"href": "/mdr/sdtmig/3-3/datasets/OE/variables/OETESTCD", "title": "Short Name of Ophthalmic Test or Exam", "type": "SDTM Dataset Variable"}}, "core": "Req", "description": "Short character value for OETEST used as a column name when converting a dataset from a vertical format to a horizontal format. It can be used as a column name when converting a dataset from a vertical to a horizontal format. The value in OETESTCD cannot be longer than 8 characters, nor can it start with a number (e.g., \"1TEST\" is not valid). OETESTCD cannot contain characters other than letters, numbers, or underscores. Example: \"NUMLCOR\".", "label": "Short Name of Ophthalmic Test or Exam", "name": "OETESTCD", "ordinal": "9", "role": "Topic", "simpleDatatype": "Char"}, {"_links": {"codelist": [{"href": "/mdr/root/ct/sdtmct/codelists/C117742", "title": "Version-agnostic anchor resource for codelist C117742", "type": "Root Value Domain"}], "modelClassVariable": {"href": "/mdr/sdtm/1-7/classes/Findings/variables/--TEST", "title": "Name of Measurement, Test, or Exam", "type": "Class Variable"}, "parentDataset": {"href": "/mdr/sdtmig/3-3/datasets/OE", "title": "Ophthalmic Examinations", "type": "SDTM Dataset"}, "parentProduct": {"href": "/mdr/sdtmig/3-3", "title": "Study Data Tabulation Model Implementation Guide: Human Clinical Trials Version 3.3 (Final)", "type": "Implementation Guide"}, "rootItem": {"href": "/mdr/root/sdtmig/datasets/OE/variables/OETEST", "title": "Version-agnostic anchor resource for SDTMIG variable OE.OETEST", "type": "Root Data Element"}, "self": {"href": "/mdr/sdtmig/3-3/datasets/OE/variables/OETEST", "title": "Name of Ophthalmic Test or Exam", "type": "SDTM Dataset Variable"}}, "core": "Req", "description": "Long name for the test or examination used to obtain the measurement or finding. The value in OETEST cannot be longer than 40 characters. Example: Number of Letters Correct for OETESTCD = \"NUMLCOR\".", "label": "Name of Ophthalmic Test or Exam", "name": "OETEST", "ordinal": "10", "role": "Synonym Qualifier", "simpleDatatype": "Char"}, {"_links": {"modelClassVariable": {"href": "/mdr/sdtm/1-7/classes/Findings/variables/--TSTDTL", "title": "Measurement, Test, or Examination Detail", "type": "Class Variable"}, "parentDataset": {"href": "/mdr/sdtmig/3-3/datasets/OE", "title": "Ophthalmic Examinations", "type": "SDTM Dataset"}, "parentProduct": {"href": "/mdr/sdtmig/3-3", "title": "Study Data Tabulation Model Implementation Guide: Human Clinical Trials Version 3.3 (Final)", "type": "Implementation Guide"}, "rootItem": {"href": "/mdr/root/sdtmig/datasets/OE/variables/OETSTDTL", "title": "Version-agnostic anchor resource for SDTMIG variable OE.OETSTDTL", "type": "Root Data Element"}, "self": {"href": "/mdr/sdtmig/3-3/datasets/OE/variables/OETSTDTL", "title": "Ophthalmic Test or Exam Detail", "type": "SDTM Dataset Variable"}}, "core": "Perm", "description": "Further description of OETESTCD and OETEST.", "label": "Ophthalmic Test or Exam Detail", "name": "OETSTDTL", "ordinal": "11", "role": "Variable Qualifier", "simpleDatatype": "Char"}, {"_links": {"modelClassVariable": {"href": "/mdr/sdtm/1-7/classes/Findings/variables/--CAT", "title": "Category", "type": "Class Variable"}, "parentDataset": {"href": "/mdr/sdtmig/3-3/datasets/OE", "title": "Ophthalmic Examinations", "type": "SDTM Dataset"}, "parentProduct": {"href": "/mdr/sdtmig/3-3", "title": "Study Data Tabulation Model Implementation Guide: Human Clinical Trials Version 3.3 (Final)", "type": "Implementation Guide"}, "rootItem": {"href": "/mdr/root/sdtmig/datasets/OE/variables/OECAT", "title": "Version-agnostic anchor resource for SDTMIG variable OE.OECAT", "type": "Root Data Element"}, "self": {"href": "/mdr/sdtmig/3-3/datasets/OE/variables/OECAT", "title": "Category for Ophthalmic Test or Exam", "type": "SDTM Dataset Variable"}}, "core": "Perm", "description": "Used to define a category of topic-variable values. Examples: \"VISUAL ACUITY\", \"CONTRAST SENSITIVIY\", \"OCULAR COMFORT\".", "label": "Category for Ophthalmic Test or Exam", "name": "OECAT", "ordinal": "12", "role": "Grouping Qualifier", "simpleDatatype": "Char"}, {"_links": {"modelClassVariable": {"href": "/mdr/sdtm/1-7/classes/Findings/variables/--SCAT", "title": "Subcategory", "type": "Class Variable"}, "parentDataset": {"href": "/mdr/sdtmig/3-3/datasets/OE", "title": "Ophthalmic Examinations", "type": "SDTM Dataset"}, "parentProduct": {"href": "/mdr/sdtmig/3-3", "title": "Study Data Tabulation Model Implementation Guide: Human Clinical Trials Version 3.3 (Final)", "type": "Implementation Guide"}, "rootItem": {"href": "/mdr/root/sdtmig/datasets/OE/variables/OESCAT", "title": "Version-agnostic anchor resource for SDTMIG variable OE.OESCAT", "type": "Root Data Element"}, "self": {"href": "/mdr/sdtmig/3-3/datasets/OE/variables/OESCAT", "title": "Subcategory for Ophthalmic Test or Exam", "type": "SDTM Dataset Variable"}}, "core": "Perm", "description": "Used to define a further categorization of OECAT values. Examples: \"HIGH CONTRAST\" and \"LOW CONTRAST\" when OECAT is \"VISUAL ACUITY\".", "label": "Subcategory for Ophthalmic Test or Exam", "name": "OESCAT", "ordinal": "13", "role": "Grouping Qualifier", "simpleDatatype": "Char"}, {"_links": {"modelClassVariable": {"href": "/mdr/sdtm/1-7/classes/Findings/variables/--ORRES", "title": "Result or Finding in Original Units", "type": "Class Variable"}, "parentDataset": {"href": "/mdr/sdtmig/3-3/datasets/OE", "title": "Ophthalmic Examinations", "type": "SDTM Dataset"}, "parentProduct": {"href": "/mdr/sdtmig/3-3", "title": "Study Data Tabulation Model Implementation Guide: Human Clinical Trials Version 3.3 (Final)", "type": "Implementation Guide"}, "rootItem": {"href": "/mdr/root/sdtmig/datasets/OE/variables/OEORRES", "title": "Version-agnostic anchor resource for SDTMIG variable OE.OEORRES", "type": "Root Data Element"}, "self": {"href": "/mdr/sdtmig/3-3/datasets/OE/variables/OEORRES", "title": "Result or Finding in Original Units", "type": "SDTM Dataset Variable"}}, "core": "Exp", "description": "Result of the measurement or finding as originally received or collected. Examples: \"120\", \"<1, NORMAL\", \"RED SPOT VISIBLE\".", "label": "Result or Finding in Original Units", "name": "OEORRES", "ordinal": "14", "role": "Result Qualifier", "simpleDatatype": "Char"}, {"_links": {"codelist": [{"href": "/mdr/root/ct/sdtmct/codelists/C71620", "title": "Version-agnostic anchor resource for codelist C71620", "type": "Root Value Domain"}], "modelClassVariable": {"href": "/mdr/sdtm/1-7/classes/Findings/variables/--ORRESU", "title": "Original Units", "type": "Class Variable"}, "parentDataset": {"href": "/mdr/sdtmig/3-3/datasets/OE", "title": "Ophthalmic Examinations", "type": "SDTM Dataset"}, "parentProduct": {"href": "/mdr/sdtmig/3-3", "title": "Study Data Tabulation Model Implementation Guide: Human Clinical Trials Version 3.3 (Final)", "type": "Implementation Guide"}, "rootItem": {"href": "/mdr/root/sdtmig/datasets/OE/variables/OEORRESU", "title": "Version-agnostic anchor resource for SDTMIG variable OE.OEORRESU", "type": "Root Data Element"}, "self": {"href": "/mdr/sdtmig/3-3/datasets/OE/variables/OEORRESU", "title": "Original Units", "type": "SDTM Dataset Variable"}}, "core": "Exp", "description": "Original unit for OEORRES. Examples: \"mm\", \"um\".", "label": "Original Units", "name": "OEORRESU", "ordinal": "15", "role": "Variable Qualifier", "simpleDatatype": "Char"}, {"_links": {"modelClassVariable": {"href": "/mdr/sdtm/1-7/classes/Findings/variables/--ORNRLO", "title": "Normal Range Lower Limit-Original Units", "type": "Class Variable"}, "parentDataset": {"href": "/mdr/sdtmig/3-3/datasets/OE", "title": "Ophthalmic Examinations", "type": "SDTM Dataset"}, "parentProduct": {"href": "/mdr/sdtmig/3-3", "title": "Study Data Tabulation Model Implementation Guide: Human Clinical Trials Version 3.3 (Final)", "type": "Implementation Guide"}, "rootItem": {"href": "/mdr/root/sdtmig/datasets/OE/variables/OEORNRLO", "title": "Version-agnostic anchor resource for SDTMIG variable OE.OEORNRLO", "type": "Root Data Element"}, "self": {"href": "/mdr/sdtmig/3-3/datasets/OE/variables/OEORNRLO", "title": "Normal Range Lower Limit-Original Units", "type": "SDTM Dataset Variable"}}, "core": "Perm", "description": "Lower end of normal range or reference range for results stored in OEORRES.", "label": "Normal Range Lower Limit-Original Units", "name": "OEORNRLO", "ordinal": "16", "role": "Variable Qualifier", "simpleDatatype": "Char"}, {"_links": {"modelClassVariable": {"href": "/mdr/sdtm/1-7/classes/Findings/variables/--ORNRHI", "title": "Normal Range Upper Limit-Original Units", "type": "Class Variable"}, "parentDataset": {"href": "/mdr/sdtmig/3-3/datasets/OE", "title": "Ophthalmic Examinations", "type": "SDTM Dataset"}, "parentProduct": {"href": "/mdr/sdtmig/3-3", "title": "Study Data Tabulation Model Implementation Guide: Human Clinical Trials Version 3.3 (Final)", "type": "Implementation Guide"}, "rootItem": {"href": "/mdr/root/sdtmig/datasets/OE/variables/OEORNRHI", "title": "Version-agnostic anchor resource for SDTMIG variable OE.OEORNRHI", "type": "Root Data Element"}, "self": {"href": "/mdr/sdtmig/3-3/datasets/OE/variables/OEORNRHI", "title": "Normal Range Upper Limit-Original Units", "type": "SDTM Dataset Variable"}}, "core": "Perm", "description": "Upper end of normal range or reference range for results stored in OEORRES.", "label": "Normal Range Upper Limit-Original Units", "name": "OEORNRHI", "ordinal": "17", "role": "Variable Qualifier", "simpleDatatype": "Char"}, {"_links": {"modelClassVariable": {"href": "/mdr/sdtm/1-7/classes/Findings/variables/--STRESC", "title": "Result or Finding in Standard Format", "type": "Class Variable"}, "parentDataset": {"href": "/mdr/sdtmig/3-3/datasets/OE", "title": "Ophthalmic Examinations", "type": "SDTM Dataset"}, "parentProduct": {"href": "/mdr/sdtmig/3-3", "title": "Study Data Tabulation Model Implementation Guide: Human Clinical Trials Version 3.3 (Final)", "type": "Implementation Guide"}, "rootItem": {"href": "/mdr/root/sdtmig/datasets/OE/variables/OESTRESC", "title": "Version-agnostic anchor resource for SDTMIG variable OE.OESTRESC", "type": "Root Data Element"}, "self": {"href": "/mdr/sdtmig/3-3/datasets/OE/variables/OESTRESC", "title": "Character Result/Finding in Std Format", "type": "SDTM Dataset Variable"}}, "core": "Exp", "description": "Contains the result value for all findings, copied or derived from OEORRES in a standard format or in standard units. OESTRESC should store all results or findings in character format; if results are numeric, they should also be stored in numeric format in OESTRESN.", "label": "Character Result/Finding in Std Format", "name": "OESTRESC", "ordinal": "18", "role": "Result Qualifier", "simpleDatatype": "Char"}, {"_links": {"modelClassVariable": {"href": "/mdr/sdtm/1-7/classes/Findings/variables/--STRESN", "title": "Numeric Result/Finding in Standard Units", "type": "Class Variable"}, "parentDataset": {"href": "/mdr/sdtmig/3-3/datasets/OE", "title": "Ophthalmic Examinations", "type": "SDTM Dataset"}, "parentProduct": {"href": "/mdr/sdtmig/3-3", "title": "Study Data Tabulation Model Implementation Guide: Human Clinical Trials Version 3.3 (Final)", "type": "Implementation Guide"}, "rootItem": {"href": "/mdr/root/sdtmig/datasets/OE/variables/OESTRESN", "title": "Version-agnostic anchor resource for SDTMIG variable OE.OESTRESN", "type": "Root Data Element"}, "self": {"href": "/mdr/sdtmig/3-3/datasets/OE/variables/OESTRESN", "title": "Numeric Result/Finding in Standard Units", "type": "SDTM Dataset Variable"}}, "core": "Exp", "description": "Used for continuous or numeric results or findings in standard format; copied in numeric format from OESTRESC. OESTRESN should store all numeric test results or findings.", "label": "Numeric Result/Finding in Standard Units", "name": "OESTRESN", "ordinal": "19", "role": "Result Qualifier", "simpleDatatype": "Num"}, {"_links": {"codelist": [{"href": "/mdr/root/ct/sdtmct/codelists/C71620", "title": "Version-agnostic anchor resource for codelist C71620", "type": "Root Value Domain"}], "modelClassVariable": {"href": "/mdr/sdtm/1-7/classes/Findings/variables/--STRESU", "title": "Standard Units", "type": "Class Variable"}, "parentDataset": {"href": "/mdr/sdtmig/3-3/datasets/OE", "title": "Ophthalmic Examinations", "type": "SDTM Dataset"}, "parentProduct": {"href": "/mdr/sdtmig/3-3", "title": "Study Data Tabulation Model Implementation Guide: Human Clinical Trials Version 3.3 (Final)", "type": "Implementation Guide"}, "rootItem": {"href": "/mdr/root/sdtmig/datasets/OE/variables/OESTRESU", "title": "Version-agnostic anchor resource for SDTMIG variable OE.OESTRESU", "type": "Root Data Element"}, "self": {"href": "/mdr/sdtmig/3-3/datasets/OE/variables/OESTRESU", "title": "Standard Units", "type": "SDTM Dataset Variable"}}, "core": "Exp", "description": "Standardized units used for OESTRESC and OESTRESN. Examples: \"mm\", \"um\".", "label": "Standard Units", "name": "OESTRESU", "ordinal": "20", "role": "Variable Qualifier", "simpleDatatype": "Char"}, {"_links": {"modelClassVariable": {"href": "/mdr/sdtm/1-7/classes/Findings/variables/--STNRLO", "title": "Normal Range Lower Limit-Standard Units", "type": "Class Variable"}, "parentDataset": {"href": "/mdr/sdtmig/3-3/datasets/OE", "title": "Ophthalmic Examinations", "type": "SDTM Dataset"}, "parentProduct": {"href": "/mdr/sdtmig/3-3", "title": "Study Data Tabulation Model Implementation Guide: Human Clinical Trials Version 3.3 (Final)", "type": "Implementation Guide"}, "rootItem": {"href": "/mdr/root/sdtmig/datasets/OE/variables/OESTNRLO", "title": "Version-agnostic anchor resource for SDTMIG variable OE.OESTNRLO", "type": "Root Data Element"}, "self": {"href": "/mdr/sdtmig/3-3/datasets/OE/variables/OESTNRLO", "title": "Normal Range Lower Limit-Standard Units", "type": "SDTM Dataset Variable"}}, "core": "Perm", "description": "Lower end of normal range or reference range for standardized results (e.g., OESTRESC, OESTRESN) represented in standardized units (OESTRESU).", "label": "Normal Range Lower Limit-Standard Units", "name": "OESTNRLO", "ordinal": "21", "role": "Variable Qualifier", "simpleDatatype": "Num"}, {"_links": {"modelClassVariable": {"href": "/mdr/sdtm/1-7/classes/Findings/variables/--STNRHI", "title": "Normal Range Upper Limit-Standard Units", "type": "Class Variable"}, "parentDataset": {"href": "/mdr/sdtmig/3-3/datasets/OE", "title": "Ophthalmic Examinations", "type": "SDTM Dataset"}, "parentProduct": {"href": "/mdr/sdtmig/3-3", "title": "Study Data Tabulation Model Implementation Guide: Human Clinical Trials Version 3.3 (Final)", "type": "Implementation Guide"}, "rootItem": {"href": "/mdr/root/sdtmig/datasets/OE/variables/OESTNRHI", "title": "Version-agnostic anchor resource for SDTMIG variable OE.OESTNRHI", "type": "Root Data Element"}, "self": {"href": "/mdr/sdtmig/3-3/datasets/OE/variables/OESTNRHI", "title": "Normal Range Upper Limit-Standard Units", "type": "SDTM Dataset Variable"}}, "core": "Perm", "description": "Upper end of normal range or reference range for standardized results (e.g., OESTRESC, OESTRESN) represented in standardized units (OESTRESU).", "label": "Normal Range Upper Limit-Standard Units", "name": "OESTNRHI", "ordinal": "22", "role": "Variable Qualifier", "simpleDatatype": "Num"}, {"_links": {"modelClassVariable": {"href": "/mdr/sdtm/1-7/classes/Findings/variables/--STNRC", "title": "Normal Range for Character Results", "type": "Class Variable"}, "parentDataset": {"href": "/mdr/sdtmig/3-3/datasets/OE", "title": "Ophthalmic Examinations", "type": "SDTM Dataset"}, "parentProduct": {"href": "/mdr/sdtmig/3-3", "title": "Study Data Tabulation Model Implementation Guide: Human Clinical Trials Version 3.3 (Final)", "type": "Implementation Guide"}, "rootItem": {"href": "/mdr/root/sdtmig/datasets/OE/variables/OESTNRC", "title": "Version-agnostic anchor resource for SDTMIG variable OE.OESTNRC", "type": "Root Data Element"}, "self": {"href": "/mdr/sdtmig/3-3/datasets/OE/variables/OESTNRC", "title": "Normal Range for Character Results", "type": "SDTM Dataset Variable"}}, "core": "Perm", "description": "Normal range or reference range for results stored in OESTRESC that are character in ordinal or categorical scale. Example: \"Negative to Trace\".", "label": "Normal Range for Character Results", "name": "OESTNRC", "ordinal": "23", "role": "Variable Qualifier", "simpleDatatype": "Char"}, {"_links": {"codelist": [{"href": "/mdr/root/ct/sdtmct/codelists/C78736", "title": "Version-agnostic anchor resource for codelist C78736", "type": "Root Value Domain"}], "modelClassVariable": {"href": "/mdr/sdtm/1-7/classes/Findings/variables/--NRIND", "title": "Normal/Reference Range Indicator", "type": "Class Variable"}, "parentDataset": {"href": "/mdr/sdtmig/3-3/datasets/OE", "title": "Ophthalmic Examinations", "type": "SDTM Dataset"}, "parentProduct": {"href": "/mdr/sdtmig/3-3", "title": "Study Data Tabulation Model Implementation Guide: Human Clinical Trials Version 3.3 (Final)", "type": "Implementation Guide"}, "rootItem": {"href": "/mdr/root/sdtmig/datasets/OE/variables/OENRIND", "title": "Version-agnostic anchor resource for SDTMIG variable OE.OENRIND", "type": "Root Data Element"}, "self": {"href": "/mdr/sdtmig/3-3/datasets/OE/variables/OENRIND", "title": "Normal/Reference Range Indicator", "type": "SDTM Dataset Variable"}}, "core": "Perm", "description": "Used to indicate the value is outside the normal range or reference range. May be defined by OEORNRLO and OEORNRHI or other objective criteria. Examples: \"Y\", \"N\"; \"HIGH\", \"LOW\", \"NORMAL\", \"ABNORMAL\".", "label": "Normal/Reference Range Indicator", "name": "OENRIND", "ordinal": "24", "role": "Variable Qualifier", "simpleDatatype": "Char"}, {"_links": {"modelClassVariable": {"href": "/mdr/sdtm/1-7/classes/Findings/variables/--RESCAT", "title": "Result Category", "type": "Class Variable"}, "parentDataset": {"href": "/mdr/sdtmig/3-3/datasets/OE", "title": "Ophthalmic Examinations", "type": "SDTM Dataset"}, "parentProduct": {"href": "/mdr/sdtmig/3-3", "title": "Study Data Tabulation Model Implementation Guide: Human Clinical Trials Version 3.3 (Final)", "type": "Implementation Guide"}, "rootItem": {"href": "/mdr/root/sdtmig/datasets/OE/variables/OERESCAT", "title": "Version-agnostic anchor resource for SDTMIG variable OE.OERESCAT", "type": "Root Data Element"}, "self": {"href": "/mdr/sdtmig/3-3/datasets/OE/variables/OERESCAT", "title": "Result Category", "type": "SDTM Dataset Variable"}}, "core": "Perm", "description": "Used to categorize the result of a finding or medical status per interpretation of test results. Examples: \"POSITIVE\", \"NEGATIVE\". The variable OERESCAT is not meant to replace the use of OENRIND for cases where normal ranges are provided.", "label": "Result Category", "name": "OERESCAT", "ordinal": "25", "role": "Variable Qualifier", "simpleDatatype": "Char"}, {"_links": {"codelist": [{"href": "/mdr/root/ct/sdtmct/codelists/C66789", "title": "Version-agnostic anchor resource for codelist C66789", "type": "Root Value Domain"}], "modelClassVariable": {"href": "/mdr/sdtm/1-7/classes/Findings/variables/--STAT", "title": "Completion Status", "type": "Class Variable"}, "parentDataset": {"href": "/mdr/sdtmig/3-3/datasets/OE", "title": "Ophthalmic Examinations", "type": "SDTM Dataset"}, "parentProduct": {"href": "/mdr/sdtmig/3-3", "title": "Study Data Tabulation Model Implementation Guide: Human Clinical Trials Version 3.3 (Final)", "type": "Implementation Guide"}, "rootItem": {"href": "/mdr/root/sdtmig/datasets/OE/variables/OESTAT", "title": "Version-agnostic anchor resource for SDTMIG variable OE.OESTAT", "type": "Root Data Element"}, "self": {"href": "/mdr/sdtmig/3-3/datasets/OE/variables/OESTAT", "title": "Completion Status", "type": "SDTM Dataset Variable"}}, "core": "Perm", "description": "Used to indicate that a question was not asked or a test was not done, or a test was attempted but did not generate a result. Should be null or have a value of \"NOT DONE\".", "label": "Completion Status", "name": "OESTAT", "ordinal": "26", "role": "Record Qualifier", "simpleDatatype": "Char"}, {"_links": {"modelClassVariable": {"href": "/mdr/sdtm/1-7/classes/Findings/variables/--REASND", "title": "Reason Not Done", "type": "Class Variable"}, "parentDataset": {"href": "/mdr/sdtmig/3-3/datasets/OE", "title": "Ophthalmic Examinations", "type": "SDTM Dataset"}, "parentProduct": {"href": "/mdr/sdtmig/3-3", "title": "Study Data Tabulation Model Implementation Guide: Human Clinical Trials Version 3.3 (Final)", "type": "Implementation Guide"}, "rootItem": {"href": "/mdr/root/sdtmig/datasets/OE/variables/OEREASND", "title": "Version-agnostic anchor resource for SDTMIG variable OE.OEREASND", "type": "Root Data Element"}, "self": {"href": "/mdr/sdtmig/3-3/datasets/OE/variables/OEREASND", "title": "Reason Not Done", "type": "SDTM Dataset Variable"}}, "core": "Perm", "description": "Reason not done. Used in conjunction with OESTAT when value is \"NOT DONE\".", "label": "Reason Not Done", "name": "OEREASND", "ordinal": "27", "role": "Record Qualifier", "simpleDatatype": "Char"}, {"_links": {"modelClassVariable": {"href": "/mdr/sdtm/1-7/classes/Findings/variables/--XFN", "title": "External File Path", "type": "Class Variable"}, "parentDataset": {"href": "/mdr/sdtmig/3-3/datasets/OE", "title": "Ophthalmic Examinations", "type": "SDTM Dataset"}, "parentProduct": {"href": "/mdr/sdtmig/3-3", "title": "Study Data Tabulation Model Implementation Guide: Human Clinical Trials Version 3.3 (Final)", "type": "Implementation Guide"}, "rootItem": {"href": "/mdr/root/sdtmig/datasets/OE/variables/OEXFN", "title": "Version-agnostic anchor resource for SDTMIG variable OE.OEXFN", "type": "Root Data Element"}, "self": {"href": "/mdr/sdtmig/3-3/datasets/OE/variables/OEXFN", "title": "External File Path", "type": "SDTM Dataset Variable"}}, "core": "Perm", "description": "Filename for an external file, such as one for a retinal OCT image.", "label": "External File Path", "name": "OEXFN", "ordinal": "28", "role": "Record Qualifier", "simpleDatatype": "Char"}, {"_links": {"codelist": [{"href": "/mdr/root/ct/sdtmct/codelists/C74456", "title": "Version-agnostic anchor resource for codelist C74456", "type": "Root Value Domain"}], "modelClassVariable": {"href": "/mdr/sdtm/1-7/classes/Findings/variables/--LOC", "title": "Location Used for the Measurement", "type": "Class Variable"}, "parentDataset": {"href": "/mdr/sdtmig/3-3/datasets/OE", "title": "Ophthalmic Examinations", "type": "SDTM Dataset"}, "parentProduct": {"href": "/mdr/sdtmig/3-3", "title": "Study Data Tabulation Model Implementation Guide: Human Clinical Trials Version 3.3 (Final)", "type": "Implementation Guide"}, "rootItem": {"href": "/mdr/root/sdtmig/datasets/OE/variables/OELOC", "title": "Version-agnostic anchor resource for SDTMIG variable OE.OELOC", "type": "Root Data Element"}, "self": {"href": "/mdr/sdtmig/3-3/datasets/OE/variables/OELOC", "title": "Location Used for the Measurement", "type": "SDTM Dataset Variable"}}, "core": "Exp", "description": "Anatomical location of the subject relevant to the collection of the measurement. Examples: \"EYE\" for a finding record relative to the complete eye, \"RETINA\" for a measurement or assessment of only the retina.", "label": "Location Used for the Measurement", "name": "OELOC", "ordinal": "29", "role": "Record Qualifier", "simpleDatatype": "Char"}, {"_links": {"codelist": [{"href": "/mdr/root/ct/sdtmct/codelists/C99073", "title": "Version-agnostic anchor resource for codelist C99073", "type": "Root Value Domain"}], "modelClassVariable": {"href": "/mdr/sdtm/1-7/classes/Findings/variables/--LAT", "title": "Laterality", "type": "Class Variable"}, "parentDataset": {"href": "/mdr/sdtmig/3-3/datasets/OE", "title": "Ophthalmic Examinations", "type": "SDTM Dataset"}, "parentProduct": {"href": "/mdr/sdtmig/3-3", "title": "Study Data Tabulation Model Implementation Guide: Human Clinical Trials Version 3.3 (Final)", "type": "Implementation Guide"}, "rootItem": {"href": "/mdr/root/sdtmig/datasets/OE/variables/OELAT", "title": "Version-agnostic anchor resource for SDTMIG variable OE.OELAT", "type": "Root Data Element"}, "self": {"href": "/mdr/sdtmig/3-3/datasets/OE/variables/OELAT", "title": "Laterality", "type": "SDTM Dataset Variable"}}, "core": "Exp", "description": "Qualifier for anatomical location or specimen further detailing laterality. Examples: \"RIGHT\", \"LEFT\", \"BILATERAL\".", "label": "Laterality", "name": "OELAT", "ordinal": "30", "role": "Variable Qualifier", "simpleDatatype": "Char"}, {"_links": {"codelist": [{"href": "/mdr/root/ct/sdtmct/codelists/C99074", "title": "Version-agnostic anchor resource for codelist C99074", "type": "Root Value Domain"}], "modelClassVariable": {"href": "/mdr/sdtm/1-7/classes/Findings/variables/--DIR", "title": "Directionality", "type": "Class Variable"}, "parentDataset": {"href": "/mdr/sdtmig/3-3/datasets/OE", "title": "Ophthalmic Examinations", "type": "SDTM Dataset"}, "parentProduct": {"href": "/mdr/sdtmig/3-3", "title": "Study Data Tabulation Model Implementation Guide: Human Clinical Trials Version 3.3 (Final)", "type": "Implementation Guide"}, "rootItem": {"href": "/mdr/root/sdtmig/datasets/OE/variables/OEDIR", "title": "Version-agnostic anchor resource for SDTMIG variable OE.OEDIR", "type": "Root Data Element"}, "self": {"href": "/mdr/sdtmig/3-3/datasets/OE/variables/OEDIR", "title": "Directionality", "type": "SDTM Dataset Variable"}}, "core": "Perm", "description": "Qualifier for anatomical location or specimen further detailing directionality. Examples: \"ANTERIOR\", \"LOWER\", \"PROXIMAL\".", "label": "Directionality", "name": "OEDIR", "ordinal": "31", "role": "Variable Qualifier", "simpleDatatype": "Char"}, {"_links": {"codelist": [{"href": "/mdr/root/ct/sdtmct/codelists/C99075", "title": "Version-agnostic anchor resource for codelist C99075", "type": "Root Value Domain"}], "modelClassVariable": {"href": "/mdr/sdtm/1-7/classes/Findings/variables/--PORTOT", "title": "Portion or Totality", "type": "Class Variable"}, "parentDataset": {"href": "/mdr/sdtmig/3-3/datasets/OE", "title": "Ophthalmic Examinations", "type": "SDTM Dataset"}, "parentProduct": {"href": "/mdr/sdtmig/3-3", "title": "Study Data Tabulation Model Implementation Guide: Human Clinical Trials Version 3.3 (Final)", "type": "Implementation Guide"}, "rootItem": {"href": "/mdr/root/sdtmig/datasets/OE/variables/OEPORTOT", "title": "Version-agnostic anchor resource for SDTMIG variable OE.OEPORTOT", "type": "Root Data Element"}, "self": {"href": "/mdr/sdtmig/3-3/datasets/OE/variables/OEPORTOT", "title": "Portion or Totality", "type": "SDTM Dataset Variable"}}, "core": "Perm", "description": "Qualifier for anatomical location or specimen further detailing the distribution, which means arrangement of, apportioning of. Examples: \"ENTIRE\", \"SINGLE\", \"SEGMENT\", \"MANY\".", "label": "Portion or Totality", "name": "OEPORTOT", "ordinal": "32", "role": "Variable Qualifier", "simpleDatatype": "Char"}, {"_links": {"codelist": [{"href": "/mdr/root/ct/sdtmct/codelists/C85492", "title": "Version-agnostic anchor resource for codelist C85492", "type": "Root Value Domain"}], "modelClassVariable": {"href": "/mdr/sdtm/1-7/classes/Findings/variables/--METHOD", "title": "Method of Test or Examination", "type": "Class Variable"}, "parentDataset": {"href": "/mdr/sdtmig/3-3/datasets/OE", "title": "Ophthalmic Examinations", "type": "SDTM Dataset"}, "parentProduct": {"href": "/mdr/sdtmig/3-3", "title": "Study Data Tabulation Model Implementation Guide: Human Clinical Trials Version 3.3 (Final)", "type": "Implementation Guide"}, "rootItem": {"href": "/mdr/root/sdtmig/datasets/OE/variables/OEMETHOD", "title": "Version-agnostic anchor resource for SDTMIG variable OE.OEMETHOD", "type": "Root Data Element"}, "self": {"href": "/mdr/sdtmig/3-3/datasets/OE/variables/OEMETHOD", "title": "Method of Test or Examination", "type": "SDTM Dataset Variable"}}, "core": "Exp", "description": "Method of the test or examination. Example: \"ETDRS EYE CHART\" for OETESTCD = \"NUMLCOR\". The different methods may offer different functionality or granularity, affecting the set of results and associated meaning.", "label": "Method of Test or Examination", "name": "OEMETHOD", "ordinal": "33", "role": "Record Qualifier", "simpleDatatype": "Char"}, {"_links": {"codelist": [{"href": "/mdr/root/ct/sdtmct/codelists/C66742", "title": "Version-agnostic anchor resource for codelist C66742", "type": "Root Value Domain"}], "modelClassVariable": {"href": "/mdr/sdtm/1-7/classes/Findings/variables/--LOBXFL", "title": "Last Observation Before Exposure Flag", "type": "Class Variable"}, "parentDataset": {"href": "/mdr/sdtmig/3-3/datasets/OE", "title": "Ophthalmic Examinations", "type": "SDTM Dataset"}, "parentProduct": {"href": "/mdr/sdtmig/3-3", "title": "Study Data Tabulation Model Implementation Guide: Human Clinical Trials Version 3.3 (Final)", "type": "Implementation Guide"}, "rootItem": {"href": "/mdr/root/sdtmig/datasets/OE/variables/OELOBXFL", "title": "Version-agnostic anchor resource for SDTMIG variable OE.OELOBXFL", "type": "Root Data Element"}, "self": {"href": "/mdr/sdtmig/3-3/datasets/OE/variables/OELOBXFL", "title": "Last Observation Before Exposure Flag", "type": "SDTM Dataset Variable"}}, "core": "Exp", "description": "Operationally-derived indicator used to identify the last non-missing value prior to RFXSTDTC. The value should be \"Y\" or null.", "label": "Last Observation Before Exposure Flag", "name": "OELOBXFL", "ordinal": "34", "role": "Record Qualifier", "simpleDatatype": "Char"}, {"_links": {"codelist": [{"href": "/mdr/root/ct/sdtmct/codelists/C66742", "title": "Version-agnostic anchor resource for codelist C66742", "type": "Root Value Domain"}], "modelClassVariable": {"href": "/mdr/sdtm/1-7/classes/Findings/variables/--BLFL", "title": "Baseline Flag", "type": "Class Variable"}, "parentDataset": {"href": "/mdr/sdtmig/3-3/datasets/OE", "title": "Ophthalmic Examinations", "type": "SDTM Dataset"}, "parentProduct": {"href": "/mdr/sdtmig/3-3", "title": "Study Data Tabulation Model Implementation Guide: Human Clinical Trials Version 3.3 (Final)", "type": "Implementation Guide"}, "rootItem": {"href": "/mdr/root/sdtmig/datasets/OE/variables/OEBLFL", "title": "Version-agnostic anchor resource for SDTMIG variable OE.OEBLFL", "type": "Root Data Element"}, "self": {"href": "/mdr/sdtmig/3-3/datasets/OE/variables/OEBLFL", "title": "Baseline Flag", "type": "SDTM Dataset Variable"}}, "core": "Perm", "description": "Indicator used to identify a baseline value. Should be \"Y\" or null. Note that OEBLFL is retained for backward compatibility. The authoritative baseline for statistical analysis is in an ADaM dataset.", "label": "Baseline Flag", "name": "OEBLFL", "ordinal": "35", "role": "Record Qualifier", "simpleDatatype": "Char"}, {"_links": {"codelist": [{"href": "/mdr/root/ct/sdtmct/codelists/C66742", "title": "Version-agnostic anchor resource for codelist C66742", "type": "Root Value Domain"}], "modelClassVariable": {"href": "/mdr/sdtm/1-7/classes/Findings/variables/--DRVFL", "title": "Derived Flag", "type": "Class Variable"}, "parentDataset": {"href": "/mdr/sdtmig/3-3/datasets/OE", "title": "Ophthalmic Examinations", "type": "SDTM Dataset"}, "parentProduct": {"href": "/mdr/sdtmig/3-3", "title": "Study Data Tabulation Model Implementation Guide: Human Clinical Trials Version 3.3 (Final)", "type": "Implementation Guide"}, "rootItem": {"href": "/mdr/root/sdtmig/datasets/OE/variables/OEDRVFL", "title": "Version-agnostic anchor resource for SDTMIG variable OE.OEDRVFL", "type": "Root Data Element"}, "self": {"href": "/mdr/sdtmig/3-3/datasets/OE/variables/OEDRVFL", "title": "Derived Flag", "type": "SDTM Dataset Variable"}}, "core": "Perm", "description": "Used to indicate a derived record (e.g., a record that represents the average of other records such as a computed baseline). Should be \"Y\" or null.", "label": "Derived Flag", "name": "OEDRVFL", "ordinal": "36", "role": "Record Qualifier", "simpleDatatype": "Char"}, {"_links": {"codelist": [{"href": "/mdr/root/ct/sdtmct/codelists/C78735", "title": "Version-agnostic anchor resource for codelist C78735", "type": "Root Value Domain"}], "modelClassVariable": {"href": "/mdr/sdtm/1-7/classes/Findings/variables/--EVAL", "title": "Evaluator", "type": "Class Variable"}, "parentDataset": {"href": "/mdr/sdtmig/3-3/datasets/OE", "title": "Ophthalmic Examinations", "type": "SDTM Dataset"}, "parentProduct": {"href": "/mdr/sdtmig/3-3", "title": "Study Data Tabulation Model Implementation Guide: Human Clinical Trials Version 3.3 (Final)", "type": "Implementation Guide"}, "rootItem": {"href": "/mdr/root/sdtmig/datasets/OE/variables/OEEVAL", "title": "Version-agnostic anchor resource for SDTMIG variable OE.OEEVAL", "type": "Root Data Element"}, "self": {"href": "/mdr/sdtmig/3-3/datasets/OE/variables/OEEVAL", "title": "Evaluator", "type": "SDTM Dataset Variable"}}, "core": "Perm", "description": "Role of the person who provided the evaluation. Used only for results that are subjective (e.g., assigned by a person or a group). Examples: \"INDEPENDENT ASSESSOR\", \"INVESTIGATOR\".", "label": "Evaluator", "name": "OEEVAL", "ordinal": "37", "role": "Record Qualifier", "simpleDatatype": "Char"}, {"_links": {"codelist": [{"href": "/mdr/root/ct/sdtmct/codelists/C96777", "title": "Version-agnostic anchor resource for codelist C96777", "type": "Root Value Domain"}], "modelClassVariable": {"href": "/mdr/sdtm/1-7/classes/Findings/variables/--EVALID", "title": "Evaluator Identifier", "type": "Class Variable"}, "parentDataset": {"href": "/mdr/sdtmig/3-3/datasets/OE", "title": "Ophthalmic Examinations", "type": "SDTM Dataset"}, "parentProduct": {"href": "/mdr/sdtmig/3-3", "title": "Study Data Tabulation Model Implementation Guide: Human Clinical Trials Version 3.3 (Final)", "type": "Implementation Guide"}, "rootItem": {"href": "/mdr/root/sdtmig/datasets/OE/variables/OEEVALID", "title": "Version-agnostic anchor resource for SDTMIG variable OE.OEEVALID", "type": "Root Data Element"}, "self": {"href": "/mdr/sdtmig/3-3/datasets/OE/variables/OEEVALID", "title": "Evaluator Identifier", "type": "SDTM Dataset Variable"}}, "core": "Perm", "description": "Used to distinguish multiple evaluators with the same role recorded in OEEVAL. Examples: \"RADIOLOGIST1\" or \"RADIOLOGIST2\".", "label": "Evaluator Identifier", "name": "OEEVALID", "ordinal": "38", "role": "Variable Qualifier", "simpleDatatype": "Char"}, {"_links": {"codelist": [{"href": "/mdr/root/ct/sdtmct/codelists/C66742", "title": "Version-agnostic anchor resource for codelist C66742", "type": "Root Value Domain"}], "modelClassVariable": {"href": "/mdr/sdtm/1-7/classes/Findings/variables/--ACPTFL", "title": "Accepted Record Flag", "type": "Class Variable"}, "parentDataset": {"href": "/mdr/sdtmig/3-3/datasets/OE", "title": "Ophthalmic Examinations", "type": "SDTM Dataset"}, "parentProduct": {"href": "/mdr/sdtmig/3-3", "title": "Study Data Tabulation Model Implementation Guide: Human Clinical Trials Version 3.3 (Final)", "type": "Implementation Guide"}, "rootItem": {"href": "/mdr/root/sdtmig/datasets/OE/variables/OEACPTFL", "title": "Version-agnostic anchor resource for SDTMIG variable OE.OEACPTFL", "type": "Root Data Element"}, "self": {"href": "/mdr/sdtmig/3-3/datasets/OE/variables/OEACPTFL", "title": "Accepted Record Flag", "type": "SDTM Dataset Variable"}}, "core": "Perm", "description": "In cases where more than one assessor provides an evaluation of a result or response, this flag identifies the record that is considered, by an independent assessor, to be the accepted evaluation. Expected to be \"Y\" or null.", "label": "Accepted Record Flag", "name": "OEACPTFL", "ordinal": "39", "role": "Record Qualifier", "simpleDatatype": "Char"}, {"_links": {"modelClassVariable": {"href": "/mdr/sdtm/1-7/classes/Findings/variables/--REPNUM", "title": "Repetition Number", "type": "Class Variable"}, "parentDataset": {"href": "/mdr/sdtmig/3-3/datasets/OE", "title": "Ophthalmic Examinations", "type": "SDTM Dataset"}, "parentProduct": {"href": "/mdr/sdtmig/3-3", "title": "Study Data Tabulation Model Implementation Guide: Human Clinical Trials Version 3.3 (Final)", "type": "Implementation Guide"}, "rootItem": {"href": "/mdr/root/sdtmig/datasets/OE/variables/OEREPNUM", "title": "Version-agnostic anchor resource for SDTMIG variable OE.OEREPNUM", "type": "Root Data Element"}, "self": {"href": "/mdr/sdtmig/3-3/datasets/OE/variables/OEREPNUM", "title": "Repetition Number", "type": "SDTM Dataset Variable"}}, "core": "Perm", "description": "The incidence number of a test that is repeated within a given timeframe for the same test. The level of granularity can vary, e.g., within a time point or within a visit. For example, multiple measurements of blood pressure or multiple analyses of a sample.", "label": "Repetition Number", "name": "OEREPNUM", "ordinal": "40", "role": "Record Qualifier", "simpleDatatype": "Num"}, {"_links": {"modelClassVariable": {"href": "/mdr/sdtm/1-7/classes/GeneralObservations/variables/VISITNUM", "title": "Visit Number", "type": "Class Variable"}, "parentDataset": {"href": "/mdr/sdtmig/3-3/datasets/OE", "title": "Ophthalmic Examinations", "type": "SDTM Dataset"}, "parentProduct": {"href": "/mdr/sdtmig/3-3", "title": "Study Data Tabulation Model Implementation Guide: Human Clinical Trials Version 3.3 (Final)", "type": "Implementation Guide"}, "rootItem": {"href": "/mdr/root/sdtmig/datasets/OE/variables/VISITNUM", "title": "Version-agnostic anchor resource for SDTMIG variable OE.VISITNUM", "type": "Root Data Element"}, "self": {"href": "/mdr/sdtmig/3-3/datasets/OE/variables/VISITNUM", "title": "Visit Number", "type": "SDTM Dataset Variable"}}, "core": "Exp", "description": "Clinical encounter number. Numeric version of VISIT, used for sorting.", "label": "Visit Number", "name": "VISITNUM", "ordinal": "41", "role": "Timing", "simpleDatatype": "Num"}, {"_links": {"modelClassVariable": {"href": "/mdr/sdtm/1-7/classes/GeneralObservations/variables/VISIT", "title": "Visit Name", "type": "Class Variable"}, "parentDataset": {"href": "/mdr/sdtmig/3-3/datasets/OE", "title": "Ophthalmic Examinations", "type": "SDTM Dataset"}, "parentProduct": {"href": "/mdr/sdtmig/3-3", "title": "Study Data Tabulation Model Implementation Guide: Human Clinical Trials Version 3.3 (Final)", "type": "Implementation Guide"}, "rootItem": {"href": "/mdr/root/sdtmig/datasets/OE/variables/VISIT", "title": "Version-agnostic anchor resource for SDTMIG variable OE.VISIT", "type": "Root Data Element"}, "self": {"href": "/mdr/sdtmig/3-3/datasets/OE/variables/VISIT", "title": "Visit Name", "type": "SDTM Dataset Variable"}}, "core": "Perm", "description": "Protocol-defined description of a clinical encounter.", "label": "Visit Name", "name": "VISIT", "ordinal": "42", "role": "Timing", "simpleDatatype": "Char"}, {"_links": {"modelClassVariable": {"href": "/mdr/sdtm/1-7/classes/GeneralObservations/variables/VISITDY", "title": "Planned Study Day of Visit", "type": "Class Variable"}, "parentDataset": {"href": "/mdr/sdtmig/3-3/datasets/OE", "title": "Ophthalmic Examinations", "type": "SDTM Dataset"}, "parentProduct": {"href": "/mdr/sdtmig/3-3", "title": "Study Data Tabulation Model Implementation Guide: Human Clinical Trials Version 3.3 (Final)", "type": "Implementation Guide"}, "rootItem": {"href": "/mdr/root/sdtmig/datasets/OE/variables/VISITDY", "title": "Version-agnostic anchor resource for SDTMIG variable OE.VISITDY", "type": "Root Data Element"}, "self": {"href": "/mdr/sdtmig/3-3/datasets/OE/variables/VISITDY", "title": "Planned Study Day of Visit", "type": "SDTM Dataset Variable"}}, "core": "Perm", "description": "Planned study day of the visit based upon RFSTDTC in Demographics.", "label": "Planned Study Day of Visit", "name": "VISITDY", "ordinal": "43", "role": "Timing", "simpleDatatype": "Num"}, {"_links": {"modelClassVariable": {"href": "/mdr/sdtm/1-7/classes/GeneralObservations/variables/TAETORD", "title": "Planned Order of Element Within Arm", "type": "Class Variable"}, "parentDataset": {"href": "/mdr/sdtmig/3-3/datasets/OE", "title": "Ophthalmic Examinations", "type": "SDTM Dataset"}, "parentProduct": {"href": "/mdr/sdtmig/3-3", "title": "Study Data Tabulation Model Implementation Guide: Human Clinical Trials Version 3.3 (Final)", "type": "Implementation Guide"}, "rootItem": {"href": "/mdr/root/sdtmig/datasets/OE/variables/TAETORD", "title": "Version-agnostic anchor resource for SDTMIG variable OE.TAETORD", "type": "Root Data Element"}, "self": {"href": "/mdr/sdtmig/3-3/datasets/OE/variables/TAETORD", "title": "Planned Order of Element within Arm", "type": "SDTM Dataset Variable"}}, "core": "Perm", "description": "Number that gives the planned order of the Element within the Arm for the Element in which the assessment was made.", "label": "Planned Order of Element within Arm", "name": "TAETORD", "ordinal": "44", "role": "Timing", "simpleDatatype": "Num"}, {"_links": {"codelist": [{"href": "/mdr/root/ct/sdtmct/codelists/C99079", "title": "Version-agnostic anchor resource for codelist C99079", "type": "Root Value Domain"}], "modelClassVariable": {"href": "/mdr/sdtm/1-7/classes/GeneralObservations/variables/EPOCH", "title": "Epoch", "type": "Class Variable"}, "parentDataset": {"href": "/mdr/sdtmig/3-3/datasets/OE", "title": "Ophthalmic Examinations", "type": "SDTM Dataset"}, "parentProduct": {"href": "/mdr/sdtmig/3-3", "title": "Study Data Tabulation Model Implementation Guide: Human Clinical Trials Version 3.3 (Final)", "type": "Implementation Guide"}, "rootItem": {"href": "/mdr/root/sdtmig/datasets/OE/variables/EPOCH", "title": "Version-agnostic anchor resource for SDTMIG variable OE.EPOCH", "type": "Root Data Element"}, "self": {"href": "/mdr/sdtmig/3-3/datasets/OE/variables/EPOCH", "title": "Epoch", "type": "SDTM Dataset Variable"}}, "core": "Perm", "description": "Epoch associated with the date/time at which the assessment was made.", "label": "Epoch", "name": "EPOCH", "ordinal": "45", "role": "Timing", "simpleDatatype": "Char"}, {"_links": {"modelClassVariable": {"href": "/mdr/sdtm/1-7/classes/GeneralObservations/variables/--DTC", "title": "Date/Time of Collection", "type": "Class Variable"}, "parentDataset": {"href": "/mdr/sdtmig/3-3/datasets/OE", "title": "Ophthalmic Examinations", "type": "SDTM Dataset"}, "parentProduct": {"href": "/mdr/sdtmig/3-3", "title": "Study Data Tabulation Model Implementation Guide: Human Clinical Trials Version 3.3 (Final)", "type": "Implementation Guide"}, "rootItem": {"href": "/mdr/root/sdtmig/datasets/OE/variables/OEDTC", "title": "Version-agnostic anchor resource for SDTMIG variable OE.OEDTC", "type": "Root Data Element"}, "self": {"href": "/mdr/sdtmig/3-3/datasets/OE/variables/OEDTC", "title": "Date/Time of Collection", "type": "SDTM Dataset Variable"}}, "core": "Exp", "describedValueDomain": "ISO 8601", "description": "Collection date/time of the observation.", "label": "Date/Time of Collection", "name": "OEDTC", "ordinal": "46", "role": "Timing", "simpleDatatype": "Char"}, {"_links": {"modelClassVariable": {"href": "/mdr/sdtm/1-7/classes/GeneralObservations/variables/--DY", "title": "Study Day of Visit/Collection/Exam", "type": "Class Variable"}, "parentDataset": {"href": "/mdr/sdtmig/3-3/datasets/OE", "title": "Ophthalmic Examinations", "type": "SDTM Dataset"}, "parentProduct": {"href": "/mdr/sdtmig/3-3", "title": "Study Data Tabulation Model Implementation Guide: Human Clinical Trials Version 3.3 (Final)", "type": "Implementation Guide"}, "rootItem": {"href": "/mdr/root/sdtmig/datasets/OE/variables/OEDY", "title": "Version-agnostic anchor resource for SDTMIG variable OE.OEDY", "type": "Root Data Element"}, "self": {"href": "/mdr/sdtmig/3-3/datasets/OE/variables/OEDY", "title": "Study Day of Visit/Collection/Exam", "type": "SDTM Dataset Variable"}}, "core": "Exp", "description": "Actual study day of observation/exam expressed in integer days relative to the sponsor-defined RFSTDTC in Demographics.", "label": "Study Day of Visit/Collection/Exam", "name": "OEDY", "ordinal": "47", "role": "Timing", "simpleDatatype": "Num"}, {"_links": {"modelClassVariable": {"href": "/mdr/sdtm/1-7/classes/GeneralObservations/variables/--TPT", "title": "Planned Time Point Name", "type": "Class Variable"}, "parentDataset": {"href": "/mdr/sdtmig/3-3/datasets/OE", "title": "Ophthalmic Examinations", "type": "SDTM Dataset"}, "parentProduct": {"href": "/mdr/sdtmig/3-3", "title": "Study Data Tabulation Model Implementation Guide: Human Clinical Trials Version 3.3 (Final)", "type": "Implementation Guide"}, "rootItem": {"href": "/mdr/root/sdtmig/datasets/OE/variables/OETPT", "title": "Version-agnostic anchor resource for SDTMIG variable OE.OETPT", "type": "Root Data Element"}, "self": {"href": "/mdr/sdtmig/3-3/datasets/OE/variables/OETPT", "title": "Planned Time Point Name", "type": "SDTM Dataset Variable"}}, "core": "Perm", "description": "Text description of time when a measurement or observation should be taken as defined in the protocol. This may be represented as an elapsed time relative to a fixed reference point.", "label": "Planned Time Point Name", "name": "OETPT", "ordinal": "48", "role": "Timing", "simpleDatatype": "Char"}, {"_links": {"modelClassVariable": {"href": "/mdr/sdtm/1-7/classes/GeneralObservations/variables/--TPTNUM", "title": "Planned Time Point Number", "type": "Class Variable"}, "parentDataset": {"href": "/mdr/sdtmig/3-3/datasets/OE", "title": "Ophthalmic Examinations", "type": "SDTM Dataset"}, "parentProduct": {"href": "/mdr/sdtmig/3-3", "title": "Study Data Tabulation Model Implementation Guide: Human Clinical Trials Version 3.3 (Final)", "type": "Implementation Guide"}, "rootItem": {"href": "/mdr/root/sdtmig/datasets/OE/variables/OETPTNUM", "title": "Version-agnostic anchor resource for SDTMIG variable OE.OETPTNUM", "type": "Root Data Element"}, "self": {"href": "/mdr/sdtmig/3-3/datasets/OE/variables/OETPTNUM", "title": "Planned Time Point Number", "type": "SDTM Dataset Variable"}}, "core": "Perm", "description": "Numeric version of planned time point used in sorting.", "label": "Planned Time Point Number", "name": "OETPTNUM", "ordinal": "49", "role": "Timing", "simpleDatatype": "Num"}, {"_links": {"modelClassVariable": {"href": "/mdr/sdtm/1-7/classes/GeneralObservations/variables/--ELTM", "title": "Planned Elapsed Time from Time Point Ref", "type": "Class Variable"}, "parentDataset": {"href": "/mdr/sdtmig/3-3/datasets/OE", "title": "Ophthalmic Examinations", "type": "SDTM Dataset"}, "parentProduct": {"href": "/mdr/sdtmig/3-3", "title": "Study Data Tabulation Model Implementation Guide: Human Clinical Trials Version 3.3 (Final)", "type": "Implementation Guide"}, "rootItem": {"href": "/mdr/root/sdtmig/datasets/OE/variables/OEELTM", "title": "Version-agnostic anchor resource for SDTMIG variable OE.OEELTM", "type": "Root Data Element"}, "self": {"href": "/mdr/sdtmig/3-3/datasets/OE/variables/OEELTM", "title": "Planned Elapsed Time from Time Point Ref", "type": "SDTM Dataset Variable"}}, "core": "Perm", "describedValueDomain": "ISO 8601", "description": "Planned elapsed time relative to a planned fixed reference (OETPTREF) such as \"Previous Dose\" or \"Previous Meal\". This variable is useful where there are repetitive measures. Not a clock time or a date/time variable, but an interval, represented as ISO duration.", "label": "Planned Elapsed Time from Time Point Ref", "name": "OEELTM", "ordinal": "50", "role": "Timing", "simpleDatatype": "Char"}, {"_links": {"modelClassVariable": {"href": "/mdr/sdtm/1-7/classes/GeneralObservations/variables/--TPTREF", "title": "Time Point Reference", "type": "Class Variable"}, "parentDataset": {"href": "/mdr/sdtmig/3-3/datasets/OE", "title": "Ophthalmic Examinations", "type": "SDTM Dataset"}, "parentProduct": {"href": "/mdr/sdtmig/3-3", "title": "Study Data Tabulation Model Implementation Guide: Human Clinical Trials Version 3.3 (Final)", "type": "Implementation Guide"}, "rootItem": {"href": "/mdr/root/sdtmig/datasets/OE/variables/OETPTREF", "title": "Version-agnostic anchor resource for SDTMIG variable OE.OETPTREF", "type": "Root Data Element"}, "self": {"href": "/mdr/sdtmig/3-3/datasets/OE/variables/OETPTREF", "title": "Time Point Reference", "type": "SDTM Dataset Variable"}}, "core": "Perm", "description": "Description of the fixed reference point referred to by OETPT, OETPTNUM, and OEELTM.", "label": "Time Point Reference", "name": "OETPTREF", "ordinal": "51", "role": "Timing", "simpleDatatype": "Char"}, {"_links": {"modelClassVariable": {"href": "/mdr/sdtm/1-7/classes/GeneralObservations/variables/--RFTDTC", "title": "Date/Time of Reference Time Point", "type": "Class Variable"}, "parentDataset": {"href": "/mdr/sdtmig/3-3/datasets/OE", "title": "Ophthalmic Examinations", "type": "SDTM Dataset"}, "parentProduct": {"href": "/mdr/sdtmig/3-3", "title": "Study Data Tabulation Model Implementation Guide: Human Clinical Trials Version 3.3 (Final)", "type": "Implementation Guide"}, "rootItem": {"href": "/mdr/root/sdtmig/datasets/OE/variables/OERFTDTC", "title": "Version-agnostic anchor resource for SDTMIG variable OE.OERFTDTC", "type": "Root Data Element"}, "self": {"href": "/mdr/sdtmig/3-3/datasets/OE/variables/OERFTDTC", "title": "Date/Time of Reference Time Point", "type": "SDTM Dataset Variable"}}, "core": "Perm", "describedValueDomain": "ISO 8601", "description": "Date/time of the reference time point, OETPTREF.", "label": "Date/Time of Reference Time Point", "name": "OERFTDTC", "ordinal": "52", "role": "Timing", "simpleDatatype": "Char"}], "description": "A findings domain that contains tests that measure a person's ocular health and visual status, to detect abnormalities in the components of the visual system, and to determine how well the person can see. (Source: CDISC Controlled Terminology, DOMAIN, C147180, 2018-06-29)", "label": "Ophthalmic Examinations", "name": "OE", "ordinal": "32"}
