{"_links": {"parentClass": {"href": "/mdr/sdtmig/3-3/classes/Findings", "title": "Findings Observation Class", "type": "Class"}, "parentProduct": {"href": "/mdr/sdtmig/3-3", "title": "Study Data Tabulation Model Implementation Guide: Human Clinical Trials Version 3.3 (Final)", "type": "Implementation Guide"}, "self": {"href": "/mdr/sdtmig/3-3/datasets/RE", "title": "Respiratory System Findings", "type": "SDTM Dataset"}}, "datasetStructure": "One record per finding or result per time point per visit per subject", "datasetVariables": [{"_links": {"modelClassVariable": {"href": "/mdr/sdtm/1-7/classes/GeneralObservations/variables/STUDYID", "title": "Study Identifier", "type": "Class Variable"}, "parentDataset": {"href": "/mdr/sdtmig/3-3/datasets/RE", "title": "Respiratory System Findings", "type": "SDTM Dataset"}, "parentProduct": {"href": "/mdr/sdtmig/3-3", "title": "Study Data Tabulation Model Implementation Guide: Human Clinical Trials Version 3.3 (Final)", "type": "Implementation Guide"}, "rootItem": {"href": "/mdr/root/sdtmig/datasets/RE/variables/STUDYID", "title": "Version-agnostic anchor resource for SDTMIG variable RE.STUDYID", "type": "Root Data Element"}, "self": {"href": "/mdr/sdtmig/3-3/datasets/RE/variables/STUDYID", "title": "Study Identifier", "type": "SDTM Dataset Variable"}}, "core": "Req", "description": "Unique identifier for a study.", "label": "Study Identifier", "name": "STUDYID", "ordinal": "1", "role": "Identifier", "simpleDatatype": "Char"}, {"_links": {"modelClassVariable": {"href": "/mdr/sdtm/1-7/classes/GeneralObservations/variables/DOMAIN", "title": "Domain Abbreviation", "type": "Class Variable"}, "parentDataset": {"href": "/mdr/sdtmig/3-3/datasets/RE", "title": "Respiratory System Findings", "type": "SDTM Dataset"}, "parentProduct": {"href": "/mdr/sdtmig/3-3", "title": "Study Data Tabulation Model Implementation Guide: Human Clinical Trials Version 3.3 (Final)", "type": "Implementation Guide"}, "rootItem": {"href": "/mdr/root/sdtmig/datasets/RE/variables/DOMAIN", "title": "Version-agnostic anchor resource for SDTMIG variable RE.DOMAIN", "type": "Root Data Element"}, "self": {"href": "/mdr/sdtmig/3-3/datasets/RE/variables/DOMAIN", "title": "Domain Abbreviation", "type": "SDTM Dataset Variable"}}, "core": "Req", "description": "Two-character abbreviation for the domain.", "label": "Domain Abbreviation", "name": "DOMAIN", "ordinal": "2", "role": "Identifier", "simpleDatatype": "Char", "valueList": ["RE"]}, {"_links": {"modelClassVariable": {"href": "/mdr/sdtm/1-7/classes/GeneralObservations/variables/USUBJID", "title": "Unique Subject Identifier", "type": "Class Variable"}, "parentDataset": {"href": "/mdr/sdtmig/3-3/datasets/RE", "title": "Respiratory System Findings", "type": "SDTM Dataset"}, "parentProduct": {"href": "/mdr/sdtmig/3-3", "title": "Study Data Tabulation Model Implementation Guide: Human Clinical Trials Version 3.3 (Final)", "type": "Implementation Guide"}, "rootItem": {"href": "/mdr/root/sdtmig/datasets/RE/variables/USUBJID", "title": "Version-agnostic anchor resource for SDTMIG variable RE.USUBJID", "type": "Root Data Element"}, "self": {"href": "/mdr/sdtmig/3-3/datasets/RE/variables/USUBJID", "title": "Unique Subject Identifier", "type": "SDTM Dataset Variable"}}, "core": "Req", "description": "Identifier used to uniquely identify a subject across all studies for all applications or submissions involving the product.", "label": "Unique Subject Identifier", "name": "USUBJID", "ordinal": "3", "role": "Identifier", "simpleDatatype": "Char"}, {"_links": {"modelClassVariable": {"href": "/mdr/sdtm/1-7/classes/GeneralObservations/variables/SPDEVID", "title": "Sponsor Device Identifier", "type": "Class Variable"}, "parentDataset": {"href": "/mdr/sdtmig/3-3/datasets/RE", "title": "Respiratory System Findings", "type": "SDTM Dataset"}, "parentProduct": {"href": "/mdr/sdtmig/3-3", "title": "Study Data Tabulation Model Implementation Guide: Human Clinical Trials Version 3.3 (Final)", "type": "Implementation Guide"}, "rootItem": {"href": "/mdr/root/sdtmig/datasets/RE/variables/SPDEVID", "title": "Version-agnostic anchor resource for SDTMIG variable RE.SPDEVID", "type": "Root Data Element"}, "self": {"href": "/mdr/sdtmig/3-3/datasets/RE/variables/SPDEVID", "title": "Sponsor Device Identifier", "type": "SDTM Dataset Variable"}}, "core": "Perm", "description": "Sponsor-defined identifier for a device.", "label": "Sponsor Device Identifier", "name": "SPDEVID", "ordinal": "4", "role": "Identifier", "simpleDatatype": "Char"}, {"_links": {"modelClassVariable": {"href": "/mdr/sdtm/1-7/classes/GeneralObservations/variables/--SEQ", "title": "Sequence Number", "type": "Class Variable"}, "parentDataset": {"href": "/mdr/sdtmig/3-3/datasets/RE", "title": "Respiratory System Findings", "type": "SDTM Dataset"}, "parentProduct": {"href": "/mdr/sdtmig/3-3", "title": "Study Data Tabulation Model Implementation Guide: Human Clinical Trials Version 3.3 (Final)", "type": "Implementation Guide"}, "rootItem": {"href": "/mdr/root/sdtmig/datasets/RE/variables/RESEQ", "title": "Version-agnostic anchor resource for SDTMIG variable RE.RESEQ", "type": "Root Data Element"}, "self": {"href": "/mdr/sdtmig/3-3/datasets/RE/variables/RESEQ", "title": "Sequence Number", "type": "SDTM Dataset Variable"}}, "core": "Req", "description": "Sequence number to ensure uniqueness of records within a dataset for a subject. May be any valid number (including decimals) and does not have to start at 1.", "label": "Sequence Number", "name": "RESEQ", "ordinal": "5", "role": "Identifier", "simpleDatatype": "Num"}, {"_links": {"modelClassVariable": {"href": "/mdr/sdtm/1-7/classes/GeneralObservations/variables/--GRPID", "title": "Group ID", "type": "Class Variable"}, "parentDataset": {"href": "/mdr/sdtmig/3-3/datasets/RE", "title": "Respiratory System Findings", "type": "SDTM Dataset"}, "parentProduct": {"href": "/mdr/sdtmig/3-3", "title": "Study Data Tabulation Model Implementation Guide: Human Clinical Trials Version 3.3 (Final)", "type": "Implementation Guide"}, "rootItem": {"href": "/mdr/root/sdtmig/datasets/RE/variables/REGRPID", "title": "Version-agnostic anchor resource for SDTMIG variable RE.REGRPID", "type": "Root Data Element"}, "self": {"href": "/mdr/sdtmig/3-3/datasets/RE/variables/REGRPID", "title": "Group ID", "type": "SDTM Dataset Variable"}}, "core": "Perm", "description": "Optional group identifier, used to link together a block of related records within a subject in a domain.", "label": "Group ID", "name": "REGRPID", "ordinal": "6", "role": "Identifier", "simpleDatatype": "Char"}, {"_links": {"modelClassVariable": {"href": "/mdr/sdtm/1-7/classes/GeneralObservations/variables/--REFID", "title": "Reference ID", "type": "Class Variable"}, "parentDataset": {"href": "/mdr/sdtmig/3-3/datasets/RE", "title": "Respiratory System Findings", "type": "SDTM Dataset"}, "parentProduct": {"href": "/mdr/sdtmig/3-3", "title": "Study Data Tabulation Model Implementation Guide: Human Clinical Trials Version 3.3 (Final)", "type": "Implementation Guide"}, "rootItem": {"href": "/mdr/root/sdtmig/datasets/RE/variables/REREFID", "title": "Version-agnostic anchor resource for SDTMIG variable RE.REREFID", "type": "Root Data Element"}, "self": {"href": "/mdr/sdtmig/3-3/datasets/RE/variables/REREFID", "title": "Reference ID", "type": "SDTM Dataset Variable"}}, "core": "Perm", "description": "Optional internal or external procedure identifier.", "label": "Reference ID", "name": "REREFID", "ordinal": "7", "role": "Identifier", "simpleDatatype": "Char"}, {"_links": {"modelClassVariable": {"href": "/mdr/sdtm/1-7/classes/GeneralObservations/variables/--SPID", "title": "Sponsor-Defined Identifier", "type": "Class Variable"}, "parentDataset": {"href": "/mdr/sdtmig/3-3/datasets/RE", "title": "Respiratory System Findings", "type": "SDTM Dataset"}, "parentProduct": {"href": "/mdr/sdtmig/3-3", "title": "Study Data Tabulation Model Implementation Guide: Human Clinical Trials Version 3.3 (Final)", "type": "Implementation Guide"}, "rootItem": {"href": "/mdr/root/sdtmig/datasets/RE/variables/RESPID", "title": "Version-agnostic anchor resource for SDTMIG variable RE.RESPID", "type": "Root Data Element"}, "self": {"href": "/mdr/sdtmig/3-3/datasets/RE/variables/RESPID", "title": "Sponsor-Defined Identifier", "type": "SDTM Dataset Variable"}}, "core": "Perm", "description": "Sponsor-defined identifier. Perhaps preprinted on the CRF as an explicit line identifier or defined in the sponsor's operational database.", "label": "Sponsor-Defined Identifier", "name": "RESPID", "ordinal": "8", "role": "Identifier", "simpleDatatype": "Char"}, {"_links": {"modelClassVariable": {"href": "/mdr/sdtm/1-7/classes/GeneralObservations/variables/--LNKID", "title": "Link ID", "type": "Class Variable"}, "parentDataset": {"href": "/mdr/sdtmig/3-3/datasets/RE", "title": "Respiratory System Findings", "type": "SDTM Dataset"}, "parentProduct": {"href": "/mdr/sdtmig/3-3", "title": "Study Data Tabulation Model Implementation Guide: Human Clinical Trials Version 3.3 (Final)", "type": "Implementation Guide"}, "rootItem": {"href": "/mdr/root/sdtmig/datasets/RE/variables/RELNKID", "title": "Version-agnostic anchor resource for SDTMIG variable RE.RELNKID", "type": "Root Data Element"}, "self": {"href": "/mdr/sdtmig/3-3/datasets/RE/variables/RELNKID", "title": "Link ID", "type": "SDTM Dataset Variable"}}, "core": "Perm", "description": "Identifier used to link related records across domains. This may be a one-to-one or a one-to-many relationship.", "label": "Link ID", "name": "RELNKID", "ordinal": "9", "role": "Identifier", "simpleDatatype": "Char"}, {"_links": {"modelClassVariable": {"href": "/mdr/sdtm/1-7/classes/GeneralObservations/variables/--LNKGRP", "title": "Link Group ID", "type": "Class Variable"}, "parentDataset": {"href": "/mdr/sdtmig/3-3/datasets/RE", "title": "Respiratory System Findings", "type": "SDTM Dataset"}, "parentProduct": {"href": "/mdr/sdtmig/3-3", "title": "Study Data Tabulation Model Implementation Guide: Human Clinical Trials Version 3.3 (Final)", "type": "Implementation Guide"}, "rootItem": {"href": "/mdr/root/sdtmig/datasets/RE/variables/RELNKGRP", "title": "Version-agnostic anchor resource for SDTMIG variable RE.RELNKGRP", "type": "Root Data Element"}, "self": {"href": "/mdr/sdtmig/3-3/datasets/RE/variables/RELNKGRP", "title": "Link Group", "type": "SDTM Dataset Variable"}}, "core": "Perm", "description": "Identifier used to link related records across domains. This will usually be a many-to-one relationship.", "label": "Link Group", "name": "RELNKGRP", "ordinal": "10", "role": "Identifier", "simpleDatatype": "Char"}, {"_links": {"codelist": [{"href": "/mdr/root/ct/sdtmct/codelists/C111106", "title": "Version-agnostic anchor resource for codelist C111106", "type": "Root Value Domain"}], "modelClassVariable": {"href": "/mdr/sdtm/1-7/classes/Findings/variables/--TESTCD", "title": "Short Name of Measurement, Test, or Exam", "type": "Class Variable"}, "parentDataset": {"href": "/mdr/sdtmig/3-3/datasets/RE", "title": "Respiratory System Findings", "type": "SDTM Dataset"}, "parentProduct": {"href": "/mdr/sdtmig/3-3", "title": "Study Data Tabulation Model Implementation Guide: Human Clinical Trials Version 3.3 (Final)", "type": "Implementation Guide"}, "rootItem": {"href": "/mdr/root/sdtmig/datasets/RE/variables/RETESTCD", "title": "Version-agnostic anchor resource for SDTMIG variable RE.RETESTCD", "type": "Root Data Element"}, "self": {"href": "/mdr/sdtmig/3-3/datasets/RE/variables/RETESTCD", "title": "Short Name of Respiratory Test", "type": "SDTM Dataset Variable"}}, "core": "Req", "description": "Short name of the measurement, test, or examination. It can be used as a column name when converting a dataset from a vertical format to a horizontal format. The value in RETESTCD cannot be longer than 8 characters, nor can it start with a number (e.g., \"1TEST\" is not valid). RETESTCD cannot contain characters other than letters, numbers, or underscores. Examples: \"FEV1\", \"FVC\".", "label": "Short Name of Respiratory Test", "name": "RETESTCD", "ordinal": "11", "role": "Topic", "simpleDatatype": "Char"}, {"_links": {"codelist": [{"href": "/mdr/root/ct/sdtmct/codelists/C111107", "title": "Version-agnostic anchor resource for codelist C111107", "type": "Root Value Domain"}], "modelClassVariable": {"href": "/mdr/sdtm/1-7/classes/Findings/variables/--TEST", "title": "Name of Measurement, Test, or Exam", "type": "Class Variable"}, "parentDataset": {"href": "/mdr/sdtmig/3-3/datasets/RE", "title": "Respiratory System Findings", "type": "SDTM Dataset"}, "parentProduct": {"href": "/mdr/sdtmig/3-3", "title": "Study Data Tabulation Model Implementation Guide: Human Clinical Trials Version 3.3 (Final)", "type": "Implementation Guide"}, "rootItem": {"href": "/mdr/root/sdtmig/datasets/RE/variables/RETEST", "title": "Version-agnostic anchor resource for SDTMIG variable RE.RETEST", "type": "Root Data Element"}, "self": {"href": "/mdr/sdtmig/3-3/datasets/RE/variables/RETEST", "title": "Name of Respiratory Test", "type": "SDTM Dataset Variable"}}, "core": "Req", "description": "Verbatim name of the test or examination used to obtain the measurement or finding. The value in RETEST cannot be longer than 40 characters. Examples: \"Forced Expiratory Volume in 1 Second\", \"Forced Vital Capacity\".", "label": "Name of Respiratory Test", "name": "RETEST", "ordinal": "12", "role": "Synonym Qualifier", "simpleDatatype": "Char"}, {"_links": {"modelClassVariable": {"href": "/mdr/sdtm/1-7/classes/Findings/variables/--CAT", "title": "Category", "type": "Class Variable"}, "parentDataset": {"href": "/mdr/sdtmig/3-3/datasets/RE", "title": "Respiratory System Findings", "type": "SDTM Dataset"}, "parentProduct": {"href": "/mdr/sdtmig/3-3", "title": "Study Data Tabulation Model Implementation Guide: Human Clinical Trials Version 3.3 (Final)", "type": "Implementation Guide"}, "rootItem": {"href": "/mdr/root/sdtmig/datasets/RE/variables/RECAT", "title": "Version-agnostic anchor resource for SDTMIG variable RE.RECAT", "type": "Root Data Element"}, "self": {"href": "/mdr/sdtmig/3-3/datasets/RE/variables/RECAT", "title": "Category for Respiratory Test", "type": "SDTM Dataset Variable"}}, "core": "Perm", "description": "Used to categorize observations across subjects.", "label": "Category for Respiratory Test", "name": "RECAT", "ordinal": "13", "role": "Grouping Qualifier", "simpleDatatype": "Char"}, {"_links": {"modelClassVariable": {"href": "/mdr/sdtm/1-7/classes/Findings/variables/--SCAT", "title": "Subcategory", "type": "Class Variable"}, "parentDataset": {"href": "/mdr/sdtmig/3-3/datasets/RE", "title": "Respiratory System Findings", "type": "SDTM Dataset"}, "parentProduct": {"href": "/mdr/sdtmig/3-3", "title": "Study Data Tabulation Model Implementation Guide: Human Clinical Trials Version 3.3 (Final)", "type": "Implementation Guide"}, "rootItem": {"href": "/mdr/root/sdtmig/datasets/RE/variables/RESCAT", "title": "Version-agnostic anchor resource for SDTMIG variable RE.RESCAT", "type": "Root Data Element"}, "self": {"href": "/mdr/sdtmig/3-3/datasets/RE/variables/RESCAT", "title": "Subcategory for Respiratory Test", "type": "SDTM Dataset Variable"}}, "core": "Perm", "description": "A further categorization.", "label": "Subcategory for Respiratory Test", "name": "RESCAT", "ordinal": "14", "role": "Grouping Qualifier", "simpleDatatype": "Char"}, {"_links": {"codelist": [{"href": "/mdr/root/ct/sdtmct/codelists/C71148", "title": "Version-agnostic anchor resource for codelist C71148", "type": "Root Value Domain"}], "modelClassVariable": {"href": "/mdr/sdtm/1-7/classes/Findings/variables/--POS", "title": "Position of Subject During Observation", "type": "Class Variable"}, "parentDataset": {"href": "/mdr/sdtmig/3-3/datasets/RE", "title": "Respiratory System Findings", "type": "SDTM Dataset"}, "parentProduct": {"href": "/mdr/sdtmig/3-3", "title": "Study Data Tabulation Model Implementation Guide: Human Clinical Trials Version 3.3 (Final)", "type": "Implementation Guide"}, "rootItem": {"href": "/mdr/root/sdtmig/datasets/RE/variables/REPOS", "title": "Version-agnostic anchor resource for SDTMIG variable RE.REPOS", "type": "Root Data Element"}, "self": {"href": "/mdr/sdtmig/3-3/datasets/RE/variables/REPOS", "title": "Position of Subject During Observation", "type": "SDTM Dataset Variable"}}, "core": "Perm", "description": "Position of the subject during a measurement or examination. Examples: \"SUPINE\", \"STANDING\", \"SITTING\".", "label": "Position of Subject During Observation", "name": "REPOS", "ordinal": "15", "role": "Record Qualifier", "simpleDatatype": "Char"}, {"_links": {"modelClassVariable": {"href": "/mdr/sdtm/1-7/classes/Findings/variables/--ORRES", "title": "Result or Finding in Original Units", "type": "Class Variable"}, "parentDataset": {"href": "/mdr/sdtmig/3-3/datasets/RE", "title": "Respiratory System Findings", "type": "SDTM Dataset"}, "parentProduct": {"href": "/mdr/sdtmig/3-3", "title": "Study Data Tabulation Model Implementation Guide: Human Clinical Trials Version 3.3 (Final)", "type": "Implementation Guide"}, "rootItem": {"href": "/mdr/root/sdtmig/datasets/RE/variables/REORRES", "title": "Version-agnostic anchor resource for SDTMIG variable RE.REORRES", "type": "Root Data Element"}, "self": {"href": "/mdr/sdtmig/3-3/datasets/RE/variables/REORRES", "title": "Result or Finding in Original Units", "type": "SDTM Dataset Variable"}}, "core": "Exp", "description": "Result of the procedure measurement or finding as originally received or collected.", "label": "Result or Finding in Original Units", "name": "REORRES", "ordinal": "16", "role": "Result Qualifier", "simpleDatatype": "Char"}, {"_links": {"codelist": [{"href": "/mdr/root/ct/sdtmct/codelists/C71620", "title": "Version-agnostic anchor resource for codelist C71620", "type": "Root Value Domain"}], "modelClassVariable": {"href": "/mdr/sdtm/1-7/classes/Findings/variables/--ORRESU", "title": "Original Units", "type": "Class Variable"}, "parentDataset": {"href": "/mdr/sdtmig/3-3/datasets/RE", "title": "Respiratory System Findings", "type": "SDTM Dataset"}, "parentProduct": {"href": "/mdr/sdtmig/3-3", "title": "Study Data Tabulation Model Implementation Guide: Human Clinical Trials Version 3.3 (Final)", "type": "Implementation Guide"}, "rootItem": {"href": "/mdr/root/sdtmig/datasets/RE/variables/REORRESU", "title": "Version-agnostic anchor resource for SDTMIG variable RE.REORRESU", "type": "Root Data Element"}, "self": {"href": "/mdr/sdtmig/3-3/datasets/RE/variables/REORRESU", "title": "Original Units", "type": "SDTM Dataset Variable"}}, "core": "Perm", "description": "Original units in which the data were collected. The unit for REORRES and REORREF.", "label": "Original Units", "name": "REORRESU", "ordinal": "17", "role": "Variable Qualifier", "simpleDatatype": "Char"}, {"_links": {"modelClassVariable": {"href": "/mdr/sdtm/1-7/classes/Findings/variables/--ORREF", "title": "Reference Result in Original Units", "type": "Class Variable"}, "parentDataset": {"href": "/mdr/sdtmig/3-3/datasets/RE", "title": "Respiratory System Findings", "type": "SDTM Dataset"}, "parentProduct": {"href": "/mdr/sdtmig/3-3", "title": "Study Data Tabulation Model Implementation Guide: Human Clinical Trials Version 3.3 (Final)", "type": "Implementation Guide"}, "rootItem": {"href": "/mdr/root/sdtmig/datasets/RE/variables/REORREF", "title": "Version-agnostic anchor resource for SDTMIG variable RE.REORREF", "type": "Root Data Element"}, "self": {"href": "/mdr/sdtmig/3-3/datasets/RE/variables/REORREF", "title": "Reference Result in Original Units", "type": "SDTM Dataset Variable"}}, "core": "Perm", "description": "Reference result for continuous measurements in original units. Should be collected only for continuous results.", "label": "Reference Result in Original Units", "name": "REORREF", "ordinal": "18", "role": "Variable Qualifier", "simpleDatatype": "Char"}, {"_links": {"modelClassVariable": {"href": "/mdr/sdtm/1-7/classes/Findings/variables/--STRESC", "title": "Result or Finding in Standard Format", "type": "Class Variable"}, "parentDataset": {"href": "/mdr/sdtmig/3-3/datasets/RE", "title": "Respiratory System Findings", "type": "SDTM Dataset"}, "parentProduct": {"href": "/mdr/sdtmig/3-3", "title": "Study Data Tabulation Model Implementation Guide: Human Clinical Trials Version 3.3 (Final)", "type": "Implementation Guide"}, "rootItem": {"href": "/mdr/root/sdtmig/datasets/RE/variables/RESTRESC", "title": "Version-agnostic anchor resource for SDTMIG variable RE.RESTRESC", "type": "Root Data Element"}, "self": {"href": "/mdr/sdtmig/3-3/datasets/RE/variables/RESTRESC", "title": "Character Result/Finding in Std Format", "type": "SDTM Dataset Variable"}}, "core": "Exp", "description": "Contains the result value for all findings, copied or derived from REORRES in a standard format or in standard units. RESTRESC should store all results or findings in character format; if results are numeric, they should also be stored in numeric format in RESTRESN.", "label": "Character Result/Finding in Std Format", "name": "RESTRESC", "ordinal": "19", "role": "Result Qualifier", "simpleDatatype": "Char"}, {"_links": {"modelClassVariable": {"href": "/mdr/sdtm/1-7/classes/Findings/variables/--STRESN", "title": "Numeric Result/Finding in Standard Units", "type": "Class Variable"}, "parentDataset": {"href": "/mdr/sdtmig/3-3/datasets/RE", "title": "Respiratory System Findings", "type": "SDTM Dataset"}, "parentProduct": {"href": "/mdr/sdtmig/3-3", "title": "Study Data Tabulation Model Implementation Guide: Human Clinical Trials Version 3.3 (Final)", "type": "Implementation Guide"}, "rootItem": {"href": "/mdr/root/sdtmig/datasets/RE/variables/RESTRESN", "title": "Version-agnostic anchor resource for SDTMIG variable RE.RESTRESN", "type": "Root Data Element"}, "self": {"href": "/mdr/sdtmig/3-3/datasets/RE/variables/RESTRESN", "title": "Numeric Result/Finding in Standard Units", "type": "SDTM Dataset Variable"}}, "core": "Perm", "description": "Used for continuous or numeric results or findings in standard format; copied in numeric format from RESTRESC. RESTRESN should store all numeric test results or findings.", "label": "Numeric Result/Finding in Standard Units", "name": "RESTRESN", "ordinal": "20", "role": "Result Qualifier", "simpleDatatype": "Num"}, {"_links": {"codelist": [{"href": "/mdr/root/ct/sdtmct/codelists/C71620", "title": "Version-agnostic anchor resource for codelist C71620", "type": "Root Value Domain"}], "modelClassVariable": {"href": "/mdr/sdtm/1-7/classes/Findings/variables/--STRESU", "title": "Standard Units", "type": "Class Variable"}, "parentDataset": {"href": "/mdr/sdtmig/3-3/datasets/RE", "title": "Respiratory System Findings", "type": "SDTM Dataset"}, "parentProduct": {"href": "/mdr/sdtmig/3-3", "title": "Study Data Tabulation Model Implementation Guide: Human Clinical Trials Version 3.3 (Final)", "type": "Implementation Guide"}, "rootItem": {"href": "/mdr/root/sdtmig/datasets/RE/variables/RESTRESU", "title": "Version-agnostic anchor resource for SDTMIG variable RE.RESTRESU", "type": "Root Data Element"}, "self": {"href": "/mdr/sdtmig/3-3/datasets/RE/variables/RESTRESU", "title": "Standard Units", "type": "SDTM Dataset Variable"}}, "core": "Perm", "description": "Standardized unit used for RESTRESC, RESTRESN and RESTREFN.", "label": "Standard Units", "name": "RESTRESU", "ordinal": "21", "role": "Variable Qualifier", "simpleDatatype": "Char"}, {"_links": {"modelClassVariable": {"href": "/mdr/sdtm/1-7/classes/Findings/variables/--STREFC", "title": "Reference Result in Standard Format", "type": "Class Variable"}, "parentDataset": {"href": "/mdr/sdtmig/3-3/datasets/RE", "title": "Respiratory System Findings", "type": "SDTM Dataset"}, "parentProduct": {"href": "/mdr/sdtmig/3-3", "title": "Study Data Tabulation Model Implementation Guide: Human Clinical Trials Version 3.3 (Final)", "type": "Implementation Guide"}, "rootItem": {"href": "/mdr/root/sdtmig/datasets/RE/variables/RESTREFC", "title": "Version-agnostic anchor resource for SDTMIG variable RE.RESTREFC", "type": "Root Data Element"}, "self": {"href": "/mdr/sdtmig/3-3/datasets/RE/variables/RESTREFC", "title": "Character Reference Result", "type": "SDTM Dataset Variable"}}, "core": "Perm", "description": "Reference value for the result or finding copied or derived from --ORREF in a standard format.", "label": "Character Reference Result", "name": "RESTREFC", "ordinal": "22", "role": "Variable Qualifier", "simpleDatatype": "Char"}, {"_links": {"modelClassVariable": {"href": "/mdr/sdtm/1-7/classes/Findings/variables/--STREFN", "title": "Numeric Reference Result in Std Units", "type": "Class Variable"}, "parentDataset": {"href": "/mdr/sdtmig/3-3/datasets/RE", "title": "Respiratory System Findings", "type": "SDTM Dataset"}, "parentProduct": {"href": "/mdr/sdtmig/3-3", "title": "Study Data Tabulation Model Implementation Guide: Human Clinical Trials Version 3.3 (Final)", "type": "Implementation Guide"}, "rootItem": {"href": "/mdr/root/sdtmig/datasets/RE/variables/RESTREFN", "title": "Version-agnostic anchor resource for SDTMIG variable RE.RESTREFN", "type": "Root Data Element"}, "self": {"href": "/mdr/sdtmig/3-3/datasets/RE/variables/RESTREFN", "title": "Numeric Reference Result in Std Units", "type": "SDTM Dataset Variable"}}, "core": "Perm", "description": "Reference result for continuous measurements in standard units. Should be populated only for continuous results.", "label": "Numeric Reference Result in Std Units", "name": "RESTREFN", "ordinal": "23", "role": "Variable Qualifier", "simpleDatatype": "Num"}, {"_links": {"codelist": [{"href": "/mdr/root/ct/sdtmct/codelists/C66789", "title": "Version-agnostic anchor resource for codelist C66789", "type": "Root Value Domain"}], "modelClassVariable": {"href": "/mdr/sdtm/1-7/classes/Findings/variables/--STAT", "title": "Completion Status", "type": "Class Variable"}, "parentDataset": {"href": "/mdr/sdtmig/3-3/datasets/RE", "title": "Respiratory System Findings", "type": "SDTM Dataset"}, "parentProduct": {"href": "/mdr/sdtmig/3-3", "title": "Study Data Tabulation Model Implementation Guide: Human Clinical Trials Version 3.3 (Final)", "type": "Implementation Guide"}, "rootItem": {"href": "/mdr/root/sdtmig/datasets/RE/variables/RESTAT", "title": "Version-agnostic anchor resource for SDTMIG variable RE.RESTAT", "type": "Root Data Element"}, "self": {"href": "/mdr/sdtmig/3-3/datasets/RE/variables/RESTAT", "title": "Completion Status", "type": "SDTM Dataset Variable"}}, "core": "Perm", "description": "Used to indicate that a test was not done or a measurement was not taken. Should be null if a result exists in REORRES.", "label": "Completion Status", "name": "RESTAT", "ordinal": "24", "role": "Record Qualifier", "simpleDatatype": "Char"}, {"_links": {"modelClassVariable": {"href": "/mdr/sdtm/1-7/classes/Findings/variables/--REASND", "title": "Reason Not Done", "type": "Class Variable"}, "parentDataset": {"href": "/mdr/sdtmig/3-3/datasets/RE", "title": "Respiratory System Findings", "type": "SDTM Dataset"}, "parentProduct": {"href": "/mdr/sdtmig/3-3", "title": "Study Data Tabulation Model Implementation Guide: Human Clinical Trials Version 3.3 (Final)", "type": "Implementation Guide"}, "rootItem": {"href": "/mdr/root/sdtmig/datasets/RE/variables/REREASND", "title": "Version-agnostic anchor resource for SDTMIG variable RE.REREASND", "type": "Root Data Element"}, "self": {"href": "/mdr/sdtmig/3-3/datasets/RE/variables/REREASND", "title": "Reason Not Done", "type": "SDTM Dataset Variable"}}, "core": "Perm", "description": "Describes why a measurement or test was not performed. Examples: \"BROKEN EQUIPMENT\", \"SUBJECT REFUSED\". Used in conjunction with RESTAT when value is \"NOT DONE\".", "label": "Reason Not Done", "name": "REREASND", "ordinal": "25", "role": "Record Qualifier", "simpleDatatype": "Char"}, {"_links": {"codelist": [{"href": "/mdr/root/ct/sdtmct/codelists/C74456", "title": "Version-agnostic anchor resource for codelist C74456", "type": "Root Value Domain"}], "modelClassVariable": {"href": "/mdr/sdtm/1-7/classes/Findings/variables/--LOC", "title": "Location Used for the Measurement", "type": "Class Variable"}, "parentDataset": {"href": "/mdr/sdtmig/3-3/datasets/RE", "title": "Respiratory System Findings", "type": "SDTM Dataset"}, "parentProduct": {"href": "/mdr/sdtmig/3-3", "title": "Study Data Tabulation Model Implementation Guide: Human Clinical Trials Version 3.3 (Final)", "type": "Implementation Guide"}, "rootItem": {"href": "/mdr/root/sdtmig/datasets/RE/variables/RELOC", "title": "Version-agnostic anchor resource for SDTMIG variable RE.RELOC", "type": "Root Data Element"}, "self": {"href": "/mdr/sdtmig/3-3/datasets/RE/variables/RELOC", "title": "Location Used for the Measurement", "type": "SDTM Dataset Variable"}}, "core": "Perm", "description": "Anatomical location of the subject relevant to the collection of the measurement. Examples: \"LUNG\", \"BRONCHUS\".", "label": "Location Used for the Measurement", "name": "RELOC", "ordinal": "26", "role": "Record Qualifier", "simpleDatatype": "Char"}, {"_links": {"codelist": [{"href": "/mdr/root/ct/sdtmct/codelists/C99073", "title": "Version-agnostic anchor resource for codelist C99073", "type": "Root Value Domain"}], "modelClassVariable": {"href": "/mdr/sdtm/1-7/classes/Findings/variables/--LAT", "title": "Laterality", "type": "Class Variable"}, "parentDataset": {"href": "/mdr/sdtmig/3-3/datasets/RE", "title": "Respiratory System Findings", "type": "SDTM Dataset"}, "parentProduct": {"href": "/mdr/sdtmig/3-3", "title": "Study Data Tabulation Model Implementation Guide: Human Clinical Trials Version 3.3 (Final)", "type": "Implementation Guide"}, "rootItem": {"href": "/mdr/root/sdtmig/datasets/RE/variables/RELAT", "title": "Version-agnostic anchor resource for SDTMIG variable RE.RELAT", "type": "Root Data Element"}, "self": {"href": "/mdr/sdtmig/3-3/datasets/RE/variables/RELAT", "title": "Laterality", "type": "SDTM Dataset Variable"}}, "core": "Perm", "description": "Side of the body used to collect measurement. Examples: \"RIGHT\", \"LEFT\".", "label": "Laterality", "name": "RELAT", "ordinal": "27", "role": "Variable Qualifier", "simpleDatatype": "Char"}, {"_links": {"codelist": [{"href": "/mdr/root/ct/sdtmct/codelists/C99074", "title": "Version-agnostic anchor resource for codelist C99074", "type": "Root Value Domain"}], "modelClassVariable": {"href": "/mdr/sdtm/1-7/classes/Findings/variables/--DIR", "title": "Directionality", "type": "Class Variable"}, "parentDataset": {"href": "/mdr/sdtmig/3-3/datasets/RE", "title": "Respiratory System Findings", "type": "SDTM Dataset"}, "parentProduct": {"href": "/mdr/sdtmig/3-3", "title": "Study Data Tabulation Model Implementation Guide: Human Clinical Trials Version 3.3 (Final)", "type": "Implementation Guide"}, "rootItem": {"href": "/mdr/root/sdtmig/datasets/RE/variables/REDIR", "title": "Version-agnostic anchor resource for SDTMIG variable RE.REDIR", "type": "Root Data Element"}, "self": {"href": "/mdr/sdtmig/3-3/datasets/RE/variables/REDIR", "title": "Directionality", "type": "SDTM Dataset Variable"}}, "core": "Perm", "description": "Qualifier for anatomical location or specimen further detailing directionality. Examples: \"ANTERIOR\", \"LOWER\", \"PROXIMAL\".", "label": "Directionality", "name": "REDIR", "ordinal": "28", "role": "Variable Qualifier", "simpleDatatype": "Char"}, {"_links": {"codelist": [{"href": "/mdr/root/ct/sdtmct/codelists/C85492", "title": "Version-agnostic anchor resource for codelist C85492", "type": "Root Value Domain"}], "modelClassVariable": {"href": "/mdr/sdtm/1-7/classes/Findings/variables/--METHOD", "title": "Method of Test or Examination", "type": "Class Variable"}, "parentDataset": {"href": "/mdr/sdtmig/3-3/datasets/RE", "title": "Respiratory System Findings", "type": "SDTM Dataset"}, "parentProduct": {"href": "/mdr/sdtmig/3-3", "title": "Study Data Tabulation Model Implementation Guide: Human Clinical Trials Version 3.3 (Final)", "type": "Implementation Guide"}, "rootItem": {"href": "/mdr/root/sdtmig/datasets/RE/variables/REMETHOD", "title": "Version-agnostic anchor resource for SDTMIG variable RE.REMETHOD", "type": "Root Data Element"}, "self": {"href": "/mdr/sdtmig/3-3/datasets/RE/variables/REMETHOD", "title": "Method of Test or Examination", "type": "SDTM Dataset Variable"}}, "core": "Perm", "description": "Method used to create the result.", "label": "Method of Test or Examination", "name": "REMETHOD", "ordinal": "29", "role": "Record Qualifier", "simpleDatatype": "Char"}, {"_links": {"codelist": [{"href": "/mdr/root/ct/sdtmct/codelists/C66742", "title": "Version-agnostic anchor resource for codelist C66742", "type": "Root Value Domain"}], "modelClassVariable": {"href": "/mdr/sdtm/1-7/classes/Findings/variables/--LOBXFL", "title": "Last Observation Before Exposure Flag", "type": "Class Variable"}, "parentDataset": {"href": "/mdr/sdtmig/3-3/datasets/RE", "title": "Respiratory System Findings", "type": "SDTM Dataset"}, "parentProduct": {"href": "/mdr/sdtmig/3-3", "title": "Study Data Tabulation Model Implementation Guide: Human Clinical Trials Version 3.3 (Final)", "type": "Implementation Guide"}, "rootItem": {"href": "/mdr/root/sdtmig/datasets/RE/variables/RELOBXFL", "title": "Version-agnostic anchor resource for SDTMIG variable RE.RELOBXFL", "type": "Root Data Element"}, "self": {"href": "/mdr/sdtmig/3-3/datasets/RE/variables/RELOBXFL", "title": "Last Observation Before Exposure Flag", "type": "SDTM Dataset Variable"}}, "core": "Exp", "description": "Operationally-derived indicator used to identify the last non-missing value prior to RFXSTDTC. The value should be \"Y\" or null.", "label": "Last Observation Before Exposure Flag", "name": "RELOBXFL", "ordinal": "30", "role": "Record Qualifier", "simpleDatatype": "Char"}, {"_links": {"codelist": [{"href": "/mdr/root/ct/sdtmct/codelists/C66742", "title": "Version-agnostic anchor resource for codelist C66742", "type": "Root Value Domain"}], "modelClassVariable": {"href": "/mdr/sdtm/1-7/classes/Findings/variables/--BLFL", "title": "Baseline Flag", "type": "Class Variable"}, "parentDataset": {"href": "/mdr/sdtmig/3-3/datasets/RE", "title": "Respiratory System Findings", "type": "SDTM Dataset"}, "parentProduct": {"href": "/mdr/sdtmig/3-3", "title": "Study Data Tabulation Model Implementation Guide: Human Clinical Trials Version 3.3 (Final)", "type": "Implementation Guide"}, "rootItem": {"href": "/mdr/root/sdtmig/datasets/RE/variables/REBLFL", "title": "Version-agnostic anchor resource for SDTMIG variable RE.REBLFL", "type": "Root Data Element"}, "self": {"href": "/mdr/sdtmig/3-3/datasets/RE/variables/REBLFL", "title": "Baseline Flag", "type": "SDTM Dataset Variable"}}, "core": "Perm", "description": "Indicator used to identify a baseline value. Should be Y or null. Note that REBLFL is retained for backward compatibility. The authoritative baseline flag for statistical analysis is in an ADaM dataset.", "label": "Baseline Flag", "name": "REBLFL", "ordinal": "31", "role": "Record Qualifier", "simpleDatatype": "Char"}, {"_links": {"codelist": [{"href": "/mdr/root/ct/sdtmct/codelists/C66742", "title": "Version-agnostic anchor resource for codelist C66742", "type": "Root Value Domain"}], "modelClassVariable": {"href": "/mdr/sdtm/1-7/classes/Findings/variables/--DRVFL", "title": "Derived Flag", "type": "Class Variable"}, "parentDataset": {"href": "/mdr/sdtmig/3-3/datasets/RE", "title": "Respiratory System Findings", "type": "SDTM Dataset"}, "parentProduct": {"href": "/mdr/sdtmig/3-3", "title": "Study Data Tabulation Model Implementation Guide: Human Clinical Trials Version 3.3 (Final)", "type": "Implementation Guide"}, "rootItem": {"href": "/mdr/root/sdtmig/datasets/RE/variables/REDRVFL", "title": "Version-agnostic anchor resource for SDTMIG variable RE.REDRVFL", "type": "Root Data Element"}, "self": {"href": "/mdr/sdtmig/3-3/datasets/RE/variables/REDRVFL", "title": "Derived Flag", "type": "SDTM Dataset Variable"}}, "core": "Perm", "description": "Used to indicate a derived record. Should be \"Y\" or null. Records that represent the average of other records, or that do not come from the CRF, or are not as originally collected or received are examples of records that would be derived for the submission datasets. If REDRVFL = \"Y\", then REORRES could be null, with RESTRESC and (if numeric) RESTRESN having the derived value.", "label": "Derived Flag", "name": "REDRVFL", "ordinal": "32", "role": "Record Qualifier", "simpleDatatype": "Char"}, {"_links": {"codelist": [{"href": "/mdr/root/ct/sdtmct/codelists/C78735", "title": "Version-agnostic anchor resource for codelist C78735", "type": "Root Value Domain"}], "modelClassVariable": {"href": "/mdr/sdtm/1-7/classes/Findings/variables/--EVAL", "title": "Evaluator", "type": "Class Variable"}, "parentDataset": {"href": "/mdr/sdtmig/3-3/datasets/RE", "title": "Respiratory System Findings", "type": "SDTM Dataset"}, "parentProduct": {"href": "/mdr/sdtmig/3-3", "title": "Study Data Tabulation Model Implementation Guide: Human Clinical Trials Version 3.3 (Final)", "type": "Implementation Guide"}, "rootItem": {"href": "/mdr/root/sdtmig/datasets/RE/variables/REEVAL", "title": "Version-agnostic anchor resource for SDTMIG variable RE.REEVAL", "type": "Root Data Element"}, "self": {"href": "/mdr/sdtmig/3-3/datasets/RE/variables/REEVAL", "title": "Evaluator", "type": "SDTM Dataset Variable"}}, "core": "Perm", "description": "Role of the person who provided the evaluation. Used only for results that are subjective (e.g., assigned by a person or a group). Examples: \"ADJUDICATION COMMITTEE\", \"INDEPENDENT ASSESSOR\", \"RADIOLOGIST\".", "label": "Evaluator", "name": "REEVAL", "ordinal": "33", "role": "Record Qualifier", "simpleDatatype": "Char"}, {"_links": {"codelist": [{"href": "/mdr/root/ct/sdtmct/codelists/C96777", "title": "Version-agnostic anchor resource for codelist C96777", "type": "Root Value Domain"}], "modelClassVariable": {"href": "/mdr/sdtm/1-7/classes/Findings/variables/--EVALID", "title": "Evaluator Identifier", "type": "Class Variable"}, "parentDataset": {"href": "/mdr/sdtmig/3-3/datasets/RE", "title": "Respiratory System Findings", "type": "SDTM Dataset"}, "parentProduct": {"href": "/mdr/sdtmig/3-3", "title": "Study Data Tabulation Model Implementation Guide: Human Clinical Trials Version 3.3 (Final)", "type": "Implementation Guide"}, "rootItem": {"href": "/mdr/root/sdtmig/datasets/RE/variables/REEVALID", "title": "Version-agnostic anchor resource for SDTMIG variable RE.REEVALID", "type": "Root Data Element"}, "self": {"href": "/mdr/sdtmig/3-3/datasets/RE/variables/REEVALID", "title": "Evaluator Identifier", "type": "SDTM Dataset Variable"}}, "core": "Perm", "description": "Used to distinguish multiple evaluators with the same role recorded in REEVAL. Examples: \"RADIOLOGIST1\" or \"RADIOLOGIST2\".", "label": "Evaluator Identifier", "name": "REEVALID", "ordinal": "34", "role": "Variable Qualifier", "simpleDatatype": "Char"}, {"_links": {"modelClassVariable": {"href": "/mdr/sdtm/1-7/classes/Findings/variables/--REPNUM", "title": "Repetition Number", "type": "Class Variable"}, "parentDataset": {"href": "/mdr/sdtmig/3-3/datasets/RE", "title": "Respiratory System Findings", "type": "SDTM Dataset"}, "parentProduct": {"href": "/mdr/sdtmig/3-3", "title": "Study Data Tabulation Model Implementation Guide: Human Clinical Trials Version 3.3 (Final)", "type": "Implementation Guide"}, "rootItem": {"href": "/mdr/root/sdtmig/datasets/RE/variables/REREPNUM", "title": "Version-agnostic anchor resource for SDTMIG variable RE.REREPNUM", "type": "Root Data Element"}, "self": {"href": "/mdr/sdtmig/3-3/datasets/RE/variables/REREPNUM", "title": "Repetition Number", "type": "SDTM Dataset Variable"}}, "core": "Perm", "description": "The instance number of a test that is repeated within a given time frame for the same test. The level of granularity can vary, e.g., within a time point or within a visit. For example, multiple measurements of pulmonary function.", "label": "Repetition Number", "name": "REREPNUM", "ordinal": "35", "role": "Record Qualifier", "simpleDatatype": "Num"}, {"_links": {"modelClassVariable": {"href": "/mdr/sdtm/1-7/classes/GeneralObservations/variables/VISITNUM", "title": "Visit Number", "type": "Class Variable"}, "parentDataset": {"href": "/mdr/sdtmig/3-3/datasets/RE", "title": "Respiratory System Findings", "type": "SDTM Dataset"}, "parentProduct": {"href": "/mdr/sdtmig/3-3", "title": "Study Data Tabulation Model Implementation Guide: Human Clinical Trials Version 3.3 (Final)", "type": "Implementation Guide"}, "rootItem": {"href": "/mdr/root/sdtmig/datasets/RE/variables/VISITNUM", "title": "Version-agnostic anchor resource for SDTMIG variable RE.VISITNUM", "type": "Root Data Element"}, "self": {"href": "/mdr/sdtmig/3-3/datasets/RE/variables/VISITNUM", "title": "Visit Number", "type": "SDTM Dataset Variable"}}, "core": "Exp", "description": "Clinical encounter number. Numeric version of VISIT, used for sorting.", "label": "Visit Number", "name": "VISITNUM", "ordinal": "36", "role": "Timing", "simpleDatatype": "Num"}, {"_links": {"modelClassVariable": {"href": "/mdr/sdtm/1-7/classes/GeneralObservations/variables/VISIT", "title": "Visit Name", "type": "Class Variable"}, "parentDataset": {"href": "/mdr/sdtmig/3-3/datasets/RE", "title": "Respiratory System Findings", "type": "SDTM Dataset"}, "parentProduct": {"href": "/mdr/sdtmig/3-3", "title": "Study Data Tabulation Model Implementation Guide: Human Clinical Trials Version 3.3 (Final)", "type": "Implementation Guide"}, "rootItem": {"href": "/mdr/root/sdtmig/datasets/RE/variables/VISIT", "title": "Version-agnostic anchor resource for SDTMIG variable RE.VISIT", "type": "Root Data Element"}, "self": {"href": "/mdr/sdtmig/3-3/datasets/RE/variables/VISIT", "title": "Visit Name", "type": "SDTM Dataset Variable"}}, "core": "Perm", "description": "Protocol-defined description of a clinical encounter. May be used in addition to VISITNUM and/or VISITDY.", "label": "Visit Name", "name": "VISIT", "ordinal": "37", "role": "Timing", "simpleDatatype": "Char"}, {"_links": {"modelClassVariable": {"href": "/mdr/sdtm/1-7/classes/GeneralObservations/variables/VISITDY", "title": "Planned Study Day of Visit", "type": "Class Variable"}, "parentDataset": {"href": "/mdr/sdtmig/3-3/datasets/RE", "title": "Respiratory System Findings", "type": "SDTM Dataset"}, "parentProduct": {"href": "/mdr/sdtmig/3-3", "title": "Study Data Tabulation Model Implementation Guide: Human Clinical Trials Version 3.3 (Final)", "type": "Implementation Guide"}, "rootItem": {"href": "/mdr/root/sdtmig/datasets/RE/variables/VISITDY", "title": "Version-agnostic anchor resource for SDTMIG variable RE.VISITDY", "type": "Root Data Element"}, "self": {"href": "/mdr/sdtmig/3-3/datasets/RE/variables/VISITDY", "title": "Planned Study Day of Visit", "type": "SDTM Dataset Variable"}}, "core": "Perm", "description": "Planned study day of the visit based upon RFSTDTC in Demographics.", "label": "Planned Study Day of Visit", "name": "VISITDY", "ordinal": "38", "role": "Timing", "simpleDatatype": "Num"}, {"_links": {"modelClassVariable": {"href": "/mdr/sdtm/1-7/classes/GeneralObservations/variables/TAETORD", "title": "Planned Order of Element Within Arm", "type": "Class Variable"}, "parentDataset": {"href": "/mdr/sdtmig/3-3/datasets/RE", "title": "Respiratory System Findings", "type": "SDTM Dataset"}, "parentProduct": {"href": "/mdr/sdtmig/3-3", "title": "Study Data Tabulation Model Implementation Guide: Human Clinical Trials Version 3.3 (Final)", "type": "Implementation Guide"}, "rootItem": {"href": "/mdr/root/sdtmig/datasets/RE/variables/TAETORD", "title": "Version-agnostic anchor resource for SDTMIG variable RE.TAETORD", "type": "Root Data Element"}, "self": {"href": "/mdr/sdtmig/3-3/datasets/RE/variables/TAETORD", "title": "Planned Order of Element within Arm", "type": "SDTM Dataset Variable"}}, "core": "Perm", "description": "Number that gives the planned order of the Element within the Arm for the Element in which the assessment was made.", "label": "Planned Order of Element within Arm", "name": "TAETORD", "ordinal": "39", "role": "Timing", "simpleDatatype": "Num"}, {"_links": {"codelist": [{"href": "/mdr/root/ct/sdtmct/codelists/C99079", "title": "Version-agnostic anchor resource for codelist C99079", "type": "Root Value Domain"}], "modelClassVariable": {"href": "/mdr/sdtm/1-7/classes/GeneralObservations/variables/EPOCH", "title": "Epoch", "type": "Class Variable"}, "parentDataset": {"href": "/mdr/sdtmig/3-3/datasets/RE", "title": "Respiratory System Findings", "type": "SDTM Dataset"}, "parentProduct": {"href": "/mdr/sdtmig/3-3", "title": "Study Data Tabulation Model Implementation Guide: Human Clinical Trials Version 3.3 (Final)", "type": "Implementation Guide"}, "rootItem": {"href": "/mdr/root/sdtmig/datasets/RE/variables/EPOCH", "title": "Version-agnostic anchor resource for SDTMIG variable RE.EPOCH", "type": "Root Data Element"}, "self": {"href": "/mdr/sdtmig/3-3/datasets/RE/variables/EPOCH", "title": "Epoch", "type": "SDTM Dataset Variable"}}, "core": "Perm", "description": "Epoch associated with the date/time at which the assessment was made.", "label": "Epoch", "name": "EPOCH", "ordinal": "40", "role": "Timing", "simpleDatatype": "Char"}, {"_links": {"modelClassVariable": {"href": "/mdr/sdtm/1-7/classes/GeneralObservations/variables/--DTC", "title": "Date/Time of Collection", "type": "Class Variable"}, "parentDataset": {"href": "/mdr/sdtmig/3-3/datasets/RE", "title": "Respiratory System Findings", "type": "SDTM Dataset"}, "parentProduct": {"href": "/mdr/sdtmig/3-3", "title": "Study Data Tabulation Model Implementation Guide: Human Clinical Trials Version 3.3 (Final)", "type": "Implementation Guide"}, "rootItem": {"href": "/mdr/root/sdtmig/datasets/RE/variables/REDTC", "title": "Version-agnostic anchor resource for SDTMIG variable RE.REDTC", "type": "Root Data Element"}, "self": {"href": "/mdr/sdtmig/3-3/datasets/RE/variables/REDTC", "title": "Date/Time of Collection", "type": "SDTM Dataset Variable"}}, "core": "Exp", "describedValueDomain": "ISO 8601", "description": "Date/time of procedure or test.", "label": "Date/Time of Collection", "name": "REDTC", "ordinal": "41", "role": "Timing", "simpleDatatype": "Char"}, {"_links": {"modelClassVariable": {"href": "/mdr/sdtm/1-7/classes/GeneralObservations/variables/--DY", "title": "Study Day of Visit/Collection/Exam", "type": "Class Variable"}, "parentDataset": {"href": "/mdr/sdtmig/3-3/datasets/RE", "title": "Respiratory System Findings", "type": "SDTM Dataset"}, "parentProduct": {"href": "/mdr/sdtmig/3-3", "title": "Study Data Tabulation Model Implementation Guide: Human Clinical Trials Version 3.3 (Final)", "type": "Implementation Guide"}, "rootItem": {"href": "/mdr/root/sdtmig/datasets/RE/variables/REDY", "title": "Version-agnostic anchor resource for SDTMIG variable RE.REDY", "type": "Root Data Element"}, "self": {"href": "/mdr/sdtmig/3-3/datasets/RE/variables/REDY", "title": "Study Day of Visit/Collection/Exam", "type": "SDTM Dataset Variable"}}, "core": "Perm", "description": "Actual study day of visit/collection/exam expressed in integer days relative to the sponsor-defined RFSTDTC in Demographics.", "label": "Study Day of Visit/Collection/Exam", "name": "REDY", "ordinal": "42", "role": "Timing", "simpleDatatype": "Num"}, {"_links": {"modelClassVariable": {"href": "/mdr/sdtm/1-7/classes/GeneralObservations/variables/--TPT", "title": "Planned Time Point Name", "type": "Class Variable"}, "parentDataset": {"href": "/mdr/sdtmig/3-3/datasets/RE", "title": "Respiratory System Findings", "type": "SDTM Dataset"}, "parentProduct": {"href": "/mdr/sdtmig/3-3", "title": "Study Data Tabulation Model Implementation Guide: Human Clinical Trials Version 3.3 (Final)", "type": "Implementation Guide"}, "rootItem": {"href": "/mdr/root/sdtmig/datasets/RE/variables/RETPT", "title": "Version-agnostic anchor resource for SDTMIG variable RE.RETPT", "type": "Root Data Element"}, "self": {"href": "/mdr/sdtmig/3-3/datasets/RE/variables/RETPT", "title": "Planned Time Point Name", "type": "SDTM Dataset Variable"}}, "core": "Perm", "description": "Text description of time when a measurement or observation should be taken as defined in the protocol. This may be represented as an elapsed time relative to a fixed reference point, such as time of last dose. See RETPTNUM and RETPTREF. Examples: \"Start\", \"5 minutes post\".", "label": "Planned Time Point Name", "name": "RETPT", "ordinal": "43", "role": "Timing", "simpleDatatype": "Char"}, {"_links": {"modelClassVariable": {"href": "/mdr/sdtm/1-7/classes/GeneralObservations/variables/--TPTNUM", "title": "Planned Time Point Number", "type": "Class Variable"}, "parentDataset": {"href": "/mdr/sdtmig/3-3/datasets/RE", "title": "Respiratory System Findings", "type": "SDTM Dataset"}, "parentProduct": {"href": "/mdr/sdtmig/3-3", "title": "Study Data Tabulation Model Implementation Guide: Human Clinical Trials Version 3.3 (Final)", "type": "Implementation Guide"}, "rootItem": {"href": "/mdr/root/sdtmig/datasets/RE/variables/RETPTNUM", "title": "Version-agnostic anchor resource for SDTMIG variable RE.RETPTNUM", "type": "Root Data Element"}, "self": {"href": "/mdr/sdtmig/3-3/datasets/RE/variables/RETPTNUM", "title": "Planned Time Point Number", "type": "SDTM Dataset Variable"}}, "core": "Perm", "description": "Numeric version of RETPT to aid in sorting.", "label": "Planned Time Point Number", "name": "RETPTNUM", "ordinal": "44", "role": "Timing", "simpleDatatype": "Num"}, {"_links": {"modelClassVariable": {"href": "/mdr/sdtm/1-7/classes/GeneralObservations/variables/--ELTM", "title": "Planned Elapsed Time from Time Point Ref", "type": "Class Variable"}, "parentDataset": {"href": "/mdr/sdtmig/3-3/datasets/RE", "title": "Respiratory System Findings", "type": "SDTM Dataset"}, "parentProduct": {"href": "/mdr/sdtmig/3-3", "title": "Study Data Tabulation Model Implementation Guide: Human Clinical Trials Version 3.3 (Final)", "type": "Implementation Guide"}, "rootItem": {"href": "/mdr/root/sdtmig/datasets/RE/variables/REELTM", "title": "Version-agnostic anchor resource for SDTMIG variable RE.REELTM", "type": "Root Data Element"}, "self": {"href": "/mdr/sdtmig/3-3/datasets/RE/variables/REELTM", "title": "Planned Elapsed Time from Time Point Ref", "type": "SDTM Dataset Variable"}}, "core": "Perm", "describedValueDomain": "ISO 8601", "description": "Planned Elapsed time relative to a planned fixed reference (RETPTREF). Not a clock time or a date/time variable, but an interval, represented as ISO duration. Examples: \"-PT15M\" to represent 15 minutes prior to the reference time point indicated by RETPTREF, or \"PT8H\" to represent 8 hours after the reference time point represented by RETPTREF.", "label": "Planned Elapsed Time from Time Point Ref", "name": "REELTM", "ordinal": "45", "role": "Timing", "simpleDatatype": "Char"}, {"_links": {"modelClassVariable": {"href": "/mdr/sdtm/1-7/classes/GeneralObservations/variables/--TPTREF", "title": "Time Point Reference", "type": "Class Variable"}, "parentDataset": {"href": "/mdr/sdtmig/3-3/datasets/RE", "title": "Respiratory System Findings", "type": "SDTM Dataset"}, "parentProduct": {"href": "/mdr/sdtmig/3-3", "title": "Study Data Tabulation Model Implementation Guide: Human Clinical Trials Version 3.3 (Final)", "type": "Implementation Guide"}, "rootItem": {"href": "/mdr/root/sdtmig/datasets/RE/variables/RETPTREF", "title": "Version-agnostic anchor resource for SDTMIG variable RE.RETPTREF", "type": "Root Data Element"}, "self": {"href": "/mdr/sdtmig/3-3/datasets/RE/variables/RETPTREF", "title": "Time Point Reference", "type": "SDTM Dataset Variable"}}, "core": "Perm", "description": "Description of the fixed reference point referred to by REELTM, RETPTNUM, and RETPT. Examples: \"PREVIOUS DOSE\", \"PREVIOUS MEAL\".", "label": "Time Point Reference", "name": "RETPTREF", "ordinal": "46", "role": "Timing", "simpleDatatype": "Char"}, {"_links": {"modelClassVariable": {"href": "/mdr/sdtm/1-7/classes/GeneralObservations/variables/--RFTDTC", "title": "Date/Time of Reference Time Point", "type": "Class Variable"}, "parentDataset": {"href": "/mdr/sdtmig/3-3/datasets/RE", "title": "Respiratory System Findings", "type": "SDTM Dataset"}, "parentProduct": {"href": "/mdr/sdtmig/3-3", "title": "Study Data Tabulation Model Implementation Guide: Human Clinical Trials Version 3.3 (Final)", "type": "Implementation Guide"}, "rootItem": {"href": "/mdr/root/sdtmig/datasets/RE/variables/RERFTDTC", "title": "Version-agnostic anchor resource for SDTMIG variable RE.RERFTDTC", "type": "Root Data Element"}, "self": {"href": "/mdr/sdtmig/3-3/datasets/RE/variables/RERFTDTC", "title": "Date/Time of Reference Time Point", "type": "SDTM Dataset Variable"}}, "core": "Perm", "describedValueDomain": "ISO 8601", "description": "Date/time for a fixed reference time point defined by RETPTREF.", "label": "Date/Time of Reference Time Point", "name": "RERFTDTC", "ordinal": "47", "role": "Timing", "simpleDatatype": "Char"}], "description": "A findings domain that contains physiological and morphological findings related to the respiratory system, including the organs that are involved in breathing such as the nose, throat, larynx, trachea, bronchi and lungs. (Source: CDISC Controlled Terminology, DOMAIN, C95098, 2018-06-29)", "label": "Respiratory System Findings", "name": "RE", "ordinal": "34"}
