"table","column","enrich_build_order","enrich_rule"
"AE","*",60,
"AG","*",610,
"APAE","*",20060,
"APCE","*",20068,
"APCM","*",20080,
"APDD","*",20620,
"APDM","*",20008,
"APFACE","*",20208,
"APHO","*",20220,
"APMH","*",20268,
"APQS","*",20340,
"APRP","*",20348,
"APRS","*",20360,
"APSC","*",20368,
"APVS","*",20440,
"APZA","*",20460,
"CE","*",70,
"CM","*",80,
"CO","*",480,
"CV","*",700,
"DA","*",90,
"DD","*",620,
"DE","*",1010,
"DI","*",1000,
"DM","*",10,
"DO","*",1040,
"DR","*",1090,
"DS","*",120,
"DT","*",1060,
"DU","*",1020,
"DV","*",550,
"DX","*",1030,
"EC","*",180,
"EG","*",190,
"EX","*",200,
"FA","*",210,
"FAXB","*",695,
"FT","*",345,
"HO","*",220,
"IE","*",525,
"IS","*",240,
"LB","*",250,
"MB","*",260,
"MH","*",270,
"MI","*",280,
"ML","*",600,
"MO","*",290,
"MS","*",300,
"OE","*",680,
"PC","*",310,
"PE","*",320,
"PF","*",670,
"PR","*",330,
"QS","*",340,
"RE","*",630,
"RELREC","*",560,
"RP","*",350,
"RS","*",360,
"SC","*",370,
"SE","*",50,
"SR","*",380,
"SS","*",390,
"SU","*",400,
"SV","*",410,
"TA","*",40,
"TD","*",510,
"TE","*",30,
"TI","*",520,
"TR","*",420,
"TS","*",30000,
"TU","*",430,
"TV","*",20,
"VS","*",440,
"XA","*",640,
"XB","*",690,
"XD","*",555,
"XH","*",450,
"XL","*",10024,
"XR","*",650,
"XS","*",660,
"XV","*",10044,
"ZA","*",460,
"ZE","*",181,
"ZL","*",10034,
"ZV","*",10054,
"AE","AEBDSYCD",30,"sdtme_std_cd_v$$"
"AE","AEBODSYS",30,"sdtme_std_cd_v$$"
"AE","AEDECOD",30,"sdtme_std_cd_v$$"
"AE","AEENDY",10,"sdtme_std_dy_v$$"
"AE","AEEPRELI",80,"sdtme_std_epreli_v$$"
"AE","AEHLGT",30,"sdtme_std_cd_v$$"
"AE","AEHLGTCD",30,"sdtme_std_cd_v$$"
"AE","AEHLT",30,"sdtme_std_cd_v$$"
"AE","AEHLTCD",30,"sdtme_std_cd_v$$"
"AE","AELLT",30,"sdtme_std_cd_v$$"
"AE","AELLTCD",30,"sdtme_std_cd_v$$"
"AE","AEPTCD",30,"sdtme_std_cd_v$$"
"AE","AESOC",30,"sdtme_std_cd_v$$"
"AE","AESOCCD",30,"sdtme_std_cd_v$$"
"AE","AESTDY",10,"sdtme_std_dy_v$$"
"AE","DOMAIN",60,"sdtme_ae_teae_v$$"
"AE","DOMAIN",70,"sdtme_std_qnam_v$$"
"AE","ELEMENT",50,"sdtme_std_etcd_v$$"
"AE","EPOCH",40,"sdtme_std_epoch_v$$"
"AE","ETCD",50,"sdtme_std_etcd_v$$"
"AG","AGENDY",30,"sdtme_std_dy_v$$"
"AG","AGSTDY",30,"sdtme_std_dy_v$$"
"AG","ELEMENT",50,"sdtme_std_etcd_v$$"
"AG","EPOCH",40,"sdtme_std_epoch_v$$"
"AG","ETCD",50,"sdtme_std_etcd_v$$"
"AG","VISIT",10,"sdtme_std_visit_v$$"
"AG","VISITDY",20,"sdtme_std_visitdy_v$$"
"APAE","AEBDSYCD",30,"sdtme_std_cd_v$$"
"APAE","AEBODSYS",30,"sdtme_std_cd_v$$"
"APAE","AEDECOD",30,"sdtme_std_cd_v$$"
"APAE","AEENDY",10,"sdtme_std_dy_v$$"
"APAE","AEEPRELI",80,"sdtme_std_epreli_v$$"
"APAE","AEHLGT",30,"sdtme_std_cd_v$$"
"APAE","AEHLGTCD",30,"sdtme_std_cd_v$$"
"APAE","AEHLT",30,"sdtme_std_cd_v$$"
"APAE","AEHLTCD",30,"sdtme_std_cd_v$$"
"APAE","AELLT",30,"sdtme_std_cd_v$$"
"APAE","AELLTCD",30,"sdtme_std_cd_v$$"
"APAE","AEPTCD",30,"sdtme_std_cd_v$$"
"APAE","AESOC",30,"sdtme_std_cd_v$$"
"APAE","AESOCCD",30,"sdtme_std_cd_v$$"
"APAE","AESTDY",10,"sdtme_std_dy_v$$"
"APAE","DOMAIN",70,"sdtme_std_qnam_v$$"
"APAE","ELEMENT",50,"sdtme_std_etcd_v$$"
"APAE","EPOCH",40,"sdtme_std_epoch_v$$"
"APAE","ETCD",50,"sdtme_std_etcd_v$$"
"APCE","CEDY",10,"sdtme_std_dy_v$$"
"APCE","CEENDY",10,"sdtme_std_dy_v$$"
"APCE","CESTDY",10,"sdtme_std_dy_v$$"
"APCE","ELEMENT",30,"sdtme_std_etcd_v$$"
"APCE","EPOCH",20,"sdtme_std_epoch_v$$"
"APCE","ETCD",30,"sdtme_std_etcd_v$$"
"APCE","VISIT",40,"sdtme_std_visit_v$$"
"APCE","VISITDY",50,"sdtme_std_visitdy_v$$"
"APCM","CMCLAS",25,"sdtme_cm_clas_v$$"
"APCM","CMCLASCD",25,"sdtme_cm_clas_v$$"
"APCM","CMDOSFRQ",60,"sdtme_cm_dosufrq_v$$"
"APCM","CMDOSU",60,"sdtme_cm_dosufrq_v$$"
"APCM","CMENDY",10,"sdtme_std_dy_v$$"
"APCM","CMSTDY",10,"sdtme_std_dy_v$$"
"APCM","DOMAIN",30,"sdtme_std_cd_v$$"
"APCM","ELEMENT",50,"sdtme_std_etcd_v$$"
"APCM","EPOCH",40,"sdtme_std_epoch_v$$"
"APCM","ETCD",50,"sdtme_std_etcd_v$$"
"APDD","DDDY",10,"sdtme_std_dy_v$$"
"APDD","DDSTRESC",20,"sdtme_std_stres_v$$"
"APDD","ELEMENT",40,"sdtme_std_etcd_v$$"
"APDD","EPOCH",30,"sdtme_std_epoch_v$$"
"APDD","ETCD",40,"sdtme_std_etcd_v$$"
"APDM","AGE",30,"#age_at_baseline_rl"
"APDM","AGEU",30,"#age_at_baseline_rl"
"APDM","DTHDTC",40,"sdtme_dm_dth_v$$"
"APDM","DTHFL",40,"sdtme_dm_dth_v$$"
"APFACE","ELEMENT",90,"sdtme_std_etcd_v$$"
"APFACE","EPOCH",80,"sdtme_std_epoch_v$$"
"APFACE","ETCD",90,"sdtme_std_etcd_v$$"
"APFACE","FABLFL",20,"sdtme_std_blfl_v$$"
"APFACE","FADY",10,"sdtme_std_dy_v$$"
"APFACE","FAENDY",10,"sdtme_std_dy_v$$"
"APFACE","FAORNRHI",50,"sdtme_std_ornr_v$$"
"APFACE","FAORNRLO",50,"sdtme_std_ornr_v$$"
"APFACE","FASTNRHI",70,"sdtme_std_stres_v$$"
"APFACE","FASTNRLO",70,"sdtme_std_stres_v$$"
"APFACE","FASTRESC",70,"sdtme_std_stres_v$$"
"APFACE","FASTRESN",70,"sdtme_std_stres_v$$"
"APFACE","FASTRESU",60,"sdtme_std_stresu_v$$"
"APFACE","VISIT",30,"sdtme_std_visit_v$$"
"APFACE","VISITDY",40,"sdtme_std_visitdy_v$$"
"APHO","ELEMENT",30,"sdtme_std_etcd_v$$"
"APHO","EPOCH",20,"sdtme_std_epoch_v$$"
"APHO","ETCD",30,"sdtme_std_etcd_v$$"
"APHO","HODY",10,"sdtme_std_dy_v$$"
"APHO","HOENDY",10,"sdtme_std_dy_v$$"
"APHO","HOSTDY",10,"sdtme_std_dy_v$$"
"APMH","ELEMENT",60,"sdtme_std_etcd_v$$"
"APMH","EPOCH",50,"sdtme_std_epoch_v$$"
"APMH","ETCD",60,"sdtme_std_etcd_v$$"
"APMH","MHBDSYCD",40,"sdtme_std_cd_v$$"
"APMH","MHBODSYS",40,"sdtme_std_cd_v$$"
"APMH","MHDECOD",40,"sdtme_std_cd_v$$"
"APMH","MHDY",10,"sdtme_std_dy_v$$"
"APMH","MHENDY",10,"sdtme_std_dy_v$$"
"APMH","MHHLGT",40,"sdtme_std_cd_v$$"
"APMH","MHHLGTCD",40,"sdtme_std_cd_v$$"
"APMH","MHHLT",40,"sdtme_std_cd_v$$"
"APMH","MHHLTCD",40,"sdtme_std_cd_v$$"
"APMH","MHLLT",40,"sdtme_std_cd_v$$"
"APMH","MHLLTCD",40,"sdtme_std_cd_v$$"
"APMH","MHPTCD",40,"sdtme_std_cd_v$$"
"APMH","MHSOC",40,"sdtme_std_cd_v$$"
"APMH","MHSOCCD",40,"sdtme_std_cd_v$$"
"APMH","MHSTDY",10,"sdtme_std_dy_v$$"
"APMH","VISIT",20,"sdtme_std_visit_v$$"
"APMH","VISITDY",30,"sdtme_std_visitdy_v$$"
"APQS","ELEMENT",60,"sdtme_std_etcd_v$$"
"APQS","EPOCH",50,"sdtme_std_epoch_v$$"
"APQS","ETCD",60,"sdtme_std_etcd_v$$"
"APQS","QSBLFL",20,"sdtme_std_blfl_v$$"
"APQS","QSDY",10,"sdtme_std_dy_v$$"
"APQS","QSREASND",5,"sdtme_qs_stat_v$$"
"APQS","QSSTAT",5,"sdtme_qs_stat_v$$"
"APQS","QSSTRESC",80,"sdtme_std_stres_v$$"
"APQS","QSSTRESN",80,"sdtme_std_stres_v$$"
"APQS","QSSTRESU",70,"sdtme_std_stresu_v$$"
"APQS","VISIT",30,"sdtme_std_visit_v$$"
"APQS","VISITDY",40,"sdtme_std_visitdy_v$$"
"APRP","ELEMENT",80,"sdtme_std_etcd_v$$"
"APRP","EPOCH",70,"sdtme_std_epoch_v$$"
"APRP","ETCD",80,"sdtme_std_etcd_v$$"
"APRP","RPBLFL",20,"sdtme_std_blfl_v$$"
"APRP","RPDY",10,"sdtme_std_dy_v$$"
"APRP","RPENDY",10,"sdtme_std_dy_v$$"
"APRP","RPSTRESC",60,"sdtme_std_stres_v$$"
"APRP","RPSTRESN",60,"sdtme_std_stres_v$$"
"APRP","RPSTRESU",50,"sdtme_std_stresu_v$$"
"APRP","VISIT",30,"sdtme_std_visit_v$$"
"APRP","VISITDY",40,"sdtme_std_visitdy_v$$"
"APRS","ELEMENT",60,"sdtme_std_etcd_v$$"
"APRS","EPOCH",50,"sdtme_std_epoch_v$$"
"APRS","ETCD",60,"sdtme_std_etcd_v$$"
"APRS","RSDY",10,"sdtme_std_dy_v$$"
"APRS","RSSTRESC",40,"sdtme_std_stres_v$$"
"APRS","RSSTRESN",40,"sdtme_std_stres_v$$"
"APRS","RSSTRESU",39,"sdtme_std_stresu_v$$"
"APRS","VISIT",20,"sdtme_std_visit_v$$"
"APRS","VISITDY",30,"sdtme_std_visitdy_v$$"
"APSC","ELEMENT",30,"sdtme_std_etcd_v$$"
"APSC","EPOCH",20,"sdtme_std_epoch_v$$"
"APSC","ETCD",30,"sdtme_std_etcd_v$$"
"APSC","SCDY",10,"sdtme_std_dy_v$$"
"APSC","SCSTRESC",50,"sdtme_std_stres_v$$"
"APSC","SCSTRESN",50,"sdtme_std_stres_v$$"
"APSC","SCSTRESU",40,"sdtme_std_stresu_v$$"
"APVS","ELEMENT",80,"sdtme_std_etcd_v$$"
"APVS","EPOCH",70,"sdtme_std_epoch_v$$"
"APVS","ETCD",80,"sdtme_std_etcd_v$$"
"APVS","VISIT",30,"sdtme_std_visit_v$$"
"APVS","VISITDY",60,"sdtme_std_visitdy_v$$"
"APVS","VSBLFL",20,"sdtme_std_blfl_v$$"
"APVS","VSDY",10,"sdtme_std_dy_v$$"
"APVS","VSSTRESC",50,"sdtme_std_stres_v$$"
"APVS","VSSTRESN",50,"sdtme_std_stres_v$$"
"APVS","VSSTRESU",40,"sdtme_std_stresu_v$$"
"APZA","ELEMENT",100,"sdtme_std_etcd_v$$"
"APZA","EPOCH",90,"sdtme_std_epoch_v$$"
"APZA","ETCD",100,"sdtme_std_etcd_v$$"
"APZA","VISIT",30,"sdtme_std_visit_v$$"
"APZA","VISITDY",80,"sdtme_std_visitdy_v$$"
"APZA","ZABLFL",20,"sdtme_std_blfl_v$$"
"APZA","ZADY",10,"sdtme_std_dy_v$$"
"APZA","ZAORNRHI",40,"sdtme_std_ornr_v$$"
"APZA","ZAORNRLO",40,"sdtme_std_ornr_v$$"
"APZA","ZASTNRHI",70,"sdtme_std_stres_v$$"
"APZA","ZASTNRLO",70,"sdtme_std_stres_v$$"
"APZA","ZASTRESC",70,"sdtme_std_stres_v$$"
"APZA","ZASTRESN",70,"sdtme_std_stres_v$$"
"APZA","ZASTRESU",60,"sdtme_std_stresu_v$$"
"CE","CEDY",10,"sdtme_std_dy_v$$"
"CE","CEENDY",10,"sdtme_std_dy_v$$"
"CE","CESTDY",10,"sdtme_std_dy_v$$"
"CE","ELEMENT",30,"sdtme_std_etcd_v$$"
"CE","EPOCH",20,"sdtme_std_epoch_v$$"
"CE","ETCD",30,"sdtme_std_etcd_v$$"
"CE","VISIT",40,"sdtme_std_visit_v$$"
"CE","VISITDY",50,"sdtme_std_visitdy_v$$"
"CM","CMCLAS",25,"sdtme_cm_clas_v$$"
"CM","CMCLASCD",25,"sdtme_cm_clas_v$$"
"CM","CMDOSFRQ",60,"sdtme_cm_dosufrq_v$$"
"CM","CMDOSU",60,"sdtme_cm_dosufrq_v$$"
"CM","CMENDY",10,"sdtme_std_dy_v$$"
"CM","CMSTDY",10,"sdtme_std_dy_v$$"
"CM","DOMAIN",30,"sdtme_std_cd_v$$"
"CM","ELEMENT",50,"sdtme_std_etcd_v$$"
"CM","EPOCH",40,"sdtme_std_epoch_v$$"
"CM","ETCD",50,"sdtme_std_etcd_v$$"
"CO","CODY",10,"sdtme_std_dy_v$$"
"CO","DOMAIN",5,"sdtme_co_loadza_v$$"
"CO","IDVAR",1,"sdtme_co_idvar_v$$"
"CO","IDVARVAL",1,"sdtme_co_idvar_v$$"
"CO","VISIT",20,"sdtme_std_visit_v$$"
"CO","VISITDY",30,"sdtme_std_visitdy_v$$"
"CV","CVBLFL",20,"sdtme_std_blfl_v$$"
"CV","CVDY",10,"sdtme_std_dy_v$$"
"CV","CVSTRESC",50,"sdtme_std_stres_v$$"
"CV","CVSTRESN",50,"sdtme_std_stres_v$$"
"CV","CVSTRESU",40,"sdtme_std_stresu_v$$"
"CV","ELEMENT",80,"sdtme_std_etcd_v$$"
"CV","EPOCH",70,"sdtme_std_epoch_v$$"
"CV","ETCD",80,"sdtme_std_etcd_v$$"
"CV","VISIT",30,"sdtme_std_visit_v$$"
"CV","VISITDY",60,"sdtme_std_visitdy_v$$"
"DA","DADY",10,"sdtme_std_dy_v$$"
"DA","DASTRESC",50,"sdtme_std_stres_v$$"
"DA","DASTRESN",50,"sdtme_std_stres_v$$"
"DA","DASTRESU",40,"sdtme_std_stresu_v$$"
"DA","ELEMENT",70,"sdtme_std_etcd_v$$"
"DA","EPOCH",60,"sdtme_std_epoch_v$$"
"DA","ETCD",70,"sdtme_std_etcd_v$$"
"DA","VISIT",20,"sdtme_std_visit_v$$"
"DA","VISITDY",30,"sdtme_std_visitdy_v$$"
"DD","DDDY",10,"sdtme_std_dy_v$$"
"DD","DDSTRESC",20,"sdtme_std_stres_v$$"
"DD","ELEMENT",40,"sdtme_std_etcd_v$$"
"DD","EPOCH",30,"sdtme_std_epoch_v$$"
"DD","ETCD",40,"sdtme_std_etcd_v$$"
"DE","DEDY",10,"sdtme_std_dy_v$$"
"DE","DEENDY",10,"sdtme_std_dy_v$$"
"DE","DESTDY",10,"sdtme_std_dy_v$$"
"DE","ELEMENT",50,"sdtme_std_etcd_v$$"
"DE","EPOCH",40,"sdtme_std_epoch_v$$"
"DE","ETCD",50,"sdtme_std_etcd_v$$"
"DE","VISIT",20,"sdtme_std_visit_v$$"
"DE","VISITDY",30,"sdtme_std_visitdy_v$$"
"DM","ACTARM",20,"sdtme_dm_arm_v$$"
"DM","ACTARMCD",20,"sdtme_dm_arm_v$$"
"DM","AGE",30,"#age_at_baseline_rl"
"DM","AGEU",30,"#age_at_baseline_rl"
"DM","ARM",20,"sdtme_dm_arm_v$$"
"DM","ARMCD",20,"sdtme_dm_arm_v$$"
"DM","COUNTRY",5,"sdtme_dm_site_v$$"
"DM","DMDY",50,"sdtme_std_dy_v$$"
"DM","DOMAIN",1,"sdtme_pc_dtc_v$$"
"DM","DOMAIN",60,"sdtme_dm_iusubjid_v$$"
"DM","DTHDTC",40,"sdtme_dm_dth_v$$"
"DM","DTHFL",40,"sdtme_dm_dth_v$$"
"DM","INVID",5,"sdtme_dm_site_v$$"
"DM","INVNAM",5,"sdtme_dm_site_v$$"
"DM","RFENDTC",10,"sdtme_dm_rfdts_v$$"
"DM","RFICDTC",10,"sdtme_dm_rfdts_v$$"
"DM","RFPENDTC",10,"sdtme_dm_rfdts_v$$"
"DM","RFSTDTC",10,"sdtme_dm_rfdts_v$$"
"DM","RFXENDTC",10,"sdtme_dm_rfdts_v$$"
"DM","RFXSTDTC",10,"sdtme_dm_rfdts_v$$"
"DM","SITEID",5,"sdtme_dm_site_v$$"
"DO","VISIT",20,"sdtme_std_visit_v$$"
"DO","VISITDY",30,"sdtme_std_visitdy_v$$"
"DS","DOMAIN",45,"sdtme_ds_dth_v$$"
"DS","DSDY",20,"sdtme_std_dy_v$$"
"DS","DSENDY",20,"sdtme_std_dy_v$$"
"DS","DSEPRELI",70,"sdtme_std_epreli_v$$"
"DS","DSSTDY",20,"sdtme_std_dy_v$$"
"DS","DSTERM",10,"sdtme_ds_term_v$$"
"DS","ELEMENT",60,"sdtme_std_etcd_v$$"
"DS","EPOCH",50,"sdtme_std_epoch_v$$"
"DS","ETCD",60,"sdtme_std_etcd_v$$"
"DS","VISIT",30,"sdtme_std_visit_v$$"
"DS","VISITDY",40,"sdtme_std_visitdy_v$$"
"DT","DTDY",10,"sdtme_std_dy_v$$"
"DT","DTENDY",10,"sdtme_std_dy_v$$"
"DT","DTSTDY",10,"sdtme_std_dy_v$$"
"DT","VISIT",11,"sdtme_std_visit_v$$"
"DT","VISITDY",12,"sdtme_std_visitdy_v$$"
"DU","DUBLFL",20,"sdtme_std_blfl_v$$"
"DU","DUDY",10,"sdtme_std_dy_v$$"
"DU","DUENDY",10,"sdtme_std_dy_v$$"
"DU","DUSTRESC",60,"sdtme_std_stres_v$$"
"DU","DUSTRESN",60,"sdtme_std_stres_v$$"
"DU","DUSTRESU",50,"sdtme_std_stresu_v$$"
"DU","ELEMENT",80,"sdtme_std_etcd_v$$"
"DU","EPOCH",70,"sdtme_std_epoch_v$$"
"DU","ETCD",80,"sdtme_std_etcd_v$$"
"DU","VISIT",30,"sdtme_std_visit_v$$"
"DU","VISITDY",40,"sdtme_std_visitdy_v$$"
"DV","DOMAIN",5,"sdtme_dv_import_v$$"
"DX","DXENDY",10,"sdtme_std_dy_v$$"
"DX","DXSTDY",10,"sdtme_std_dy_v$$"
"DX","ELEMENT",30,"sdtme_std_etcd_v$$"
"DX","EPOCH",20,"sdtme_std_epoch_v$$"
"DX","ETCD",30,"sdtme_std_etcd_v$$"
"DX","VISIT",11,"sdtme_std_visit_v$$"
"DX","VISITDY",12,"sdtme_std_visitdy_v$$"
"EC","ECENDY",10,"sdtme_std_dy_v$$"
"EC","ECLNKID",40,"sdtme_ec_eclnkid_v$$"
"EC","ECSTDY",10,"sdtme_std_dy_v$$"
"EC","ELEMENT",30,"sdtme_std_etcd_v$$"
"EC","EPOCH",20,"sdtme_std_epoch_v$$"
"EC","ETCD",30,"sdtme_std_etcd_v$$"
"EC","VISIT",50,"sdtme_std_visit_v$$"
"EC","VISITDY",60,"sdtme_std_visitdy_v$$"
"EG","EGBLFL",20,"sdtme_std_blfl_v$$"
"EG","EGDY",10,"sdtme_std_dy_v$$"
"EG","EGENDY",10,"sdtme_std_dy_v$$"
"EG","EGSTRESC",50,"sdtme_std_stres_v$$"
"EG","EGSTRESN",50,"sdtme_std_stres_v$$"
"EG","EGSTRESU",40,"sdtme_std_stresu_v$$"
"EG","ELEMENT",80,"sdtme_std_etcd_v$$"
"EG","EPOCH",70,"sdtme_std_epoch_v$$"
"EG","ETCD",80,"sdtme_std_etcd_v$$"
"EG","VISIT",30,"sdtme_std_visit_v$$"
"EG","VISITDY",60,"sdtme_std_visitdy_v$$"
"EX","DOMAIN",10,"sdtme_ex_all_v$$"
"FA","ELEMENT",90,"sdtme_std_etcd_v$$"
"FA","EPOCH",80,"sdtme_std_epoch_v$$"
"FA","ETCD",90,"sdtme_std_etcd_v$$"
"FA","FABLFL",20,"sdtme_std_blfl_v$$"
"FA","FADY",10,"sdtme_std_dy_v$$"
"FA","FAENDY",10,"sdtme_std_dy_v$$"
"FA","FAORNRHI",50,"sdtme_std_ornr_v$$"
"FA","FAORNRLO",50,"sdtme_std_ornr_v$$"
"FA","FASTNRHI",70,"sdtme_std_stres_v$$"
"FA","FASTNRLO",70,"sdtme_std_stres_v$$"
"FA","FASTRESC",70,"sdtme_std_stres_v$$"
"FA","FASTRESN",70,"sdtme_std_stres_v$$"
"FA","FASTRESU",60,"sdtme_std_stresu_v$$"
"FA","VISIT",30,"sdtme_std_visit_v$$"
"FA","VISITDY",40,"sdtme_std_visitdy_v$$"
"FAXB","ELEMENT",90,"sdtme_std_etcd_v$$"
"FAXB","EPOCH",80,"sdtme_std_epoch_v$$"
"FAXB","ETCD",90,"sdtme_std_etcd_v$$"
"FAXB","FABLFL",20,"sdtme_std_blfl_v$$"
"FAXB","FADY",10,"sdtme_std_dy_v$$"
"FAXB","FAENDY",10,"sdtme_std_dy_v$$"
"FAXB","FAORNRHI",50,"sdtme_std_ornr_v$$"
"FAXB","FAORNRLO",50,"sdtme_std_ornr_v$$"
"FAXB","FASTNRHI",70,"sdtme_std_stres_v$$"
"FAXB","FASTNRLO",70,"sdtme_std_stres_v$$"
"FAXB","FASTRESC",70,"sdtme_std_stres_v$$"
"FAXB","FASTRESN",70,"sdtme_std_stres_v$$"
"FAXB","FASTRESU",60,"sdtme_std_stresu_v$$"
"FAXB","VISIT",30,"sdtme_std_visit_v$$"
"FAXB","VISITDY",40,"sdtme_std_visitdy_v$$"
"FT","ELEMENT",100,"sdtme_std_etcd_v$$"
"FT","EPOCH",90,"sdtme_std_epoch_v$$"
"FT","ETCD",100,"sdtme_std_etcd_v$$"
"FT","FTBLFL",20,"sdtme_std_blfl_v$$"
"FT","FTDY",10,"sdtme_std_dy_v$$"
"FT","FTSTRESC",70,"sdtme_std_stres_v$$"
"FT","FTSTRESN",70,"sdtme_std_stres_v$$"
"FT","FTSTRESU",60,"sdtme_std_stresu_v$$"
"FT","VISIT",30,"sdtme_std_visit_v$$"
"FT","VISITDY",80,"sdtme_std_visitdy_v$$"
"HO","ELEMENT",30,"sdtme_std_etcd_v$$"
"HO","EPOCH",20,"sdtme_std_epoch_v$$"
"HO","ETCD",30,"sdtme_std_etcd_v$$"
"HO","HODY",10,"sdtme_std_dy_v$$"
"HO","HOENDY",10,"sdtme_std_dy_v$$"
"HO","HOSTDY",10,"sdtme_std_dy_v$$"
"IE","DOMAIN",5,"sdtme_ie_update_v$$"
"IE","ELEMENT",50,"sdtme_std_etcd_v$$"
"IE","EPOCH",40,"sdtme_std_epoch_v$$"
"IE","ETCD",50,"sdtme_std_etcd_v$$"
"IE","IEDY",10,"sdtme_std_dy_v$$"
"IE","IESTRESC",60,"sdtme_std_stres_v$$"
"IE","VISIT",20,"sdtme_std_visit_v$$"
"IE","VISITDY",30,"sdtme_std_visitdy_v$$"
"IS","ELEMENT",80,"sdtme_std_etcd_v$$"
"IS","EPOCH",70,"sdtme_std_epoch_v$$"
"IS","ETCD",80,"sdtme_std_etcd_v$$"
"IS","ISBLFL",20,"sdtme_std_blfl_v$$"
"IS","ISDY",10,"sdtme_std_dy_v$$"
"IS","ISSTRESC",60,"sdtme_std_stres_v$$"
"IS","ISSTRESN",60,"sdtme_std_stres_v$$"
"IS","ISSTRESU",50,"sdtme_std_stresu_v$$"
"IS","VISIT",30,"sdtme_std_visit_v$$"
"IS","VISITDY",40,"sdtme_std_visitdy_v$$"
"LB","ELEMENT",100,"sdtme_std_etcd_v$$"
"LB","EPOCH",90,"sdtme_std_epoch_v$$"
"LB","ETCD",100,"sdtme_std_etcd_v$$"
"LB","LBBLFL",20,"sdtme_std_blfl_v$$"
"LB","LBDY",10,"sdtme_std_dy_v$$"
"LB","LBENDY",10,"sdtme_std_dy_v$$"
"LB","LBNRIND",50,"sdtme_std_nrind_v$$"
"LB","LBORNRHI",40,"sdtme_std_ornr_v$$"
"LB","LBORNRLO",40,"sdtme_std_ornr_v$$"
"LB","LBSTNRHI",70,"sdtme_std_stres_v$$"
"LB","LBSTNRLO",70,"sdtme_std_stres_v$$"
"LB","LBSTRESC",70,"sdtme_std_stres_v$$"
"LB","LBSTRESN",70,"sdtme_std_stres_v$$"
"LB","LBSTRESU",60,"sdtme_std_stresu_v$$"
"LB","VISIT",30,"sdtme_std_visit_v$$"
"LB","VISITDY",80,"sdtme_std_visitdy_v$$"
"MB","ELEMENT",80,"sdtme_std_etcd_v$$"
"MB","EPOCH",70,"sdtme_std_epoch_v$$"
"MB","ETCD",80,"sdtme_std_etcd_v$$"
"MB","MBBLFL",20,"sdtme_std_blfl_v$$"
"MB","MBDY",10,"sdtme_std_dy_v$$"
"MB","MBSTRESC",60,"sdtme_std_stres_v$$"
"MB","MBSTRESN",60,"sdtme_std_stres_v$$"
"MB","MBSTRESU",50,"sdtme_std_stresu_v$$"
"MB","VISIT",30,"sdtme_std_visit_v$$"
"MB","VISITDY",40,"sdtme_std_visitdy_v$$"
"MH","ELEMENT",60,"sdtme_std_etcd_v$$"
"MH","EPOCH",50,"sdtme_std_epoch_v$$"
"MH","ETCD",60,"sdtme_std_etcd_v$$"
"MH","MHBDSYCD",40,"sdtme_std_cd_v$$"
"MH","MHBODSYS",40,"sdtme_std_cd_v$$"
"MH","MHDECOD",40,"sdtme_std_cd_v$$"
"MH","MHDY",10,"sdtme_std_dy_v$$"
"MH","MHENDY",10,"sdtme_std_dy_v$$"
"MH","MHHLGT",40,"sdtme_std_cd_v$$"
"MH","MHHLGTCD",40,"sdtme_std_cd_v$$"
"MH","MHHLT",40,"sdtme_std_cd_v$$"
"MH","MHHLTCD",40,"sdtme_std_cd_v$$"
"MH","MHLLT",40,"sdtme_std_cd_v$$"
"MH","MHLLTCD",40,"sdtme_std_cd_v$$"
"MH","MHPTCD",40,"sdtme_std_cd_v$$"
"MH","MHSOC",40,"sdtme_std_cd_v$$"
"MH","MHSOCCD",40,"sdtme_std_cd_v$$"
"MH","MHSTDY",10,"sdtme_std_dy_v$$"
"MH","VISIT",20,"sdtme_std_visit_v$$"
"MH","VISITDY",30,"sdtme_std_visitdy_v$$"
"MI","ELEMENT",80,"sdtme_std_etcd_v$$"
"MI","EPOCH",70,"sdtme_std_epoch_v$$"
"MI","ETCD",80,"sdtme_std_etcd_v$$"
"MI","MIBLFL",20,"sdtme_std_blfl_v$$"
"MI","MIDY",10,"sdtme_std_dy_v$$"
"MI","MISTRESC",60,"sdtme_std_stres_v$$"
"MI","MISTRESN",60,"sdtme_std_stres_v$$"
"MI","MISTRESU",50,"sdtme_std_stresu_v$$"
"MI","VISIT",30,"sdtme_std_visit_v$$"
"MI","VISITDY",40,"sdtme_std_visitdy_v$$"
"ML","ELEMENT",60,"sdtme_std_etcd_v$$"
"ML","EPOCH",50,"sdtme_std_epoch_v$$"
"ML","ETCD",60,"sdtme_std_etcd_v$$"
"ML","MLDY",10,"sdtme_std_dy_v$$"
"ML","MLENDY",10,"sdtme_std_dy_v$$"
"ML","MLSTDY",10,"sdtme_std_dy_v$$"
"ML","VISIT",30,"sdtme_std_visit_v$$"
"ML","VISITDY",40,"sdtme_std_visitdy_v$$"
"MO","ELEMENT",80,"sdtme_std_etcd_v$$"
"MO","EPOCH",70,"sdtme_std_epoch_v$$"
"MO","ETCD",80,"sdtme_std_etcd_v$$"
"MO","MOBLFL",20,"sdtme_std_blfl_v$$"
"MO","MODY",10,"sdtme_std_dy_v$$"
"MO","MOSTRESC",60,"sdtme_std_stres_v$$"
"MO","MOSTRESN",60,"sdtme_std_stres_v$$"
"MO","MOSTRESU",50,"sdtme_std_stresu_v$$"
"MO","VISIT",30,"sdtme_std_visit_v$$"
"MO","VISITDY",40,"sdtme_std_visitdy_v$$"
"MS","ELEMENT",80,"sdtme_std_etcd_v$$"
"MS","EPOCH",70,"sdtme_std_epoch_v$$"
"MS","ETCD",80,"sdtme_std_etcd_v$$"
"MS","MSBLFL",20,"sdtme_std_blfl_v$$"
"MS","MSDY",10,"sdtme_std_dy_v$$"
"MS","MSSTRESC",60,"sdtme_std_stres_v$$"
"MS","MSSTRESN",60,"sdtme_std_stres_v$$"
"MS","MSSTRESU",50,"sdtme_std_stresu_v$$"
"MS","VISIT",30,"sdtme_std_visit_v$$"
"MS","VISITDY",40,"sdtme_std_visitdy_v$$"
"OE","ELEMENT",100,"sdtme_std_etcd_v$$"
"OE","EPOCH",90,"sdtme_std_epoch_v$$"
"OE","ETCD",100,"sdtme_std_etcd_v$$"
"OE","OEBLFL",20,"sdtme_std_blfl_v$$"
"OE","OEDY",10,"sdtme_std_dy_v$$"
"OE","OENRIND",50,"sdtme_std_nrind_v$$"
"OE","OEORNRHI",40,"sdtme_std_ornr_v$$"
"OE","OEORNRLO",40,"sdtme_std_ornr_v$$"
"OE","OESTNRHI",70,"sdtme_std_stres_v$$"
"OE","OESTNRLO",70,"sdtme_std_stres_v$$"
"OE","OESTRESC",70,"sdtme_std_stres_v$$"
"OE","OESTRESN",70,"sdtme_std_stres_v$$"
"OE","OESTRESU",60,"sdtme_std_stresu_v$$"
"OE","VISIT",30,"sdtme_std_visit_v$$"
"OE","VISITDY",80,"sdtme_std_visitdy_v$$"
"PC","DOMAIN",5,"sdtme_pc_analyte_v$$"
"PC","ELEMENT",50,"sdtme_std_etcd_v$$"
"PC","EPOCH",40,"sdtme_std_epoch_v$$"
"PC","ETCD",50,"sdtme_std_etcd_v$$"
"PC","PCBLFL",15,"sdtme_std_blfl_v$$"
"PC","PCDY",10,"sdtme_std_dy_v$$"
"PC","PCENDY",10,"sdtme_std_dy_v$$"
"PC","PCSTRESC",70,"sdtme_std_stres_v$$"
"PC","PCSTRESN",70,"sdtme_std_stres_v$$"
"PC","PCSTRESU",60,"sdtme_std_stresu_v$$"
"PC","VISIT",20,"sdtme_std_visit_v$$"
"PC","VISITDY",30,"sdtme_std_visitdy_v$$"
"PE","ELEMENT",70,"sdtme_std_etcd_v$$"
"PE","EPOCH",60,"sdtme_std_epoch_v$$"
"PE","ETCD",70,"sdtme_std_etcd_v$$"
"PE","PEBLFL",20,"sdtme_std_blfl_v$$"
"PE","PEDY",10,"sdtme_std_dy_v$$"
"PE","PESTRESC",50,"sdtme_std_stres_v$$"
"PE","VISIT",30,"sdtme_std_visit_v$$"
"PE","VISITDY",40,"sdtme_std_visitdy_v$$"
"PF","ELEMENT",50,"sdtme_std_etcd_v$$"
"PF","EPOCH",40,"sdtme_std_epoch_v$$"
"PF","ETCD",50,"sdtme_std_etcd_v$$"
"PF","PFBLFL",15,"sdtme_std_blfl_v$$"
"PF","PFDY",10,"sdtme_std_dy_v$$"
"PF","PFSTRESC",70,"sdtme_std_stres_v$$"
"PF","PFSTRESN",70,"sdtme_std_stres_v$$"
"PF","PFSTRESU",60,"sdtme_std_stresu_v$$"
"PF","VISIT",20,"sdtme_std_visit_v$$"
"PF","VISITDY",30,"sdtme_std_visitdy_v$$"
"PR","ELEMENT",60,"sdtme_std_etcd_v$$"
"PR","EPOCH",50,"sdtme_std_epoch_v$$"
"PR","ETCD",60,"sdtme_std_etcd_v$$"
"PR","PRDY",10,"sdtme_std_dy_v$$"
"PR","PRENDY",10,"sdtme_std_dy_v$$"
"PR","PRSTDY",10,"sdtme_std_dy_v$$"
"PR","VISIT",20,"sdtme_std_visit_v$$"
"PR","VISITDY",30,"sdtme_std_visitdy_v$$"
"QS","ELEMENT",60,"sdtme_std_etcd_v$$"
"QS","EPOCH",50,"sdtme_std_epoch_v$$"
"QS","ETCD",60,"sdtme_std_etcd_v$$"
"QS","QSBLFL",20,"sdtme_std_blfl_v$$"
"QS","QSDY",10,"sdtme_std_dy_v$$"
"QS","QSREASND",5,"sdtme_qs_stat_v$$"
"QS","QSSTAT",5,"sdtme_qs_stat_v$$"
"QS","QSSTRESC",80,"sdtme_std_stres_v$$"
"QS","QSSTRESN",80,"sdtme_std_stres_v$$"
"QS","QSSTRESU",70,"sdtme_std_stresu_v$$"
"QS","VISIT",30,"sdtme_std_visit_v$$"
"QS","VISITDY",40,"sdtme_std_visitdy_v$$"
"RE","ELEMENT",100,"sdtme_std_etcd_v$$"
"RE","EPOCH",90,"sdtme_std_epoch_v$$"
"RE","ETCD",100,"sdtme_std_etcd_v$$"
"RE","REBLFL",20,"sdtme_std_blfl_v$$"
"RE","REDY",10,"sdtme_std_dy_v$$"
"RE","REENDY",10,"sdtme_std_dy_v$$"
"RE","RENRIND",60,"sdtme_std_nrind_v$$"
"RE","REORNRHI",50,"sdtme_std_ornr_v$$"
"RE","REORNRLO",50,"sdtme_std_ornr_v$$"
"RE","RESTNRHI",80,"sdtme_std_stres_v$$"
"RE","RESTNRLO",80,"sdtme_std_stres_v$$"
"RE","RESTRESC",80,"sdtme_std_stres_v$$"
"RE","RESTRESN",80,"sdtme_std_stres_v$$"
"RE","RESTRESU",70,"sdtme_std_stresu_v$$"
"RE","VISIT",30,"sdtme_std_visit_v$$"
"RE","VISITDY",40,"sdtme_std_visitdy_v$$"
"RELREC","RDOMAIN",10,"sdtme_relrec_all_v$$"
"RP","ELEMENT",80,"sdtme_std_etcd_v$$"
"RP","EPOCH",70,"sdtme_std_epoch_v$$"
"RP","ETCD",80,"sdtme_std_etcd_v$$"
"RP","RPBLFL",20,"sdtme_std_blfl_v$$"
"RP","RPDY",10,"sdtme_std_dy_v$$"
"RP","RPENDY",10,"sdtme_std_dy_v$$"
"RP","RPSTRESC",60,"sdtme_std_stres_v$$"
"RP","RPSTRESN",60,"sdtme_std_stres_v$$"
"RP","RPSTRESU",50,"sdtme_std_stresu_v$$"
"RP","VISIT",30,"sdtme_std_visit_v$$"
"RP","VISITDY",40,"sdtme_std_visitdy_v$$"
"RS","ELEMENT",60,"sdtme_std_etcd_v$$"
"RS","EPOCH",50,"sdtme_std_epoch_v$$"
"RS","ETCD",60,"sdtme_std_etcd_v$$"
"RS","RSDY",10,"sdtme_std_dy_v$$"
"RS","RSSTRESC",40,"sdtme_std_stres_v$$"
"RS","RSSTRESN",40,"sdtme_std_stres_v$$"
"RS","RSSTRESU",39,"sdtme_std_stresu_v$$"
"RS","VISIT",20,"sdtme_std_visit_v$$"
"RS","VISITDY",30,"sdtme_std_visitdy_v$$"
"SC","ELEMENT",30,"sdtme_std_etcd_v$$"
"SC","EPOCH",20,"sdtme_std_epoch_v$$"
"SC","ETCD",30,"sdtme_std_etcd_v$$"
"SC","SCDY",10,"sdtme_std_dy_v$$"
"SC","SCSTRESC",50,"sdtme_std_stres_v$$"
"SC","SCSTRESN",50,"sdtme_std_stres_v$$"
"SC","SCSTRESU",40,"sdtme_std_stresu_v$$"
"SE","DOMAIN",10,"sdtme_se_all_v$$"
"SR","ELEMENT",50,"sdtme_std_etcd_v$$"
"SR","EPOCH",40,"sdtme_std_epoch_v$$"
"SR","ETCD",50,"sdtme_std_etcd_v$$"
"SR","SRDY",10,"sdtme_std_dy_v$$"
"SR","SRSTRESC",70,"sdtme_std_stres_v$$"
"SR","SRSTRESN",70,"sdtme_std_stres_v$$"
"SR","SRSTRESU",60,"sdtme_std_stresu_v$$"
"SR","VISIT",20,"sdtme_std_visit_v$$"
"SR","VISITDY",30,"sdtme_std_visitdy_v$$"
"SS","ELEMENT",60,"sdtme_std_etcd_v$$"
"SS","EPOCH",50,"sdtme_std_epoch_v$$"
"SS","ETCD",60,"sdtme_std_etcd_v$$"
"SS","SSDY",10,"sdtme_std_dy_v$$"
"SS","SSSTRESC",40,"sdtme_std_stres_v$$"
"SS","VISIT",20,"sdtme_std_visit_v$$"
"SS","VISITDY",30,"sdtme_std_visitdy_v$$"
"SU","ELEMENT",30,"sdtme_std_etcd_v$$"
"SU","EPOCH",20,"sdtme_std_epoch_v$$"
"SU","ETCD",30,"sdtme_std_etcd_v$$"
"SU","SUDY",10,"sdtme_std_dy_v$$"
"SU","SUENDY",10,"sdtme_std_dy_v$$"
"SU","SUSTDY",10,"sdtme_std_dy_v$$"
"SU","VISIT",40,"sdtme_std_visit_v$$"
"SU","VISITDY",50,"sdtme_std_visitdy_v$$"
"SV","ELEMENT",30,"sdtme_std_etcd_v$$"
"SV","EPOCH",20,"sdtme_std_epoch_v$$"
"SV","ETCD",30,"sdtme_std_etcd_v$$"
"SV","SVCNTMOD",60,"sdtme_sv_epchgi_v$$"
"SV","SVENDY",10,"sdtme_std_dy_v$$"
"SV","SVEPCHGI",60,"sdtme_sv_epchgi_v$$"
"SV","SVSTDY",10,"sdtme_std_dy_v$$"
"SV","VISIT",40,"sdtme_std_visit_v$$"
"SV","VISITDY",50,"sdtme_std_visitdy_v$$"
"TA","DOMAIN",10,"sdtme_ta_all_v$$"
"TE","DOMAIN",50,"sdtme_te_all_v$$"
"TI","DOMAIN",10,"sdtme_ti_all_v$$"
"TR","ELEMENT",70,"sdtme_std_etcd_v$$"
"TR","EPOCH",60,"sdtme_std_epoch_v$$"
"TR","ETCD",70,"sdtme_std_etcd_v$$"
"TR","TRDY",10,"sdtme_std_dy_v$$"
"TR","TRSTRESC",50,"sdtme_std_stres_v$$"
"TR","TRSTRESN",50,"sdtme_std_stres_v$$"
"TR","TRSTRESU",40,"sdtme_std_stresu_v$$"
"TR","VISIT",20,"sdtme_std_visit_v$$"
"TR","VISITDY",30,"sdtme_std_visitdy_v$$"
"TS","DOMAIN",10,"sdtme_ts_all_v$$"
"TU","ELEMENT",60,"sdtme_std_etcd_v$$"
"TU","EPOCH",50,"sdtme_std_epoch_v$$"
"TU","ETCD",60,"sdtme_std_etcd_v$$"
"TU","TUDY",10,"sdtme_std_dy_v$$"
"TU","TUSTRESC",40,"sdtme_std_stres_v$$"
"TU","VISIT",20,"sdtme_std_visit_v$$"
"TU","VISITDY",30,"sdtme_std_visitdy_v$$"
"TV","DOMAIN",10,"sdtme_tv_all_v$$"
"VS","ELEMENT",80,"sdtme_std_etcd_v$$"
"VS","EPOCH",70,"sdtme_std_epoch_v$$"
"VS","ETCD",80,"sdtme_std_etcd_v$$"
"VS","VISIT",30,"sdtme_std_visit_v$$"
"VS","VISITDY",60,"sdtme_std_visitdy_v$$"
"VS","VSBLFL",20,"sdtme_std_blfl_v$$"
"VS","VSDY",10,"sdtme_std_dy_v$$"
"VS","VSSTRESC",50,"sdtme_std_stres_v$$"
"VS","VSSTRESN",50,"sdtme_std_stres_v$$"
"VS","VSSTRESU",40,"sdtme_std_stresu_v$$"
"XA","ELEMENT",80,"sdtme_std_etcd_v$$"
"XA","EPOCH",70,"sdtme_std_epoch_v$$"
"XA","ETCD",80,"sdtme_std_etcd_v$$"
"XA","VISIT",30,"sdtme_std_visit_v$$"
"XA","VISITDY",40,"sdtme_std_visitdy_v$$"
"XA","XABLFL",20,"sdtme_std_blfl_v$$"
"XA","XADY",10,"sdtme_std_dy_v$$"
"XA","XAENDY",10,"sdtme_std_dy_v$$"
"XA","XASTRESC",60,"sdtme_std_stres_v$$"
"XA","XASTRESN",60,"sdtme_std_stres_v$$"
"XA","XASTRESU",50,"sdtme_std_stresu_v$$"
"XB","ELEMENT",30,"sdtme_std_etcd_v$$"
"XB","EPOCH",20,"sdtme_std_epoch_v$$"
"XB","ETCD",30,"sdtme_std_etcd_v$$"
"XB","XBENDY",10,"sdtme_std_dy_v$$"
"XB","XBSTDY",10,"sdtme_std_dy_v$$"
"XD","DOMAIN",5,"sdtme_dv_import_v$$"
"XH","ELEMENT",30,"sdtme_std_etcd_v$$"
"XH","EPOCH",20,"sdtme_std_epoch_v$$"
"XH","ETCD",30,"sdtme_std_etcd_v$$"
"XH","XHENDY",10,"sdtme_std_dy_v$$"
"XH","XHSTDY",10,"sdtme_std_dy_v$$"
"XL","LBSTNRHI",20,"sdtme_std_xstres_v$$"
"XL","LBSTNRLO",20,"sdtme_std_xstres_v$$"
"XL","LBSTRESC",20,"sdtme_std_xstres_v$$"
"XL","LBSTRESN",20,"sdtme_std_xstres_v$$"
"XL","LBSTRESU",10,"sdtme_std_xstresu_v$$"
"XR","ELEMENT",30,"sdtme_std_etcd_v$$"
"XR","EPOCH",20,"sdtme_std_epoch_v$$"
"XR","ETCD",30,"sdtme_std_etcd_v$$"
"XR","XRENDY",10,"sdtme_std_dy_v$$"
"XR","XRSTDY",10,"sdtme_std_dy_v$$"
"XS","ELEMENT",80,"sdtme_std_etcd_v$$"
"XS","EPOCH",70,"sdtme_std_epoch_v$$"
"XS","ETCD",80,"sdtme_std_etcd_v$$"
"XS","VISIT",30,"sdtme_std_visit_v$$"
"XS","VISITDY",40,"sdtme_std_visitdy_v$$"
"XS","XSBLFL",20,"sdtme_std_blfl_v$$"
"XS","XSDY",10,"sdtme_std_dy_v$$"
"XS","XSENDY",10,"sdtme_std_dy_v$$"
"XS","XSSTRESC",60,"sdtme_std_stres_v$$"
"XS","XSSTRESN",60,"sdtme_std_stres_v$$"
"XS","XSSTRESU",50,"sdtme_std_stresu_v$$"
"XV","VSSTRESC",20,"sdtme_std_xstres_v$$"
"XV","VSSTRESN",20,"sdtme_std_xstres_v$$"
"XV","VSSTRESU",10,"sdtme_std_xstresu_v$$"
"ZA","ELEMENT",100,"sdtme_std_etcd_v$$"
"ZA","EPOCH",90,"sdtme_std_epoch_v$$"
"ZA","ETCD",100,"sdtme_std_etcd_v$$"
"ZA","VISIT",30,"sdtme_std_visit_v$$"
"ZA","VISITDY",80,"sdtme_std_visitdy_v$$"
"ZA","ZABLFL",20,"sdtme_std_blfl_v$$"
"ZA","ZADY",10,"sdtme_std_dy_v$$"
"ZA","ZAORNRHI",40,"sdtme_std_ornr_v$$"
"ZA","ZAORNRLO",40,"sdtme_std_ornr_v$$"
"ZA","ZASTNRHI",70,"sdtme_std_stres_v$$"
"ZA","ZASTNRLO",70,"sdtme_std_stres_v$$"
"ZA","ZASTRESC",70,"sdtme_std_stres_v$$"
"ZA","ZASTRESN",70,"sdtme_std_stres_v$$"
"ZA","ZASTRESU",60,"sdtme_std_stresu_v$$"
"ZE","ELEMENT",30,"sdtme_std_etcd_v$$"
"ZE","EPOCH",20,"sdtme_std_epoch_v$$"
"ZE","ETCD",30,"sdtme_std_etcd_v$$"
"ZE","VISIT",40,"sdtme_std_visit_v$$"
"ZE","VISITDY",50,"sdtme_std_visitdy_v$$"
"ZE","ZEENDY",10,"sdtme_std_dy_v$$"
"ZE","ZESTDY",10,"sdtme_std_dy_v$$"
"[NEW]",,"        .",
