{
    "_links": {
        "parentClass": {
            "href": "/mdr/sendig/3-0/classes/Findings",
            "title": "Findings Observation Class",
            "type": "Class"
        },
        "parentProduct": {
            "href": "/mdr/sendig/3-0",
            "title": "Standard for Exchange of Nonclinical Data Implementation Guide: Nonclinical Studies Version 3.0 (Final)",
            "type": "Implementation Guide"
        },
        "self": {
            "href": "/mdr/sendig/3-0/datasets/BG",
            "title": "Body Weight Gains",
            "type": "SDTM Dataset"
        }
    },
    "datasetStructure": "One record per test per interval per subject",
    "datasetVariables": [
        {
            "_links": {
                "modelClassVariable": {
                    "href": "/mdr/sdtm/1-2/classes/GeneralObservations/variables/STUDYID",
                    "title": "Study Identifier",
                    "type": "Class Variable"
                },
                "parentDataset": {
                    "href": "/mdr/sendig/3-0/datasets/BG",
                    "title": "Body Weight Gains",
                    "type": "SDTM Dataset"
                },
                "parentProduct": {
                    "href": "/mdr/sendig/3-0",
                    "title": "Standard for Exchange of Nonclinical Data Implementation Guide: Nonclinical Studies Version 3.0 (Final)",
                    "type": "Implementation Guide"
                },
                "rootItem": {
                    "href": "/mdr/root/sendig/datasets/BG/variables/STUDYID",
                    "title": "Version-agnostic anchor resource for SENDIG variable BG.STUDYID",
                    "type": "Root Data Element"
                },
                "self": {
                    "href": "/mdr/sendig/3-0/datasets/BG/variables/STUDYID",
                    "title": "Study Identifier",
                    "type": "SDTM Dataset Variable"
                }
            },
            "core": "Req",
            "description": "Unique identifier for a study.",
            "label": "Study Identifier",
            "name": "STUDYID",
            "ordinal": "1",
            "role": "Identifier",
            "simpleDatatype": "Char"
        },
        {
            "_links": {
                "modelClassVariable": {
                    "href": "/mdr/sdtm/1-2/classes/GeneralObservations/variables/DOMAIN",
                    "title": "Domain Abbreviation",
                    "type": "Class Variable"
                },
                "parentDataset": {
                    "href": "/mdr/sendig/3-0/datasets/BG",
                    "title": "Body Weight Gains",
                    "type": "SDTM Dataset"
                },
                "parentProduct": {
                    "href": "/mdr/sendig/3-0",
                    "title": "Standard for Exchange of Nonclinical Data Implementation Guide: Nonclinical Studies Version 3.0 (Final)",
                    "type": "Implementation Guide"
                },
                "rootItem": {
                    "href": "/mdr/root/sendig/datasets/BG/variables/DOMAIN",
                    "title": "Version-agnostic anchor resource for SENDIG variable BG.DOMAIN",
                    "type": "Root Data Element"
                },
                "self": {
                    "href": "/mdr/sendig/3-0/datasets/BG/variables/DOMAIN",
                    "title": "Domain Abbreviation",
                    "type": "SDTM Dataset Variable"
                }
            },
            "core": "Req",
            "description": "Two-character abbreviation for the domain.",
            "label": "Domain Abbreviation",
            "name": "DOMAIN",
            "ordinal": "2",
            "role": "Identifier",
            "simpleDatatype": "Char",
            "valueList": [
                "BG"
            ]
        },
        {
            "_links": {
                "modelClassVariable": {
                    "href": "/mdr/sdtm/1-2/classes/GeneralObservations/variables/USUBJID",
                    "title": "Unique Subject Identifier",
                    "type": "Class Variable"
                },
                "parentDataset": {
                    "href": "/mdr/sendig/3-0/datasets/BG",
                    "title": "Body Weight Gains",
                    "type": "SDTM Dataset"
                },
                "parentProduct": {
                    "href": "/mdr/sendig/3-0",
                    "title": "Standard for Exchange of Nonclinical Data Implementation Guide: Nonclinical Studies Version 3.0 (Final)",
                    "type": "Implementation Guide"
                },
                "rootItem": {
                    "href": "/mdr/root/sendig/datasets/BG/variables/USUBJID",
                    "title": "Version-agnostic anchor resource for SENDIG variable BG.USUBJID",
                    "type": "Root Data Element"
                },
                "self": {
                    "href": "/mdr/sendig/3-0/datasets/BG/variables/USUBJID",
                    "title": "Unique Subject Identifier",
                    "type": "SDTM Dataset Variable"
                }
            },
            "core": "Req",
            "description": "Identifier used to uniquely identify a subject across all studies for all applications or submissions involving the product.",
            "label": "Unique Subject Identifier",
            "name": "USUBJID",
            "ordinal": "3",
            "role": "Identifier",
            "simpleDatatype": "Char"
        },
        {
            "_links": {
                "modelClassVariable": {
                    "href": "/mdr/sdtm/1-2/classes/GeneralObservations/variables/--SEQ",
                    "title": "Sequence Number",
                    "type": "Class Variable"
                },
                "parentDataset": {
                    "href": "/mdr/sendig/3-0/datasets/BG",
                    "title": "Body Weight Gains",
                    "type": "SDTM Dataset"
                },
                "parentProduct": {
                    "href": "/mdr/sendig/3-0",
                    "title": "Standard for Exchange of Nonclinical Data Implementation Guide: Nonclinical Studies Version 3.0 (Final)",
                    "type": "Implementation Guide"
                },
                "rootItem": {
                    "href": "/mdr/root/sendig/datasets/BG/variables/BGSEQ",
                    "title": "Version-agnostic anchor resource for SENDIG variable BG.BGSEQ",
                    "type": "Root Data Element"
                },
                "self": {
                    "href": "/mdr/sendig/3-0/datasets/BG/variables/BGSEQ",
                    "title": "Sequence Number",
                    "type": "SDTM Dataset Variable"
                }
            },
            "core": "Req",
            "description": "Sequence number given to ensure uniqueness of subject records within a domain. May be any valid number.",
            "label": "Sequence Number",
            "name": "BGSEQ",
            "ordinal": "4",
            "role": "Identifier",
            "simpleDatatype": "Num"
        },
        {
            "_links": {
                "codelist": [
                    {
                        "href": "/mdr/root/ct/sendct/codelists/C89960",
                        "title": "Version-agnostic anchor resource for codelist C89960",
                        "type": "Root Value Domain"
                    }
                ],
                "modelClassVariable": {
                    "href": "/mdr/sdtm/1-2/classes/Findings/variables/--TESTCD",
                    "title": "Short Name of Measurement, Test or Examination",
                    "type": "Class Variable"
                },
                "parentDataset": {
                    "href": "/mdr/sendig/3-0/datasets/BG",
                    "title": "Body Weight Gains",
                    "type": "SDTM Dataset"
                },
                "parentProduct": {
                    "href": "/mdr/sendig/3-0",
                    "title": "Standard for Exchange of Nonclinical Data Implementation Guide: Nonclinical Studies Version 3.0 (Final)",
                    "type": "Implementation Guide"
                },
                "rootItem": {
                    "href": "/mdr/root/sendig/datasets/BG/variables/BGTESTCD",
                    "title": "Version-agnostic anchor resource for SENDIG variable BG.BGTESTCD",
                    "type": "Root Data Element"
                },
                "self": {
                    "href": "/mdr/sendig/3-0/datasets/BG/variables/BGTESTCD",
                    "title": "Test Short Name",
                    "type": "SDTM Dataset Variable"
                }
            },
            "core": "Req",
            "description": "Short name of the measurement, test, or examination described in BGTEST. It can be used as a column name when converting a dataset from a vertical to a horizontal format. The value in BGTESTCD cannot be longer than 8 characters, nor can it start with a number (e.g., \"1TEST\" is not valid). BGTESTCD cannot contain characters other than letters, numbers, or underscores.",
            "label": "Test Short Name",
            "name": "BGTESTCD",
            "ordinal": "5",
            "role": "Topic",
            "simpleDatatype": "Char"
        },
        {
            "_links": {
                "codelist": [
                    {
                        "href": "/mdr/root/ct/sendct/codelists/C89959",
                        "title": "Version-agnostic anchor resource for codelist C89959",
                        "type": "Root Value Domain"
                    }
                ],
                "modelClassVariable": {
                    "href": "/mdr/sdtm/1-2/classes/Findings/variables/--TEST",
                    "title": "Name of Measurement, Test or Examination",
                    "type": "Class Variable"
                },
                "parentDataset": {
                    "href": "/mdr/sendig/3-0/datasets/BG",
                    "title": "Body Weight Gains",
                    "type": "SDTM Dataset"
                },
                "parentProduct": {
                    "href": "/mdr/sendig/3-0",
                    "title": "Standard for Exchange of Nonclinical Data Implementation Guide: Nonclinical Studies Version 3.0 (Final)",
                    "type": "Implementation Guide"
                },
                "rootItem": {
                    "href": "/mdr/root/sendig/datasets/BG/variables/BGTEST",
                    "title": "Version-agnostic anchor resource for SENDIG variable BG.BGTEST",
                    "type": "Root Data Element"
                },
                "self": {
                    "href": "/mdr/sendig/3-0/datasets/BG/variables/BGTEST",
                    "title": "Test Name",
                    "type": "SDTM Dataset Variable"
                }
            },
            "core": "Req",
            "description": "Long name for BGTESTCD. The value in BGTEST cannot be longer than 40 characters.",
            "label": "Test Name",
            "name": "BGTEST",
            "ordinal": "6",
            "role": "Synonym Qualifier",
            "simpleDatatype": "Char"
        },
        {
            "_links": {
                "modelClassVariable": {
                    "href": "/mdr/sdtm/1-2/classes/Findings/variables/--ORRES",
                    "title": "Result or Finding in Original Units",
                    "type": "Class Variable"
                },
                "parentDataset": {
                    "href": "/mdr/sendig/3-0/datasets/BG",
                    "title": "Body Weight Gains",
                    "type": "SDTM Dataset"
                },
                "parentProduct": {
                    "href": "/mdr/sendig/3-0",
                    "title": "Standard for Exchange of Nonclinical Data Implementation Guide: Nonclinical Studies Version 3.0 (Final)",
                    "type": "Implementation Guide"
                },
                "rootItem": {
                    "href": "/mdr/root/sendig/datasets/BG/variables/BGORRES",
                    "title": "Version-agnostic anchor resource for SENDIG variable BG.BGORRES",
                    "type": "Root Data Element"
                },
                "self": {
                    "href": "/mdr/sendig/3-0/datasets/BG/variables/BGORRES",
                    "title": "Result or Findings as Collected",
                    "type": "SDTM Dataset Variable"
                }
            },
            "core": "Exp",
            "description": "Result of the measurement or finding as originally recorded.",
            "label": "Result or Findings as Collected",
            "name": "BGORRES",
            "ordinal": "7",
            "role": "Result Qualifier",
            "simpleDatatype": "Char"
        },
        {
            "_links": {
                "codelist": [
                    {
                        "href": "/mdr/root/ct/sendct/codelists/C71620",
                        "title": "Version-agnostic anchor resource for codelist C71620",
                        "type": "Root Value Domain"
                    }
                ],
                "modelClassVariable": {
                    "href": "/mdr/sdtm/1-2/classes/Findings/variables/--ORRESU",
                    "title": "Original Units",
                    "type": "Class Variable"
                },
                "parentDataset": {
                    "href": "/mdr/sendig/3-0/datasets/BG",
                    "title": "Body Weight Gains",
                    "type": "SDTM Dataset"
                },
                "parentProduct": {
                    "href": "/mdr/sendig/3-0",
                    "title": "Standard for Exchange of Nonclinical Data Implementation Guide: Nonclinical Studies Version 3.0 (Final)",
                    "type": "Implementation Guide"
                },
                "rootItem": {
                    "href": "/mdr/root/sendig/datasets/BG/variables/BGORRESU",
                    "title": "Version-agnostic anchor resource for SENDIG variable BG.BGORRESU",
                    "type": "Root Data Element"
                },
                "self": {
                    "href": "/mdr/sendig/3-0/datasets/BG/variables/BGORRESU",
                    "title": "Unit of the Original Result",
                    "type": "SDTM Dataset Variable"
                }
            },
            "core": "Exp",
            "description": "The unit for the original result. The unit of the original result should be mapped to a synonymous unit on the Controlled Terminology list.",
            "label": "Unit of the Original Result",
            "name": "BGORRESU",
            "ordinal": "8",
            "role": "Variable Qualifier",
            "simpleDatatype": "Char"
        },
        {
            "_links": {
                "modelClassVariable": {
                    "href": "/mdr/sdtm/1-2/classes/Findings/variables/--STRESC",
                    "title": "Result or Finding in Standard Format",
                    "type": "Class Variable"
                },
                "parentDataset": {
                    "href": "/mdr/sendig/3-0/datasets/BG",
                    "title": "Body Weight Gains",
                    "type": "SDTM Dataset"
                },
                "parentProduct": {
                    "href": "/mdr/sendig/3-0",
                    "title": "Standard for Exchange of Nonclinical Data Implementation Guide: Nonclinical Studies Version 3.0 (Final)",
                    "type": "Implementation Guide"
                },
                "rootItem": {
                    "href": "/mdr/root/sendig/datasets/BG/variables/BGSTRESC",
                    "title": "Version-agnostic anchor resource for SENDIG variable BG.BGSTRESC",
                    "type": "Root Data Element"
                },
                "self": {
                    "href": "/mdr/sendig/3-0/datasets/BG/variables/BGSTRESC",
                    "title": "Standardized Result in Character Format",
                    "type": "SDTM Dataset Variable"
                }
            },
            "core": "Exp",
            "description": "Contains the result value for all findings or derived from BGORRES in a standard format or standard units. BGSTRESC should store all results or findings in character format; if results are numeric, they should also be stored in numeric format in BGSTRESN.",
            "label": "Standardized Result in Character Format",
            "name": "BGSTRESC",
            "ordinal": "9",
            "role": "Result Qualifier",
            "simpleDatatype": "Char"
        },
        {
            "_links": {
                "modelClassVariable": {
                    "href": "/mdr/sdtm/1-2/classes/Findings/variables/--STRESN",
                    "title": "Numeric Result/Finding in Standard Units",
                    "type": "Class Variable"
                },
                "parentDataset": {
                    "href": "/mdr/sendig/3-0/datasets/BG",
                    "title": "Body Weight Gains",
                    "type": "SDTM Dataset"
                },
                "parentProduct": {
                    "href": "/mdr/sendig/3-0",
                    "title": "Standard for Exchange of Nonclinical Data Implementation Guide: Nonclinical Studies Version 3.0 (Final)",
                    "type": "Implementation Guide"
                },
                "rootItem": {
                    "href": "/mdr/root/sendig/datasets/BG/variables/BGSTRESN",
                    "title": "Version-agnostic anchor resource for SENDIG variable BG.BGSTRESN",
                    "type": "Root Data Element"
                },
                "self": {
                    "href": "/mdr/sendig/3-0/datasets/BG/variables/BGSTRESN",
                    "title": "Standardized Result in Numeric Format",
                    "type": "SDTM Dataset Variable"
                }
            },
            "core": "Exp",
            "description": "Used for results or findings in standard format; contains the numeric form of BGSTRESC. BGSTRESN should store all numeric test results or findings.",
            "label": "Standardized Result in Numeric Format",
            "name": "BGSTRESN",
            "ordinal": "10",
            "role": "Result Qualifier",
            "simpleDatatype": "Num"
        },
        {
            "_links": {
                "codelist": [
                    {
                        "href": "/mdr/root/ct/sendct/codelists/C71620",
                        "title": "Version-agnostic anchor resource for codelist C71620",
                        "type": "Root Value Domain"
                    }
                ],
                "modelClassVariable": {
                    "href": "/mdr/sdtm/1-2/classes/Findings/variables/--STRESU",
                    "title": "Standard Units",
                    "type": "Class Variable"
                },
                "parentDataset": {
                    "href": "/mdr/sendig/3-0/datasets/BG",
                    "title": "Body Weight Gains",
                    "type": "SDTM Dataset"
                },
                "parentProduct": {
                    "href": "/mdr/sendig/3-0",
                    "title": "Standard for Exchange of Nonclinical Data Implementation Guide: Nonclinical Studies Version 3.0 (Final)",
                    "type": "Implementation Guide"
                },
                "rootItem": {
                    "href": "/mdr/root/sendig/datasets/BG/variables/BGSTRESU",
                    "title": "Version-agnostic anchor resource for SENDIG variable BG.BGSTRESU",
                    "type": "Root Data Element"
                },
                "self": {
                    "href": "/mdr/sendig/3-0/datasets/BG/variables/BGSTRESU",
                    "title": "Unit of the Standardized Result",
                    "type": "SDTM Dataset Variable"
                }
            },
            "core": "Exp",
            "description": "Standardized unit used for BGSTRESC or BGSTRESN.",
            "label": "Unit of the Standardized Result",
            "name": "BGSTRESU",
            "ordinal": "11",
            "role": "Variable Qualifier",
            "simpleDatatype": "Char"
        },
        {
            "_links": {
                "codelist": [
                    {
                        "href": "/mdr/root/ct/sendct/codelists/C66789",
                        "title": "Version-agnostic anchor resource for codelist C66789",
                        "type": "Root Value Domain"
                    }
                ],
                "modelClassVariable": {
                    "href": "/mdr/sdtm/1-2/classes/Findings/variables/--STAT",
                    "title": "Completion Status",
                    "type": "Class Variable"
                },
                "parentDataset": {
                    "href": "/mdr/sendig/3-0/datasets/BG",
                    "title": "Body Weight Gains",
                    "type": "SDTM Dataset"
                },
                "parentProduct": {
                    "href": "/mdr/sendig/3-0",
                    "title": "Standard for Exchange of Nonclinical Data Implementation Guide: Nonclinical Studies Version 3.0 (Final)",
                    "type": "Implementation Guide"
                },
                "rootItem": {
                    "href": "/mdr/root/sendig/datasets/BG/variables/BGSTAT",
                    "title": "Version-agnostic anchor resource for SENDIG variable BG.BGSTAT",
                    "type": "Root Data Element"
                },
                "self": {
                    "href": "/mdr/sendig/3-0/datasets/BG/variables/BGSTAT",
                    "title": "Examination Status",
                    "type": "SDTM Dataset Variable"
                }
            },
            "core": "Perm",
            "description": "Used to indicate when a result is missing. Should be null if a result exists in BGORRES.",
            "label": "Examination Status",
            "name": "BGSTAT",
            "ordinal": "12",
            "role": "Record Qualifier",
            "simpleDatatype": "Char"
        },
        {
            "_links": {
                "modelClassVariable": {
                    "href": "/mdr/sdtm/1-2/classes/Findings/variables/--REASND",
                    "title": "Reason Not Done",
                    "type": "Class Variable"
                },
                "parentDataset": {
                    "href": "/mdr/sendig/3-0/datasets/BG",
                    "title": "Body Weight Gains",
                    "type": "SDTM Dataset"
                },
                "parentProduct": {
                    "href": "/mdr/sendig/3-0",
                    "title": "Standard for Exchange of Nonclinical Data Implementation Guide: Nonclinical Studies Version 3.0 (Final)",
                    "type": "Implementation Guide"
                },
                "rootItem": {
                    "href": "/mdr/root/sendig/datasets/BG/variables/BGREASND",
                    "title": "Version-agnostic anchor resource for SENDIG variable BG.BGREASND",
                    "type": "Root Data Element"
                },
                "self": {
                    "href": "/mdr/sendig/3-0/datasets/BG/variables/BGREASND",
                    "title": "Reason Not Done",
                    "type": "SDTM Dataset Variable"
                }
            },
            "core": "Perm",
            "description": "Describes why BGSTAT is NOT DONE, such as MISSING BODY WEIGHT.",
            "label": "Reason Not Done",
            "name": "BGREASND",
            "ordinal": "13",
            "role": "Record Qualifier",
            "simpleDatatype": "Char"
        },
        {
            "_links": {
                "codelist": [
                    {
                        "href": "/mdr/root/ct/sendct/codelists/C66742",
                        "title": "Version-agnostic anchor resource for codelist C66742",
                        "type": "Root Value Domain"
                    }
                ],
                "parentDataset": {
                    "href": "/mdr/sendig/3-0/datasets/BG",
                    "title": "Body Weight Gains",
                    "type": "SDTM Dataset"
                },
                "parentProduct": {
                    "href": "/mdr/sendig/3-0",
                    "title": "Standard for Exchange of Nonclinical Data Implementation Guide: Nonclinical Studies Version 3.0 (Final)",
                    "type": "Implementation Guide"
                },
                "rootItem": {
                    "href": "/mdr/root/sendig/datasets/BG/variables/BGEXCLFL",
                    "title": "Version-agnostic anchor resource for SENDIG variable BG.BGEXCLFL",
                    "type": "Root Data Element"
                },
                "self": {
                    "href": "/mdr/sendig/3-0/datasets/BG/variables/BGEXCLFL",
                    "title": "Exclusion Flag",
                    "type": "SDTM Dataset Variable"
                }
            },
            "core": "Perm",
            "description": "Y if the result should be excluded from all calculations, otherwise null.",
            "label": "Exclusion Flag",
            "name": "BGEXCLFL",
            "ordinal": "14",
            "role": "Record Qualifier",
            "simpleDatatype": "Char"
        },
        {
            "_links": {
                "parentDataset": {
                    "href": "/mdr/sendig/3-0/datasets/BG",
                    "title": "Body Weight Gains",
                    "type": "SDTM Dataset"
                },
                "parentProduct": {
                    "href": "/mdr/sendig/3-0",
                    "title": "Standard for Exchange of Nonclinical Data Implementation Guide: Nonclinical Studies Version 3.0 (Final)",
                    "type": "Implementation Guide"
                },
                "rootItem": {
                    "href": "/mdr/root/sendig/datasets/BG/variables/BGREASEX",
                    "title": "Version-agnostic anchor resource for SENDIG variable BG.BGREASEX",
                    "type": "Root Data Element"
                },
                "self": {
                    "href": "/mdr/sendig/3-0/datasets/BG/variables/BGREASEX",
                    "title": "Reason for Exclusion",
                    "type": "SDTM Dataset Variable"
                }
            },
            "core": "Perm",
            "description": "The reason the result should be excluded from all calculations. Used only when BGEXCLFL is Y.",
            "label": "Reason for Exclusion",
            "name": "BGREASEX",
            "ordinal": "15",
            "role": "Record Qualifier",
            "simpleDatatype": "Char"
        },
        {
            "_links": {
                "modelClassVariable": {
                    "href": "/mdr/sdtm/1-2/classes/GeneralObservations/variables/--DTC",
                    "title": "Date/Time of Collection",
                    "type": "Class Variable"
                },
                "parentDataset": {
                    "href": "/mdr/sendig/3-0/datasets/BG",
                    "title": "Body Weight Gains",
                    "type": "SDTM Dataset"
                },
                "parentProduct": {
                    "href": "/mdr/sendig/3-0",
                    "title": "Standard for Exchange of Nonclinical Data Implementation Guide: Nonclinical Studies Version 3.0 (Final)",
                    "type": "Implementation Guide"
                },
                "rootItem": {
                    "href": "/mdr/root/sendig/datasets/BG/variables/BGDTC",
                    "title": "Version-agnostic anchor resource for SENDIG variable BG.BGDTC",
                    "type": "Root Data Element"
                },
                "self": {
                    "href": "/mdr/sendig/3-0/datasets/BG/variables/BGDTC",
                    "title": "Date/Time Animal Weighed",
                    "type": "SDTM Dataset Variable"
                }
            },
            "core": "Exp",
            "describedValueDomain": "ISO 8601",
            "description": "Date/time of the start of the weight interval in ISO 8601 format. This must be populated when BGTESTCD is BWGAINA.",
            "label": "Date/Time Animal Weighed",
            "name": "BGDTC",
            "ordinal": "16",
            "role": "Timing",
            "simpleDatatype": "Char"
        },
        {
            "_links": {
                "modelClassVariable": {
                    "href": "/mdr/sdtm/1-2/classes/GeneralObservations/variables/--ENDTC",
                    "title": "End Date/Time of Observation",
                    "type": "Class Variable"
                },
                "parentDataset": {
                    "href": "/mdr/sendig/3-0/datasets/BG",
                    "title": "Body Weight Gains",
                    "type": "SDTM Dataset"
                },
                "parentProduct": {
                    "href": "/mdr/sendig/3-0",
                    "title": "Standard for Exchange of Nonclinical Data Implementation Guide: Nonclinical Studies Version 3.0 (Final)",
                    "type": "Implementation Guide"
                },
                "rootItem": {
                    "href": "/mdr/root/sendig/datasets/BG/variables/BGENDTC",
                    "title": "Version-agnostic anchor resource for SENDIG variable BG.BGENDTC",
                    "type": "Root Data Element"
                },
                "self": {
                    "href": "/mdr/sendig/3-0/datasets/BG/variables/BGENDTC",
                    "title": "End Date/Time Animal Weighed",
                    "type": "SDTM Dataset Variable"
                }
            },
            "core": "Exp",
            "describedValueDomain": "ISO 8601",
            "description": "Date/time of the end of the weight interval in ISO 8601 format. This must be populated when BGTESTCD is BWGAINA.",
            "label": "End Date/Time Animal Weighed",
            "name": "BGENDTC",
            "ordinal": "17",
            "role": "Timing",
            "simpleDatatype": "Char"
        },
        {
            "_links": {
                "modelClassVariable": {
                    "href": "/mdr/sdtm/1-2/classes/GeneralObservations/variables/--DY",
                    "title": "Study Day of Visit/Collection/Exam",
                    "type": "Class Variable"
                },
                "parentDataset": {
                    "href": "/mdr/sendig/3-0/datasets/BG",
                    "title": "Body Weight Gains",
                    "type": "SDTM Dataset"
                },
                "parentProduct": {
                    "href": "/mdr/sendig/3-0",
                    "title": "Standard for Exchange of Nonclinical Data Implementation Guide: Nonclinical Studies Version 3.0 (Final)",
                    "type": "Implementation Guide"
                },
                "rootItem": {
                    "href": "/mdr/root/sendig/datasets/BG/variables/BGDY",
                    "title": "Version-agnostic anchor resource for SENDIG variable BG.BGDY",
                    "type": "Root Data Element"
                },
                "self": {
                    "href": "/mdr/sendig/3-0/datasets/BG/variables/BGDY",
                    "title": "Study Day Animal Weighed",
                    "type": "SDTM Dataset Variable"
                }
            },
            "core": "Perm",
            "description": "Study day of the start of the weight interval, in integer days. The algorithm for calculations must be relative to the sponsor-defined RFSTDTC variable in the Demographics (DM) domain.",
            "label": "Study Day Animal Weighed",
            "name": "BGDY",
            "ordinal": "18",
            "role": "Timing",
            "simpleDatatype": "Num"
        },
        {
            "_links": {
                "modelClassVariable": {
                    "href": "/mdr/sdtm/1-2/classes/GeneralObservations/variables/--ENDY",
                    "title": "Study Day of End of Observation",
                    "type": "Class Variable"
                },
                "parentDataset": {
                    "href": "/mdr/sendig/3-0/datasets/BG",
                    "title": "Body Weight Gains",
                    "type": "SDTM Dataset"
                },
                "parentProduct": {
                    "href": "/mdr/sendig/3-0",
                    "title": "Standard for Exchange of Nonclinical Data Implementation Guide: Nonclinical Studies Version 3.0 (Final)",
                    "type": "Implementation Guide"
                },
                "rootItem": {
                    "href": "/mdr/root/sendig/datasets/BG/variables/BGENDY",
                    "title": "Version-agnostic anchor resource for SENDIG variable BG.BGENDY",
                    "type": "Root Data Element"
                },
                "self": {
                    "href": "/mdr/sendig/3-0/datasets/BG/variables/BGENDY",
                    "title": "Study Day of End of Weight Interval",
                    "type": "SDTM Dataset Variable"
                }
            },
            "core": "Perm",
            "description": "Study day of the end of the weight interval, in integer days. The algorithm for calculations must be relative to the sponsor-defined RFSTDTC variable in the Demographics (DM) domain.",
            "label": "Study Day of End of Weight Interval",
            "name": "BGENDY",
            "ordinal": "19",
            "role": "Timing",
            "simpleDatatype": "Num"
        },
        {
            "_links": {
                "modelClassVariable": {
                    "href": "/mdr/sdtm/1-2/classes/GeneralObservations/variables/--ELTM",
                    "title": "Planned Elapsed Time from Time Point Ref",
                    "type": "Class Variable"
                },
                "parentDataset": {
                    "href": "/mdr/sendig/3-0/datasets/BG",
                    "title": "Body Weight Gains",
                    "type": "SDTM Dataset"
                },
                "parentProduct": {
                    "href": "/mdr/sendig/3-0",
                    "title": "Standard for Exchange of Nonclinical Data Implementation Guide: Nonclinical Studies Version 3.0 (Final)",
                    "type": "Implementation Guide"
                },
                "rootItem": {
                    "href": "/mdr/root/sendig/datasets/BG/variables/BGELTM",
                    "title": "Version-agnostic anchor resource for SENDIG variable BG.BGELTM",
                    "type": "Root Data Element"
                },
                "self": {
                    "href": "/mdr/sendig/3-0/datasets/BG/variables/BGELTM",
                    "title": "Planned Elapsed Time from Time Point Ref",
                    "type": "SDTM Dataset Variable"
                }
            },
            "core": "Perm",
            "describedValueDomain": "ISO 8601",
            "description": "Planned Elapsed time (in ISO 8601) relative to a planned fixed reference (BGTPTREF). This variable is useful where there are repetitive measures. Not a clock time or a date time variable. Examples: \"-PT15M\" to represent the period of 15 minutes prior to the reference point indicated by BGTPTREF, or \"PT8H\" to represent the period of 8 hours after the reference point indicated by BGTPTREF.",
            "label": "Planned Elapsed Time from Time Point Ref",
            "name": "BGELTM",
            "ordinal": "20",
            "role": "Timing",
            "simpleDatatype": "Char"
        },
        {
            "_links": {
                "modelClassVariable": {
                    "href": "/mdr/sdtm/1-2/classes/GeneralObservations/variables/--TPTREF",
                    "title": "Time Point Reference",
                    "type": "Class Variable"
                },
                "parentDataset": {
                    "href": "/mdr/sendig/3-0/datasets/BG",
                    "title": "Body Weight Gains",
                    "type": "SDTM Dataset"
                },
                "parentProduct": {
                    "href": "/mdr/sendig/3-0",
                    "title": "Standard for Exchange of Nonclinical Data Implementation Guide: Nonclinical Studies Version 3.0 (Final)",
                    "type": "Implementation Guide"
                },
                "rootItem": {
                    "href": "/mdr/root/sendig/datasets/BG/variables/BGTPTREF",
                    "title": "Version-agnostic anchor resource for SENDIG variable BG.BGTPTREF",
                    "type": "Root Data Element"
                },
                "self": {
                    "href": "/mdr/sendig/3-0/datasets/BG/variables/BGTPTREF",
                    "title": "Time Point Reference",
                    "type": "SDTM Dataset Variable"
                }
            },
            "core": "Perm",
            "description": "Name of the fixed reference point referred to by BGELTM. Examples: START OF WEEK ONE, START OF MONTH ONE.",
            "label": "Time Point Reference",
            "name": "BGTPTREF",
            "ordinal": "21",
            "role": "Timing",
            "simpleDatatype": "Char"
        },
        {
            "_links": {
                "modelClassVariable": {
                    "href": "/mdr/sdtm/1-2/classes/GeneralObservations/variables/--RFTDTC",
                    "title": "Date/Time of Reference Time Point",
                    "type": "Class Variable"
                },
                "parentDataset": {
                    "href": "/mdr/sendig/3-0/datasets/BG",
                    "title": "Body Weight Gains",
                    "type": "SDTM Dataset"
                },
                "parentProduct": {
                    "href": "/mdr/sendig/3-0",
                    "title": "Standard for Exchange of Nonclinical Data Implementation Guide: Nonclinical Studies Version 3.0 (Final)",
                    "type": "Implementation Guide"
                },
                "rootItem": {
                    "href": "/mdr/root/sendig/datasets/BG/variables/BGRFTDTC",
                    "title": "Version-agnostic anchor resource for SENDIG variable BG.BGRFTDTC",
                    "type": "Root Data Element"
                },
                "self": {
                    "href": "/mdr/sendig/3-0/datasets/BG/variables/BGRFTDTC",
                    "title": "Date/Time of Reference Time Point",
                    "type": "SDTM Dataset Variable"
                }
            },
            "core": "Perm",
            "describedValueDomain": "ISO 8601",
            "description": "Date/time of the reference time point defined by BGTPTREF.",
            "label": "Date/Time of Reference Time Point",
            "name": "BGRFTDTC",
            "ordinal": "22",
            "role": "Timing",
            "simpleDatatype": "Char"
        }
    ],
    "description": "Body weight gain is the actual difference between two body weight measurements for any given interval for a subject. This is most commonly shown as the difference between two consecutive body weight measurements. (Source: CDISC Controlled Terminology, SDOMAIN, C95083, 2018-06-29)",
    "label": "Body Weight Gains",
    "name": "BG",
    "ordinal": "7"
}