{"_links": {"parentClass": {"href": "/mdr/sendig/3-0/classes/Findings", "title": "Findings Observation Class", "type": "Class"}, "parentProduct": {"href": "/mdr/sendig/3-0", "title": "Standard for Exchange of Nonclinical Data Implementation Guide: Nonclinical Studies Version 3.0 (Final)", "type": "Implementation Guide"}, "self": {"href": "/mdr/sendig/3-0/datasets/CL", "title": "Clinical Observations", "type": "SDTM Dataset"}}, "datasetStructure": "One record per finding per observation time per subject or pool", "datasetVariables": [{"_links": {"modelClassVariable": {"href": "/mdr/sdtm/1-2/classes/GeneralObservations/variables/STUDYID", "title": "Study Identifier", "type": "Class Variable"}, "parentDataset": {"href": "/mdr/sendig/3-0/datasets/CL", "title": "Clinical Observations", "type": "SDTM Dataset"}, "parentProduct": {"href": "/mdr/sendig/3-0", "title": "Standard for Exchange of Nonclinical Data Implementation Guide: Nonclinical Studies Version 3.0 (Final)", "type": "Implementation Guide"}, "rootItem": {"href": "/mdr/root/sendig/datasets/CL/variables/STUDYID", "title": "Version-agnostic anchor resource for SENDIG variable CL.STUDYID", "type": "Root Data Element"}, "self": {"href": "/mdr/sendig/3-0/datasets/CL/variables/STUDYID", "title": "Study Identifier", "type": "SDTM Dataset Variable"}}, "core": "Req", "description": "Unique identifier for a study.", "label": "Study Identifier", "name": "STUDYID", "ordinal": "1", "role": "Identifier", "simpleDatatype": "Char"}, {"_links": {"modelClassVariable": {"href": "/mdr/sdtm/1-2/classes/GeneralObservations/variables/DOMAIN", "title": "Domain Abbreviation", "type": "Class Variable"}, "parentDataset": {"href": "/mdr/sendig/3-0/datasets/CL", "title": "Clinical Observations", "type": "SDTM Dataset"}, "parentProduct": {"href": "/mdr/sendig/3-0", "title": "Standard for Exchange of Nonclinical Data Implementation Guide: Nonclinical Studies Version 3.0 (Final)", "type": "Implementation Guide"}, "rootItem": {"href": "/mdr/root/sendig/datasets/CL/variables/DOMAIN", "title": "Version-agnostic anchor resource for SENDIG variable CL.DOMAIN", "type": "Root Data Element"}, "self": {"href": "/mdr/sendig/3-0/datasets/CL/variables/DOMAIN", "title": "Domain Abbreviation", "type": "SDTM Dataset Variable"}}, "core": "Req", "description": "Two-character abbreviation for the domain.", "label": "Domain Abbreviation", "name": "DOMAIN", "ordinal": "2", "role": "Identifier", "simpleDatatype": "Char", "valueList": ["CL"]}, {"_links": {"modelClassVariable": {"href": "/mdr/sdtm/1-2/classes/GeneralObservations/variables/USUBJID", "title": "Unique Subject Identifier", "type": "Class Variable"}, "parentDataset": {"href": "/mdr/sendig/3-0/datasets/CL", "title": "Clinical Observations", "type": "SDTM Dataset"}, "parentProduct": {"href": "/mdr/sendig/3-0", "title": "Standard for Exchange of Nonclinical Data Implementation Guide: Nonclinical Studies Version 3.0 (Final)", "type": "Implementation Guide"}, "rootItem": {"href": "/mdr/root/sendig/datasets/CL/variables/USUBJID", "title": "Version-agnostic anchor resource for SENDIG variable CL.USUBJID", "type": "Root Data Element"}, "self": {"href": "/mdr/sendig/3-0/datasets/CL/variables/USUBJID", "title": "Unique Subject Identifier", "type": "SDTM Dataset Variable"}}, "core": "Exp", "description": "Identifier used to uniquely identify a subject across all studies for all applications or submissions involving the product.", "label": "Unique Subject Identifier", "name": "USUBJID", "ordinal": "3", "role": "Identifier", "simpleDatatype": "Char"}, {"_links": {"parentDataset": {"href": "/mdr/sendig/3-0/datasets/CL", "title": "Clinical Observations", "type": "SDTM Dataset"}, "parentProduct": {"href": "/mdr/sendig/3-0", "title": "Standard for Exchange of Nonclinical Data Implementation Guide: Nonclinical Studies Version 3.0 (Final)", "type": "Implementation Guide"}, "rootItem": {"href": "/mdr/root/sendig/datasets/CL/variables/POOLID", "title": "Version-agnostic anchor resource for SENDIG variable CL.POOLID", "type": "Root Data Element"}, "self": {"href": "/mdr/sendig/3-0/datasets/CL/variables/POOLID", "title": "Pool Identifier", "type": "SDTM Dataset Variable"}}, "core": "Perm", "description": "Used to identify a result for pooled subjects that are not assignable to any one individual within the pool. If POOLID is entered, POOLDEF records must exist for each subject and the USUBJID must be null. An example for CL may be Cage identifier, where the animals in this dataset are housed together and a sign is applicable for all animals (e.g., Liquid Feces). Either USUBJID or POOLID must be populated.", "label": "Pool Identifier", "name": "POOLID", "ordinal": "4", "role": "Identifier", "simpleDatatype": "Char"}, {"_links": {"modelClassVariable": {"href": "/mdr/sdtm/1-2/classes/GeneralObservations/variables/--SEQ", "title": "Sequence Number", "type": "Class Variable"}, "parentDataset": {"href": "/mdr/sendig/3-0/datasets/CL", "title": "Clinical Observations", "type": "SDTM Dataset"}, "parentProduct": {"href": "/mdr/sendig/3-0", "title": "Standard for Exchange of Nonclinical Data Implementation Guide: Nonclinical Studies Version 3.0 (Final)", "type": "Implementation Guide"}, "rootItem": {"href": "/mdr/root/sendig/datasets/CL/variables/CLSEQ", "title": "Version-agnostic anchor resource for SENDIG variable CL.CLSEQ", "type": "Root Data Element"}, "self": {"href": "/mdr/sendig/3-0/datasets/CL/variables/CLSEQ", "title": "Sequence Number", "type": "SDTM Dataset Variable"}}, "core": "Req", "description": "Sequence number given to ensure uniqueness of subject records within a domain. May be any valid number.", "label": "Sequence Number", "name": "CLSEQ", "ordinal": "5", "role": "Identifier", "simpleDatatype": "Num"}, {"_links": {"modelClassVariable": {"href": "/mdr/sdtm/1-2/classes/GeneralObservations/variables/--GRPID", "title": "Group ID", "type": "Class Variable"}, "parentDataset": {"href": "/mdr/sendig/3-0/datasets/CL", "title": "Clinical Observations", "type": "SDTM Dataset"}, "parentProduct": {"href": "/mdr/sendig/3-0", "title": "Standard for Exchange of Nonclinical Data Implementation Guide: Nonclinical Studies Version 3.0 (Final)", "type": "Implementation Guide"}, "rootItem": {"href": "/mdr/root/sendig/datasets/CL/variables/CLGRPID", "title": "Version-agnostic anchor resource for SENDIG variable CL.CLGRPID", "type": "Root Data Element"}, "self": {"href": "/mdr/sendig/3-0/datasets/CL/variables/CLGRPID", "title": "Group Identifier", "type": "SDTM Dataset Variable"}}, "core": "Perm", "description": "Used to tie together a block of related records in a single domain for a subject. This is not the treatment group number.", "label": "Group Identifier", "name": "CLGRPID", "ordinal": "6", "role": "Identifier", "simpleDatatype": "Char"}, {"_links": {"modelClassVariable": {"href": "/mdr/sdtm/1-2/classes/GeneralObservations/variables/--SPID", "title": "Sponsor ID", "type": "Class Variable"}, "parentDataset": {"href": "/mdr/sendig/3-0/datasets/CL", "title": "Clinical Observations", "type": "SDTM Dataset"}, "parentProduct": {"href": "/mdr/sendig/3-0", "title": "Standard for Exchange of Nonclinical Data Implementation Guide: Nonclinical Studies Version 3.0 (Final)", "type": "Implementation Guide"}, "rootItem": {"href": "/mdr/root/sendig/datasets/CL/variables/CLSPID", "title": "Version-agnostic anchor resource for SENDIG variable CL.CLSPID", "type": "Root Data Element"}, "self": {"href": "/mdr/sendig/3-0/datasets/CL/variables/CLSPID", "title": "Mass Identifier", "type": "SDTM Dataset Variable"}}, "core": "Perm", "description": "Mass identifier such as MASS 1 or MASS A. Used when the mass was discovered during the in-life phase and assigned a mass identifier. The mass identification should be unique within the subject, regardless of mass location.", "label": "Mass Identifier", "name": "CLSPID", "ordinal": "7", "role": "Identifier", "simpleDatatype": "Char"}, {"_links": {"modelClassVariable": {"href": "/mdr/sdtm/1-2/classes/Findings/variables/--TESTCD", "title": "Short Name of Measurement, Test or Examination", "type": "Class Variable"}, "parentDataset": {"href": "/mdr/sendig/3-0/datasets/CL", "title": "Clinical Observations", "type": "SDTM Dataset"}, "parentProduct": {"href": "/mdr/sendig/3-0", "title": "Standard for Exchange of Nonclinical Data Implementation Guide: Nonclinical Studies Version 3.0 (Final)", "type": "Implementation Guide"}, "rootItem": {"href": "/mdr/root/sendig/datasets/CL/variables/CLTESTCD", "title": "Version-agnostic anchor resource for SENDIG variable CL.CLTESTCD", "type": "Root Data Element"}, "self": {"href": "/mdr/sendig/3-0/datasets/CL/variables/CLTESTCD", "title": "Test Short Name", "type": "SDTM Dataset Variable"}}, "core": "Req", "description": "Short name of the measurement, test, or examination described in CLTEST. It can be used as a column name when converting a dataset from a vertical to a horizontal format. The value in CLTESTCD cannot be longer than 8 characters, nor can it start with a number (e.g., \"1TEST\" is not valid). CLTESTCD cannot contain characters other than letters, numbers, or underscores.", "label": "Test Short Name", "name": "CLTESTCD", "ordinal": "8", "role": "Topic", "simpleDatatype": "Char"}, {"_links": {"modelClassVariable": {"href": "/mdr/sdtm/1-2/classes/Findings/variables/--TEST", "title": "Name of Measurement, Test or Examination", "type": "Class Variable"}, "parentDataset": {"href": "/mdr/sendig/3-0/datasets/CL", "title": "Clinical Observations", "type": "SDTM Dataset"}, "parentProduct": {"href": "/mdr/sendig/3-0", "title": "Standard for Exchange of Nonclinical Data Implementation Guide: Nonclinical Studies Version 3.0 (Final)", "type": "Implementation Guide"}, "rootItem": {"href": "/mdr/root/sendig/datasets/CL/variables/CLTEST", "title": "Version-agnostic anchor resource for SENDIG variable CL.CLTEST", "type": "Root Data Element"}, "self": {"href": "/mdr/sendig/3-0/datasets/CL/variables/CLTEST", "title": "Test Name", "type": "SDTM Dataset Variable"}}, "core": "Req", "description": "Long name for CLTESTCD. The value in CLTEST cannot be longer than 40 characters.", "label": "Test Name", "name": "CLTEST", "ordinal": "9", "role": "Synonym Qualifier", "simpleDatatype": "Char"}, {"_links": {"codelist": [{"href": "/mdr/root/ct/sendct/codelists/C89963", "title": "Version-agnostic anchor resource for codelist C89963", "type": "Root Value Domain"}], "modelClassVariable": {"href": "/mdr/sdtm/1-2/classes/Findings/variables/--CAT", "title": "Category", "type": "Class Variable"}, "parentDataset": {"href": "/mdr/sendig/3-0/datasets/CL", "title": "Clinical Observations", "type": "SDTM Dataset"}, "parentProduct": {"href": "/mdr/sendig/3-0", "title": "Standard for Exchange of Nonclinical Data Implementation Guide: Nonclinical Studies Version 3.0 (Final)", "type": "Implementation Guide"}, "rootItem": {"href": "/mdr/root/sendig/datasets/CL/variables/CLCAT", "title": "Version-agnostic anchor resource for SENDIG variable CL.CLCAT", "type": "Root Data Element"}, "self": {"href": "/mdr/sendig/3-0/datasets/CL/variables/CLCAT", "title": "Category for Clinical Observations", "type": "SDTM Dataset Variable"}}, "core": "Req", "description": "Used to define a category of the clinical observation.", "label": "Category for Clinical Observations", "name": "CLCAT", "ordinal": "10", "role": "Grouping Qualifier", "simpleDatatype": "Char"}, {"_links": {"modelClassVariable": {"href": "/mdr/sdtm/1-2/classes/Findings/variables/--SCAT", "title": "Subcategory", "type": "Class Variable"}, "parentDataset": {"href": "/mdr/sendig/3-0/datasets/CL", "title": "Clinical Observations", "type": "SDTM Dataset"}, "parentProduct": {"href": "/mdr/sendig/3-0", "title": "Standard for Exchange of Nonclinical Data Implementation Guide: Nonclinical Studies Version 3.0 (Final)", "type": "Implementation Guide"}, "rootItem": {"href": "/mdr/root/sendig/datasets/CL/variables/CLSCAT", "title": "Version-agnostic anchor resource for SENDIG variable CL.CLSCAT", "type": "Root Data Element"}, "self": {"href": "/mdr/sendig/3-0/datasets/CL/variables/CLSCAT", "title": "Subcategory for Clinical Observations", "type": "SDTM Dataset Variable"}}, "core": "Perm", "description": "Used to further categorize a group of clinical observations within a category. For example \"Whole Body Appearance\" and \"Sensory Organ Appearance\" may be subcategories within Clinical Signs.", "label": "Subcategory for Clinical Observations", "name": "CLSCAT", "ordinal": "11", "role": "Grouping Qualifier", "simpleDatatype": "Char"}, {"_links": {"codelist": [{"href": "/mdr/root/ct/sendct/codelists/C88026", "title": "Version-agnostic anchor resource for codelist C88026", "type": "Root Value Domain"}], "modelClassVariable": {"href": "/mdr/sdtm/1-2/classes/Findings/variables/--BODSYS", "title": "Body System or Organ Class", "type": "Class Variable"}, "parentDataset": {"href": "/mdr/sendig/3-0/datasets/CL", "title": "Clinical Observations", "type": "SDTM Dataset"}, "parentProduct": {"href": "/mdr/sendig/3-0", "title": "Standard for Exchange of Nonclinical Data Implementation Guide: Nonclinical Studies Version 3.0 (Final)", "type": "Implementation Guide"}, "rootItem": {"href": "/mdr/root/sendig/datasets/CL/variables/CLBODSYS", "title": "Version-agnostic anchor resource for SENDIG variable CL.CLBODSYS", "type": "Root Data Element"}, "self": {"href": "/mdr/sendig/3-0/datasets/CL/variables/CLBODSYS", "title": "Body System or Organ Class", "type": "SDTM Dataset Variable"}}, "core": "Perm", "description": "Body system or organ class associated with the measurement performed.", "label": "Body System or Organ Class", "name": "CLBODSYS", "ordinal": "12", "role": "Record Qualifier", "simpleDatatype": "Char"}, {"_links": {"modelClassVariable": {"href": "/mdr/sdtm/1-2/classes/Findings/variables/--ORRES", "title": "Result or Finding in Original Units", "type": "Class Variable"}, "parentDataset": {"href": "/mdr/sendig/3-0/datasets/CL", "title": "Clinical Observations", "type": "SDTM Dataset"}, "parentProduct": {"href": "/mdr/sendig/3-0", "title": "Standard for Exchange of Nonclinical Data Implementation Guide: Nonclinical Studies Version 3.0 (Final)", "type": "Implementation Guide"}, "rootItem": {"href": "/mdr/root/sendig/datasets/CL/variables/CLORRES", "title": "Version-agnostic anchor resource for SENDIG variable CL.CLORRES", "type": "Root Data Element"}, "self": {"href": "/mdr/sendig/3-0/datasets/CL/variables/CLORRES", "title": "Result or Findings as Collected", "type": "SDTM Dataset Variable"}}, "core": "Exp", "description": "Text description of the finding as originally received or collected. If the examination was not performed on a particular body system, or at the subject level, then the value should be null, and NOT DONE should appear in CLSTAT.", "label": "Result or Findings as Collected", "name": "CLORRES", "ordinal": "13", "role": "Result Qualifier", "simpleDatatype": "Char"}, {"_links": {"modelClassVariable": {"href": "/mdr/sdtm/1-2/classes/Findings/variables/--STRESC", "title": "Result or Finding in Standard Format", "type": "Class Variable"}, "parentDataset": {"href": "/mdr/sendig/3-0/datasets/CL", "title": "Clinical Observations", "type": "SDTM Dataset"}, "parentProduct": {"href": "/mdr/sendig/3-0", "title": "Standard for Exchange of Nonclinical Data Implementation Guide: Nonclinical Studies Version 3.0 (Final)", "type": "Implementation Guide"}, "rootItem": {"href": "/mdr/root/sendig/datasets/CL/variables/CLSTRESC", "title": "Version-agnostic anchor resource for SENDIG variable CL.CLSTRESC", "type": "Root Data Element"}, "self": {"href": "/mdr/sendig/3-0/datasets/CL/variables/CLSTRESC", "title": "Standardized Result in Character Format", "type": "SDTM Dataset Variable"}}, "core": "Exp", "description": "The base finding from CLORRES without modifiers. If the examination was completed and there were no abnormal findings, the value must be NORMAL.", "label": "Standardized Result in Character Format", "name": "CLSTRESC", "ordinal": "14", "role": "Result Qualifier", "simpleDatatype": "Char"}, {"_links": {"modelClassVariable": {"href": "/mdr/sdtm/1-2/classes/Findings/variables/--RESCAT", "title": "Result Category", "type": "Class Variable"}, "parentDataset": {"href": "/mdr/sendig/3-0/datasets/CL", "title": "Clinical Observations", "type": "SDTM Dataset"}, "parentProduct": {"href": "/mdr/sendig/3-0", "title": "Standard for Exchange of Nonclinical Data Implementation Guide: Nonclinical Studies Version 3.0 (Final)", "type": "Implementation Guide"}, "rootItem": {"href": "/mdr/root/sendig/datasets/CL/variables/CLRESCAT", "title": "Version-agnostic anchor resource for SENDIG variable CL.CLRESCAT", "type": "Root Data Element"}, "self": {"href": "/mdr/sendig/3-0/datasets/CL/variables/CLRESCAT", "title": "Result Category", "type": "SDTM Dataset Variable"}}, "core": "Perm", "description": "Used to categorize the result of a finding post collection. Examples: Color or Facial.", "label": "Result Category", "name": "CLRESCAT", "ordinal": "15", "role": "Variable Qualifier", "simpleDatatype": "Char"}, {"_links": {"codelist": [{"href": "/mdr/root/ct/sendct/codelists/C66789", "title": "Version-agnostic anchor resource for codelist C66789", "type": "Root Value Domain"}], "modelClassVariable": {"href": "/mdr/sdtm/1-2/classes/Findings/variables/--STAT", "title": "Completion Status", "type": "Class Variable"}, "parentDataset": {"href": "/mdr/sendig/3-0/datasets/CL", "title": "Clinical Observations", "type": "SDTM Dataset"}, "parentProduct": {"href": "/mdr/sendig/3-0", "title": "Standard for Exchange of Nonclinical Data Implementation Guide: Nonclinical Studies Version 3.0 (Final)", "type": "Implementation Guide"}, "rootItem": {"href": "/mdr/root/sendig/datasets/CL/variables/CLSTAT", "title": "Version-agnostic anchor resource for SENDIG variable CL.CLSTAT", "type": "Root Data Element"}, "self": {"href": "/mdr/sendig/3-0/datasets/CL/variables/CLSTAT", "title": "Examination Status", "type": "SDTM Dataset Variable"}}, "core": "Perm", "description": "Used to indicate when a result is missing. Should be null if a result exists in CLORRES.", "label": "Examination Status", "name": "CLSTAT", "ordinal": "16", "role": "Record Qualifier", "simpleDatatype": "Char"}, {"_links": {"modelClassVariable": {"href": "/mdr/sdtm/1-2/classes/Findings/variables/--REASND", "title": "Reason Not Done", "type": "Class Variable"}, "parentDataset": {"href": "/mdr/sendig/3-0/datasets/CL", "title": "Clinical Observations", "type": "SDTM Dataset"}, "parentProduct": {"href": "/mdr/sendig/3-0", "title": "Standard for Exchange of Nonclinical Data Implementation Guide: Nonclinical Studies Version 3.0 (Final)", "type": "Implementation Guide"}, "rootItem": {"href": "/mdr/root/sendig/datasets/CL/variables/CLREASND", "title": "Version-agnostic anchor resource for SENDIG variable CL.CLREASND", "type": "Root Data Element"}, "self": {"href": "/mdr/sendig/3-0/datasets/CL/variables/CLREASND", "title": "Reason Not Done", "type": "SDTM Dataset Variable"}}, "core": "Perm", "description": "Describes why CLSTAT is NOT DONE, such as ANIMAL MORIBUND.", "label": "Reason Not Done", "name": "CLREASND", "ordinal": "17", "role": "Record Qualifier", "simpleDatatype": "Char"}, {"_links": {"modelClassVariable": {"href": "/mdr/sdtm/1-2/classes/Findings/variables/--LOC", "title": "Location Used for the Measurement", "type": "Class Variable"}, "parentDataset": {"href": "/mdr/sendig/3-0/datasets/CL", "title": "Clinical Observations", "type": "SDTM Dataset"}, "parentProduct": {"href": "/mdr/sendig/3-0", "title": "Standard for Exchange of Nonclinical Data Implementation Guide: Nonclinical Studies Version 3.0 (Final)", "type": "Implementation Guide"}, "rootItem": {"href": "/mdr/root/sendig/datasets/CL/variables/CLLOC", "title": "Version-agnostic anchor resource for SENDIG variable CL.CLLOC", "type": "Root Data Element"}, "self": {"href": "/mdr/sendig/3-0/datasets/CL/variables/CLLOC", "title": "Location of a Finding", "type": "SDTM Dataset Variable"}}, "core": "Exp", "description": "Can be used to specify where a clinical sign occurred. Example: LEFT EAR for skin rash.", "label": "Location of a Finding", "name": "CLLOC", "ordinal": "18", "role": "Record Qualifier", "simpleDatatype": "Char"}, {"_links": {"modelClassVariable": {"href": "/mdr/sdtm/1-2/classes/Findings/variables/--EVAL", "title": "Evaluator", "type": "Class Variable"}, "parentDataset": {"href": "/mdr/sendig/3-0/datasets/CL", "title": "Clinical Observations", "type": "SDTM Dataset"}, "parentProduct": {"href": "/mdr/sendig/3-0", "title": "Standard for Exchange of Nonclinical Data Implementation Guide: Nonclinical Studies Version 3.0 (Final)", "type": "Implementation Guide"}, "rootItem": {"href": "/mdr/root/sendig/datasets/CL/variables/CLEVAL", "title": "Version-agnostic anchor resource for SENDIG variable CL.CLEVAL", "type": "Root Data Element"}, "self": {"href": "/mdr/sendig/3-0/datasets/CL/variables/CLEVAL", "title": "Evaluator", "type": "SDTM Dataset Variable"}}, "core": "Perm", "description": "Role of the person who provided the evaluation. Example: TOX TECHNICIAN, OPHTHALMOLOGIST, VETERINARIAN.", "label": "Evaluator", "name": "CLEVAL", "ordinal": "19", "role": "Record Qualifier", "simpleDatatype": "Char"}, {"_links": {"modelClassVariable": {"href": "/mdr/sdtm/1-2/classes/Findings/variables/--SEV", "title": "Severity", "type": "Class Variable"}, "parentDataset": {"href": "/mdr/sendig/3-0/datasets/CL", "title": "Clinical Observations", "type": "SDTM Dataset"}, "parentProduct": {"href": "/mdr/sendig/3-0", "title": "Standard for Exchange of Nonclinical Data Implementation Guide: Nonclinical Studies Version 3.0 (Final)", "type": "Implementation Guide"}, "rootItem": {"href": "/mdr/root/sendig/datasets/CL/variables/CLSEV", "title": "Version-agnostic anchor resource for SENDIG variable CL.CLSEV", "type": "Root Data Element"}, "self": {"href": "/mdr/sendig/3-0/datasets/CL/variables/CLSEV", "title": "Severity", "type": "SDTM Dataset Variable"}}, "core": "Perm", "description": "Describes the severity or intensity of a particular finding.", "label": "Severity", "name": "CLSEV", "ordinal": "20", "role": "Record Qualifier", "simpleDatatype": "Char"}, {"_links": {"codelist": [{"href": "/mdr/root/ct/sendct/codelists/C66742", "title": "Version-agnostic anchor resource for codelist C66742", "type": "Root Value Domain"}], "parentDataset": {"href": "/mdr/sendig/3-0/datasets/CL", "title": "Clinical Observations", "type": "SDTM Dataset"}, "parentProduct": {"href": "/mdr/sendig/3-0", "title": "Standard for Exchange of Nonclinical Data Implementation Guide: Nonclinical Studies Version 3.0 (Final)", "type": "Implementation Guide"}, "rootItem": {"href": "/mdr/root/sendig/datasets/CL/variables/CLEXCLFL", "title": "Version-agnostic anchor resource for SENDIG variable CL.CLEXCLFL", "type": "Root Data Element"}, "self": {"href": "/mdr/sendig/3-0/datasets/CL/variables/CLEXCLFL", "title": "Exclusion Flag", "type": "SDTM Dataset Variable"}}, "core": "Perm", "description": "Y if the result should be excluded from all calculations, otherwise null.", "label": "Exclusion Flag", "name": "CLEXCLFL", "ordinal": "21", "role": "Record Qualifier", "simpleDatatype": "Char"}, {"_links": {"parentDataset": {"href": "/mdr/sendig/3-0/datasets/CL", "title": "Clinical Observations", "type": "SDTM Dataset"}, "parentProduct": {"href": "/mdr/sendig/3-0", "title": "Standard for Exchange of Nonclinical Data Implementation Guide: Nonclinical Studies Version 3.0 (Final)", "type": "Implementation Guide"}, "rootItem": {"href": "/mdr/root/sendig/datasets/CL/variables/CLREASEX", "title": "Version-agnostic anchor resource for SENDIG variable CL.CLREASEX", "type": "Root Data Element"}, "self": {"href": "/mdr/sendig/3-0/datasets/CL/variables/CLREASEX", "title": "Reason for Exclusion", "type": "SDTM Dataset Variable"}}, "core": "Perm", "description": "The reason the result should be excluded from all calculations. Used only when CLEXCLFL is Y.", "label": "Reason for Exclusion", "name": "CLREASEX", "ordinal": "22", "role": "Record Qualifier", "simpleDatatype": "Char"}, {"_links": {"modelClassVariable": {"href": "/mdr/sdtm/1-2/classes/GeneralObservations/variables/VISITDY", "title": "Planned Study Day of Visit", "type": "Class Variable"}, "parentDataset": {"href": "/mdr/sendig/3-0/datasets/CL", "title": "Clinical Observations", "type": "SDTM Dataset"}, "parentProduct": {"href": "/mdr/sendig/3-0", "title": "Standard for Exchange of Nonclinical Data Implementation Guide: Nonclinical Studies Version 3.0 (Final)", "type": "Implementation Guide"}, "rootItem": {"href": "/mdr/root/sendig/datasets/CL/variables/VISITDY", "title": "Version-agnostic anchor resource for SENDIG variable CL.VISITDY", "type": "Root Data Element"}, "self": {"href": "/mdr/sendig/3-0/datasets/CL/variables/VISITDY", "title": "Planned Study Day of Collection", "type": "SDTM Dataset Variable"}}, "core": "Exp", "description": "This is the planned study day of collection.", "label": "Planned Study Day of Collection", "name": "VISITDY", "ordinal": "23", "role": "Timing", "simpleDatatype": "Num"}, {"_links": {"modelClassVariable": {"href": "/mdr/sdtm/1-2/classes/GeneralObservations/variables/--DTC", "title": "Date/Time of Collection", "type": "Class Variable"}, "parentDataset": {"href": "/mdr/sendig/3-0/datasets/CL", "title": "Clinical Observations", "type": "SDTM Dataset"}, "parentProduct": {"href": "/mdr/sendig/3-0", "title": "Standard for Exchange of Nonclinical Data Implementation Guide: Nonclinical Studies Version 3.0 (Final)", "type": "Implementation Guide"}, "rootItem": {"href": "/mdr/root/sendig/datasets/CL/variables/CLDTC", "title": "Version-agnostic anchor resource for SENDIG variable CL.CLDTC", "type": "Root Data Element"}, "self": {"href": "/mdr/sendig/3-0/datasets/CL/variables/CLDTC", "title": "Start Date/Time of Observation", "type": "SDTM Dataset Variable"}}, "core": "Exp", "describedValueDomain": "ISO 8601", "description": "Date/time of the clinical observation in ISO 8601 format.", "label": "Start Date/Time of Observation", "name": "CLDTC", "ordinal": "24", "role": "Timing", "simpleDatatype": "Char"}, {"_links": {"modelClassVariable": {"href": "/mdr/sdtm/1-2/classes/GeneralObservations/variables/--DY", "title": "Study Day of Visit/Collection/Exam", "type": "Class Variable"}, "parentDataset": {"href": "/mdr/sendig/3-0/datasets/CL", "title": "Clinical Observations", "type": "SDTM Dataset"}, "parentProduct": {"href": "/mdr/sendig/3-0", "title": "Standard for Exchange of Nonclinical Data Implementation Guide: Nonclinical Studies Version 3.0 (Final)", "type": "Implementation Guide"}, "rootItem": {"href": "/mdr/root/sendig/datasets/CL/variables/CLDY", "title": "Version-agnostic anchor resource for SENDIG variable CL.CLDY", "type": "Root Data Element"}, "self": {"href": "/mdr/sendig/3-0/datasets/CL/variables/CLDY", "title": "Study Day of Observation", "type": "SDTM Dataset Variable"}}, "core": "Perm", "description": "Study day of the clinical observation, in integer days. The algorithm for calculations must be relative to the sponsor-defined RFSTDTC variable in the Demographics (DM) domain.", "label": "Study Day of Observation", "name": "CLDY", "ordinal": "25", "role": "Timing", "simpleDatatype": "Num"}, {"_links": {"modelClassVariable": {"href": "/mdr/sdtm/1-2/classes/GeneralObservations/variables/--TPT", "title": "Planned Time Point Name", "type": "Class Variable"}, "parentDataset": {"href": "/mdr/sendig/3-0/datasets/CL", "title": "Clinical Observations", "type": "SDTM Dataset"}, "parentProduct": {"href": "/mdr/sendig/3-0", "title": "Standard for Exchange of Nonclinical Data Implementation Guide: Nonclinical Studies Version 3.0 (Final)", "type": "Implementation Guide"}, "rootItem": {"href": "/mdr/root/sendig/datasets/CL/variables/CLTPT", "title": "Version-agnostic anchor resource for SENDIG variable CL.CLTPT", "type": "Root Data Element"}, "self": {"href": "/mdr/sendig/3-0/datasets/CL/variables/CLTPT", "title": "Planned Time Point Name", "type": "SDTM Dataset Variable"}}, "core": "Perm", "description": "Text description of time when an observation should be taken, as defined in the protocol. This may be represented as an elapsed time relative to a fixed reference point, such as time postdose.", "label": "Planned Time Point Name", "name": "CLTPT", "ordinal": "26", "role": "Timing", "simpleDatatype": "Char"}, {"_links": {"modelClassVariable": {"href": "/mdr/sdtm/1-2/classes/GeneralObservations/variables/--TPTNUM", "title": "Planned Time Point Number", "type": "Class Variable"}, "parentDataset": {"href": "/mdr/sendig/3-0/datasets/CL", "title": "Clinical Observations", "type": "SDTM Dataset"}, "parentProduct": {"href": "/mdr/sendig/3-0", "title": "Standard for Exchange of Nonclinical Data Implementation Guide: Nonclinical Studies Version 3.0 (Final)", "type": "Implementation Guide"}, "rootItem": {"href": "/mdr/root/sendig/datasets/CL/variables/CLTPTNUM", "title": "Version-agnostic anchor resource for SENDIG variable CL.CLTPTNUM", "type": "Root Data Element"}, "self": {"href": "/mdr/sendig/3-0/datasets/CL/variables/CLTPTNUM", "title": "Planned Time Point Number", "type": "SDTM Dataset Variable"}}, "core": "Perm", "description": "Numeric version of planned time point used in sorting.", "label": "Planned Time Point Number", "name": "CLTPTNUM", "ordinal": "27", "role": "Timing", "simpleDatatype": "Num"}, {"_links": {"modelClassVariable": {"href": "/mdr/sdtm/1-2/classes/GeneralObservations/variables/--ELTM", "title": "Planned Elapsed Time from Time Point Ref", "type": "Class Variable"}, "parentDataset": {"href": "/mdr/sendig/3-0/datasets/CL", "title": "Clinical Observations", "type": "SDTM Dataset"}, "parentProduct": {"href": "/mdr/sendig/3-0", "title": "Standard for Exchange of Nonclinical Data Implementation Guide: Nonclinical Studies Version 3.0 (Final)", "type": "Implementation Guide"}, "rootItem": {"href": "/mdr/root/sendig/datasets/CL/variables/CLELTM", "title": "Version-agnostic anchor resource for SENDIG variable CL.CLELTM", "type": "Root Data Element"}, "self": {"href": "/mdr/sendig/3-0/datasets/CL/variables/CLELTM", "title": "Planned Elapsed Time from Time Point Ref", "type": "SDTM Dataset Variable"}}, "core": "Perm", "describedValueDomain": "ISO 8601", "description": "Planned Elapsed time in ISO 8601 format relative to a planned reference (CLTPTREF). This variable is useful where there are repetitive measures. Not a clock time or a date/time variable, but an interval, represented as an ISO 8601 duration.", "label": "Planned Elapsed Time from Time Point Ref", "name": "CLELTM", "ordinal": "28", "role": "Timing", "simpleDatatype": "Char"}, {"_links": {"modelClassVariable": {"href": "/mdr/sdtm/1-2/classes/GeneralObservations/variables/--TPTREF", "title": "Time Point Reference", "type": "Class Variable"}, "parentDataset": {"href": "/mdr/sendig/3-0/datasets/CL", "title": "Clinical Observations", "type": "SDTM Dataset"}, "parentProduct": {"href": "/mdr/sendig/3-0", "title": "Standard for Exchange of Nonclinical Data Implementation Guide: Nonclinical Studies Version 3.0 (Final)", "type": "Implementation Guide"}, "rootItem": {"href": "/mdr/root/sendig/datasets/CL/variables/CLTPTREF", "title": "Version-agnostic anchor resource for SENDIG variable CL.CLTPTREF", "type": "Root Data Element"}, "self": {"href": "/mdr/sendig/3-0/datasets/CL/variables/CLTPTREF", "title": "Time Point Reference", "type": "SDTM Dataset Variable"}}, "core": "Perm", "description": "Description of the fixed reference point referred to by --ELTM, --TPTNUM, and --TPT. Examples: PREVIOUS DOSE, PREVIOUS MEAL.", "label": "Time Point Reference", "name": "CLTPTREF", "ordinal": "29", "role": "Timing", "simpleDatatype": "Char"}, {"_links": {"modelClassVariable": {"href": "/mdr/sdtm/1-2/classes/GeneralObservations/variables/--RFTDTC", "title": "Date/Time of Reference Time Point", "type": "Class Variable"}, "parentDataset": {"href": "/mdr/sendig/3-0/datasets/CL", "title": "Clinical Observations", "type": "SDTM Dataset"}, "parentProduct": {"href": "/mdr/sendig/3-0", "title": "Standard for Exchange of Nonclinical Data Implementation Guide: Nonclinical Studies Version 3.0 (Final)", "type": "Implementation Guide"}, "rootItem": {"href": "/mdr/root/sendig/datasets/CL/variables/CLRFTDTC", "title": "Version-agnostic anchor resource for SENDIG variable CL.CLRFTDTC", "type": "Root Data Element"}, "self": {"href": "/mdr/sendig/3-0/datasets/CL/variables/CLRFTDTC", "title": "Date/Time of Reference Time Point", "type": "SDTM Dataset Variable"}}, "core": "Perm", "describedValueDomain": "ISO 8601", "description": "Date/time for a fixed reference time point defined by --TPTREF in", "label": "Date/Time of Reference Time Point", "name": "CLRFTDTC", "ordinal": "30", "role": "Timing", "simpleDatatype": "Char"}], "description": "This domain captures clinical sign information including ophthalmology, physical examination, and dermal examination collected in life while executing the study. (Source: CDISC Controlled Terminology, SDOMAIN, C95086, 2018-06-29)", "label": "Clinical Observations", "name": "CL", "ordinal": "8"}
