{"_links": {"parentClass": {"href": "/mdr/sendig/3-0/classes/Interventions", "title": "Interventions Observation Class", "type": "Class"}, "parentProduct": {"href": "/mdr/sendig/3-0", "title": "Standard for Exchange of Nonclinical Data Implementation Guide: Nonclinical Studies Version 3.0 (Final)", "type": "Implementation Guide"}, "self": {"href": "/mdr/sendig/3-0/datasets/EX", "title": "Exposure", "type": "SDTM Dataset"}}, "datasetStructure": "One record per constant dosing interval per treatment per subject or pool", "datasetVariables": [{"_links": {"modelClassVariable": {"href": "/mdr/sdtm/1-2/classes/GeneralObservations/variables/STUDYID", "title": "Study Identifier", "type": "Class Variable"}, "parentDataset": {"href": "/mdr/sendig/3-0/datasets/EX", "title": "Exposure", "type": "SDTM Dataset"}, "parentProduct": {"href": "/mdr/sendig/3-0", "title": "Standard for Exchange of Nonclinical Data Implementation Guide: Nonclinical Studies Version 3.0 (Final)", "type": "Implementation Guide"}, "rootItem": {"href": "/mdr/root/sendig/datasets/EX/variables/STUDYID", "title": "Version-agnostic anchor resource for SENDIG variable EX.STUDYID", "type": "Root Data Element"}, "self": {"href": "/mdr/sendig/3-0/datasets/EX/variables/STUDYID", "title": "Study Identifier", "type": "SDTM Dataset Variable"}}, "core": "Req", "description": "Unique identifier for a study.", "label": "Study Identifier", "name": "STUDYID", "ordinal": "1", "role": "Identifier", "simpleDatatype": "Char"}, {"_links": {"modelClassVariable": {"href": "/mdr/sdtm/1-2/classes/GeneralObservations/variables/DOMAIN", "title": "Domain Abbreviation", "type": "Class Variable"}, "parentDataset": {"href": "/mdr/sendig/3-0/datasets/EX", "title": "Exposure", "type": "SDTM Dataset"}, "parentProduct": {"href": "/mdr/sendig/3-0", "title": "Standard for Exchange of Nonclinical Data Implementation Guide: Nonclinical Studies Version 3.0 (Final)", "type": "Implementation Guide"}, "rootItem": {"href": "/mdr/root/sendig/datasets/EX/variables/DOMAIN", "title": "Version-agnostic anchor resource for SENDIG variable EX.DOMAIN", "type": "Root Data Element"}, "self": {"href": "/mdr/sendig/3-0/datasets/EX/variables/DOMAIN", "title": "Domain Abbreviation", "type": "SDTM Dataset Variable"}}, "core": "Req", "description": "Two-character abbreviation for the domain.", "label": "Domain Abbreviation", "name": "DOMAIN", "ordinal": "2", "role": "Identifier", "simpleDatatype": "Char", "valueList": ["EX"]}, {"_links": {"modelClassVariable": {"href": "/mdr/sdtm/1-2/classes/GeneralObservations/variables/USUBJID", "title": "Unique Subject Identifier", "type": "Class Variable"}, "parentDataset": {"href": "/mdr/sendig/3-0/datasets/EX", "title": "Exposure", "type": "SDTM Dataset"}, "parentProduct": {"href": "/mdr/sendig/3-0", "title": "Standard for Exchange of Nonclinical Data Implementation Guide: Nonclinical Studies Version 3.0 (Final)", "type": "Implementation Guide"}, "rootItem": {"href": "/mdr/root/sendig/datasets/EX/variables/USUBJID", "title": "Version-agnostic anchor resource for SENDIG variable EX.USUBJID", "type": "Root Data Element"}, "self": {"href": "/mdr/sendig/3-0/datasets/EX/variables/USUBJID", "title": "Unique Subject Identifier", "type": "SDTM Dataset Variable"}}, "core": "Exp", "description": "Identifier used to uniquely identify a subject across all studies for all applications or submissions involving the product. Either USUBJID or POOLID must be populated.", "label": "Unique Subject Identifier", "name": "USUBJID", "ordinal": "3", "role": "Identifier", "simpleDatatype": "Char"}, {"_links": {"parentDataset": {"href": "/mdr/sendig/3-0/datasets/EX", "title": "Exposure", "type": "SDTM Dataset"}, "parentProduct": {"href": "/mdr/sendig/3-0", "title": "Standard for Exchange of Nonclinical Data Implementation Guide: Nonclinical Studies Version 3.0 (Final)", "type": "Implementation Guide"}, "rootItem": {"href": "/mdr/root/sendig/datasets/EX/variables/POOLID", "title": "Version-agnostic anchor resource for SENDIG variable EX.POOLID", "type": "Root Data Element"}, "self": {"href": "/mdr/sendig/3-0/datasets/EX/variables/POOLID", "title": "Pool Identifier", "type": "SDTM Dataset Variable"}}, "core": "Perm", "description": "Identifier used for pooling subjects to assign a single finding to multiple subjects. If POOLID is entered, POOLDEF records must exist for each subject and the USUBJID must be null. Either USUBJID or POOLID must be populated.", "label": "Pool Identifier", "name": "POOLID", "ordinal": "4", "role": "Identifier", "simpleDatatype": "Char"}, {"_links": {"modelClassVariable": {"href": "/mdr/sdtm/1-2/classes/GeneralObservations/variables/--SEQ", "title": "Sequence Number", "type": "Class Variable"}, "parentDataset": {"href": "/mdr/sendig/3-0/datasets/EX", "title": "Exposure", "type": "SDTM Dataset"}, "parentProduct": {"href": "/mdr/sendig/3-0", "title": "Standard for Exchange of Nonclinical Data Implementation Guide: Nonclinical Studies Version 3.0 (Final)", "type": "Implementation Guide"}, "rootItem": {"href": "/mdr/root/sendig/datasets/EX/variables/EXSEQ", "title": "Version-agnostic anchor resource for SENDIG variable EX.EXSEQ", "type": "Root Data Element"}, "self": {"href": "/mdr/sendig/3-0/datasets/EX/variables/EXSEQ", "title": "Sequence Number", "type": "SDTM Dataset Variable"}}, "core": "Req", "description": "Sequence number given to ensure uniqueness of subject records within a domain. May be any valid number.", "label": "Sequence Number", "name": "EXSEQ", "ordinal": "5", "role": "Identifier", "simpleDatatype": "Num"}, {"_links": {"modelClassVariable": {"href": "/mdr/sdtm/1-2/classes/Interventions/variables/--TRT", "title": "Name of Treatment", "type": "Class Variable"}, "parentDataset": {"href": "/mdr/sendig/3-0/datasets/EX", "title": "Exposure", "type": "SDTM Dataset"}, "parentProduct": {"href": "/mdr/sendig/3-0", "title": "Standard for Exchange of Nonclinical Data Implementation Guide: Nonclinical Studies Version 3.0 (Final)", "type": "Implementation Guide"}, "rootItem": {"href": "/mdr/root/sendig/datasets/EX/variables/EXTRT", "title": "Version-agnostic anchor resource for SENDIG variable EX.EXTRT", "type": "Root Data Element"}, "self": {"href": "/mdr/sendig/3-0/datasets/EX/variables/EXTRT", "title": "Name of Actual Treatment", "type": "SDTM Dataset Variable"}}, "core": "Req", "description": "Name of the treatment. Usually the verbatim name of the investigational treatment given during the dosing period for the observation.", "label": "Name of Actual Treatment", "name": "EXTRT", "ordinal": "6", "role": "Topic", "simpleDatatype": "Char"}, {"_links": {"modelClassVariable": {"href": "/mdr/sdtm/1-2/classes/Interventions/variables/--DOSE", "title": "Dose", "type": "Class Variable"}, "parentDataset": {"href": "/mdr/sendig/3-0/datasets/EX", "title": "Exposure", "type": "SDTM Dataset"}, "parentProduct": {"href": "/mdr/sendig/3-0", "title": "Standard for Exchange of Nonclinical Data Implementation Guide: Nonclinical Studies Version 3.0 (Final)", "type": "Implementation Guide"}, "rootItem": {"href": "/mdr/root/sendig/datasets/EX/variables/EXDOSE", "title": "Version-agnostic anchor resource for SENDIG variable EX.EXDOSE", "type": "Root Data Element"}, "self": {"href": "/mdr/sendig/3-0/datasets/EX/variables/EXDOSE", "title": "Dose per Administration", "type": "SDTM Dataset Variable"}}, "core": "Exp", "description": "Amount of treatment administered.", "label": "Dose per Administration", "name": "EXDOSE", "ordinal": "7", "role": "Record Qualifier", "simpleDatatype": "Num"}, {"_links": {"modelClassVariable": {"href": "/mdr/sdtm/1-2/classes/Interventions/variables/--DOSTXT", "title": "Dose Description", "type": "Class Variable"}, "parentDataset": {"href": "/mdr/sendig/3-0/datasets/EX", "title": "Exposure", "type": "SDTM Dataset"}, "parentProduct": {"href": "/mdr/sendig/3-0", "title": "Standard for Exchange of Nonclinical Data Implementation Guide: Nonclinical Studies Version 3.0 (Final)", "type": "Implementation Guide"}, "rootItem": {"href": "/mdr/root/sendig/datasets/EX/variables/EXDOSTXT", "title": "Version-agnostic anchor resource for SENDIG variable EX.EXDOSTXT", "type": "Root Data Element"}, "self": {"href": "/mdr/sendig/3-0/datasets/EX/variables/EXDOSTXT", "title": "Dose Description", "type": "SDTM Dataset Variable"}}, "core": "Perm", "description": "If the amount of treatment administered cannot be represented as a number and populated in EXDOSE, this field is used to describe the amount of treatment administered. Example: 200-400.", "label": "Dose Description", "name": "EXDOSTXT", "ordinal": "8", "role": "Record Qualifier", "simpleDatatype": "Char"}, {"_links": {"codelist": [{"href": "/mdr/root/ct/sendct/codelists/C71620", "title": "Version-agnostic anchor resource for codelist C71620", "type": "Root Value Domain"}], "modelClassVariable": {"href": "/mdr/sdtm/1-2/classes/Interventions/variables/--DOSU", "title": "Dose Units", "type": "Class Variable"}, "parentDataset": {"href": "/mdr/sendig/3-0/datasets/EX", "title": "Exposure", "type": "SDTM Dataset"}, "parentProduct": {"href": "/mdr/sendig/3-0", "title": "Standard for Exchange of Nonclinical Data Implementation Guide: Nonclinical Studies Version 3.0 (Final)", "type": "Implementation Guide"}, "rootItem": {"href": "/mdr/root/sendig/datasets/EX/variables/EXDOSU", "title": "Version-agnostic anchor resource for SENDIG variable EX.EXDOSU", "type": "Root Data Element"}, "self": {"href": "/mdr/sendig/3-0/datasets/EX/variables/EXDOSU", "title": "Dose Units", "type": "SDTM Dataset Variable"}}, "core": "Exp", "description": "Units for EXDOSE. Examples: ng, mg, or mg/kg.", "label": "Dose Units", "name": "EXDOSU", "ordinal": "9", "role": "Variable Qualifier", "simpleDatatype": "Char"}, {"_links": {"codelist": [{"href": "/mdr/root/ct/sendct/codelists/C66726", "title": "Version-agnostic anchor resource for codelist C66726", "type": "Root Value Domain"}], "modelClassVariable": {"href": "/mdr/sdtm/1-2/classes/Interventions/variables/--DOSFRM", "title": "Dose Form", "type": "Class Variable"}, "parentDataset": {"href": "/mdr/sendig/3-0/datasets/EX", "title": "Exposure", "type": "SDTM Dataset"}, "parentProduct": {"href": "/mdr/sendig/3-0", "title": "Standard for Exchange of Nonclinical Data Implementation Guide: Nonclinical Studies Version 3.0 (Final)", "type": "Implementation Guide"}, "rootItem": {"href": "/mdr/root/sendig/datasets/EX/variables/EXDOSFRM", "title": "Version-agnostic anchor resource for SENDIG variable EX.EXDOSFRM", "type": "Root Data Element"}, "self": {"href": "/mdr/sendig/3-0/datasets/EX/variables/EXDOSFRM", "title": "Dose Form", "type": "SDTM Dataset Variable"}}, "core": "Exp", "description": "Dose form for EXTRT. Examples: TABLET, LOTION.", "label": "Dose Form", "name": "EXDOSFRM", "ordinal": "10", "role": "Record Qualifier", "simpleDatatype": "Char"}, {"_links": {"codelist": [{"href": "/mdr/root/ct/sendct/codelists/C71113", "title": "Version-agnostic anchor resource for codelist C71113", "type": "Root Value Domain"}], "modelClassVariable": {"href": "/mdr/sdtm/1-2/classes/Interventions/variables/--DOSFRQ", "title": "Dosing Frequency per Interval", "type": "Class Variable"}, "parentDataset": {"href": "/mdr/sendig/3-0/datasets/EX", "title": "Exposure", "type": "SDTM Dataset"}, "parentProduct": {"href": "/mdr/sendig/3-0", "title": "Standard for Exchange of Nonclinical Data Implementation Guide: Nonclinical Studies Version 3.0 (Final)", "type": "Implementation Guide"}, "rootItem": {"href": "/mdr/root/sendig/datasets/EX/variables/EXDOSFRQ", "title": "Version-agnostic anchor resource for SENDIG variable EX.EXDOSFRQ", "type": "Root Data Element"}, "self": {"href": "/mdr/sendig/3-0/datasets/EX/variables/EXDOSFRQ", "title": "Dosing Frequency Per Interval", "type": "SDTM Dataset Variable"}}, "core": "Req", "description": "Usually expressed as the number of repeated administrations of EXDOSE within a specific time period. Examples: QD (once daily), BID (2x daily), BIS (2x a week).", "label": "Dosing Frequency Per Interval", "name": "EXDOSFRQ", "ordinal": "11", "role": "Variable Qualifier", "simpleDatatype": "Char"}, {"_links": {"codelist": [{"href": "/mdr/root/ct/sendct/codelists/C66729", "title": "Version-agnostic anchor resource for codelist C66729", "type": "Root Value Domain"}], "modelClassVariable": {"href": "/mdr/sdtm/1-2/classes/Interventions/variables/--ROUTE", "title": "Route of Administration", "type": "Class Variable"}, "parentDataset": {"href": "/mdr/sendig/3-0/datasets/EX", "title": "Exposure", "type": "SDTM Dataset"}, "parentProduct": {"href": "/mdr/sendig/3-0", "title": "Standard for Exchange of Nonclinical Data Implementation Guide: Nonclinical Studies Version 3.0 (Final)", "type": "Implementation Guide"}, "rootItem": {"href": "/mdr/root/sendig/datasets/EX/variables/EXROUTE", "title": "Version-agnostic anchor resource for SENDIG variable EX.EXROUTE", "type": "Root Data Element"}, "self": {"href": "/mdr/sendig/3-0/datasets/EX/variables/EXROUTE", "title": "Route of Administration", "type": "SDTM Dataset Variable"}}, "core": "Req", "description": "Route of administration for EXTRT. Examples: ORAL GAVAGE, DERMAL, INTRAVENOUS, BOLUS.", "label": "Route of Administration", "name": "EXROUTE", "ordinal": "12", "role": "Variable Qualifier", "simpleDatatype": "Char"}, {"_links": {"modelClassVariable": {"href": "/mdr/sdtm/1-2/classes/Interventions/variables/--LOT", "title": "Lot Number", "type": "Class Variable"}, "parentDataset": {"href": "/mdr/sendig/3-0/datasets/EX", "title": "Exposure", "type": "SDTM Dataset"}, "parentProduct": {"href": "/mdr/sendig/3-0", "title": "Standard for Exchange of Nonclinical Data Implementation Guide: Nonclinical Studies Version 3.0 (Final)", "type": "Implementation Guide"}, "rootItem": {"href": "/mdr/root/sendig/datasets/EX/variables/EXLOT", "title": "Version-agnostic anchor resource for SENDIG variable EX.EXLOT", "type": "Root Data Element"}, "self": {"href": "/mdr/sendig/3-0/datasets/EX/variables/EXLOT", "title": "Lot Number", "type": "SDTM Dataset Variable"}}, "core": "Exp", "description": "Lot Number(s) or Batch Number(s) of the EXTRT test article. If mixed lots of the test article are administered during the same constant dosing interval, this should be represented as \"Lot A;Lot B\". Mixed lots are produced by the mixing of Lots A and B of the test article into one solution, suspension, or dietary food concentration. If no test article was administered, EXLOT should be null.", "label": "Lot Number", "name": "EXLOT", "ordinal": "13", "role": "Record Qualifier", "simpleDatatype": "Char"}, {"_links": {"modelClassVariable": {"href": "/mdr/sdtm/1-2/classes/Interventions/variables/--LOC", "title": "Location of Dose Administration", "type": "Class Variable"}, "parentDataset": {"href": "/mdr/sendig/3-0/datasets/EX", "title": "Exposure", "type": "SDTM Dataset"}, "parentProduct": {"href": "/mdr/sendig/3-0", "title": "Standard for Exchange of Nonclinical Data Implementation Guide: Nonclinical Studies Version 3.0 (Final)", "type": "Implementation Guide"}, "rootItem": {"href": "/mdr/root/sendig/datasets/EX/variables/EXLOC", "title": "Version-agnostic anchor resource for SENDIG variable EX.EXLOC", "type": "Root Data Element"}, "self": {"href": "/mdr/sendig/3-0/datasets/EX/variables/EXLOC", "title": "Location of Dose Administration", "type": "SDTM Dataset Variable"}}, "core": "Perm", "description": "Specifies anatomical location (site) of administration. Example: LEFT HINDLIMB for a topical application or an injection site number. Each administration will require its own record.", "label": "Location of Dose Administration", "name": "EXLOC", "ordinal": "14", "role": "Record Qualifier", "simpleDatatype": "Char"}, {"_links": {"parentDataset": {"href": "/mdr/sendig/3-0/datasets/EX", "title": "Exposure", "type": "SDTM Dataset"}, "parentProduct": {"href": "/mdr/sendig/3-0", "title": "Standard for Exchange of Nonclinical Data Implementation Guide: Nonclinical Studies Version 3.0 (Final)", "type": "Implementation Guide"}, "rootItem": {"href": "/mdr/root/sendig/datasets/EX/variables/EXMETHOD", "title": "Version-agnostic anchor resource for SENDIG variable EX.EXMETHOD", "type": "Root Data Element"}, "self": {"href": "/mdr/sendig/3-0/datasets/EX/variables/EXMETHOD", "title": "Method of Administration", "type": "SDTM Dataset Variable"}}, "core": "Perm", "description": "Method of the test or examination. Example: INFUSION.", "label": "Method of Administration", "name": "EXMETHOD", "ordinal": "15", "role": "Record Qualifier", "simpleDatatype": "Char"}, {"_links": {"modelClassVariable": {"href": "/mdr/sdtm/1-2/classes/Interventions/variables/--TRTV", "title": "Treatment Vehicle", "type": "Class Variable"}, "parentDataset": {"href": "/mdr/sendig/3-0/datasets/EX", "title": "Exposure", "type": "SDTM Dataset"}, "parentProduct": {"href": "/mdr/sendig/3-0", "title": "Standard for Exchange of Nonclinical Data Implementation Guide: Nonclinical Studies Version 3.0 (Final)", "type": "Implementation Guide"}, "rootItem": {"href": "/mdr/root/sendig/datasets/EX/variables/EXTRTV", "title": "Version-agnostic anchor resource for SENDIG variable EX.EXTRTV", "type": "Root Data Element"}, "self": {"href": "/mdr/sendig/3-0/datasets/EX/variables/EXTRTV", "title": "Treatment Vehicle", "type": "SDTM Dataset Variable"}}, "core": "Exp", "description": "Describes vehicle used for treatment. Example: SALINE.", "label": "Treatment Vehicle", "name": "EXTRTV", "ordinal": "16", "role": "Record Qualifier", "simpleDatatype": "Char"}, {"_links": {"modelClassVariable": {"href": "/mdr/sdtm/1-2/classes/Interventions/variables/--VAMT", "title": "Treatment Vehicle Amount", "type": "Class Variable"}, "parentDataset": {"href": "/mdr/sendig/3-0/datasets/EX", "title": "Exposure", "type": "SDTM Dataset"}, "parentProduct": {"href": "/mdr/sendig/3-0", "title": "Standard for Exchange of Nonclinical Data Implementation Guide: Nonclinical Studies Version 3.0 (Final)", "type": "Implementation Guide"}, "rootItem": {"href": "/mdr/root/sendig/datasets/EX/variables/EXVAMT", "title": "Version-agnostic anchor resource for SENDIG variable EX.EXVAMT", "type": "Root Data Element"}, "self": {"href": "/mdr/sendig/3-0/datasets/EX/variables/EXVAMT", "title": "Amount Administered", "type": "SDTM Dataset Variable"}}, "core": "Perm", "description": "EXVAMT is the amount (volume or weight) of the administered treatment vehicle (compound + vehicle). This is not to be confused with EXDOSE. EXDOSE refers to the amount of test material administered to the animal.", "label": "Amount Administered", "name": "EXVAMT", "ordinal": "17", "role": "Record Qualifier", "simpleDatatype": "Num"}, {"_links": {"codelist": [{"href": "/mdr/root/ct/sendct/codelists/C71620", "title": "Version-agnostic anchor resource for codelist C71620", "type": "Root Value Domain"}], "modelClassVariable": {"href": "/mdr/sdtm/1-2/classes/Interventions/variables/--VAMTU", "title": "Treatment Vehicle Amount Units", "type": "Class Variable"}, "parentDataset": {"href": "/mdr/sendig/3-0/datasets/EX", "title": "Exposure", "type": "SDTM Dataset"}, "parentProduct": {"href": "/mdr/sendig/3-0", "title": "Standard for Exchange of Nonclinical Data Implementation Guide: Nonclinical Studies Version 3.0 (Final)", "type": "Implementation Guide"}, "rootItem": {"href": "/mdr/root/sendig/datasets/EX/variables/EXVAMTU", "title": "Version-agnostic anchor resource for SENDIG variable EX.EXVAMTU", "type": "Root Data Element"}, "self": {"href": "/mdr/sendig/3-0/datasets/EX/variables/EXVAMTU", "title": "Amount Administered Units", "type": "SDTM Dataset Variable"}}, "core": "Perm", "description": "Units for EXVAMT.", "label": "Amount Administered Units", "name": "EXVAMTU", "ordinal": "18", "role": "Variable Qualifier", "simpleDatatype": "Char"}, {"_links": {"modelClassVariable": {"href": "/mdr/sdtm/1-2/classes/Interventions/variables/--ADJ", "title": "Reason for Dose Adjustment", "type": "Class Variable"}, "parentDataset": {"href": "/mdr/sendig/3-0/datasets/EX", "title": "Exposure", "type": "SDTM Dataset"}, "parentProduct": {"href": "/mdr/sendig/3-0", "title": "Standard for Exchange of Nonclinical Data Implementation Guide: Nonclinical Studies Version 3.0 (Final)", "type": "Implementation Guide"}, "rootItem": {"href": "/mdr/root/sendig/datasets/EX/variables/EXADJ", "title": "Version-agnostic anchor resource for SENDIG variable EX.EXADJ", "type": "Root Data Element"}, "self": {"href": "/mdr/sendig/3-0/datasets/EX/variables/EXADJ", "title": "Reason for Dose Adjustment", "type": "SDTM Dataset Variable"}}, "core": "Perm", "description": "Describes reason or explanation of why a dose is adjusted - used only when an adjustment is represented in EX. May be used for variations from protocol-specified doses or changes from expected doses (e.g., when dose is adjusted due to toxicity).", "label": "Reason for Dose Adjustment", "name": "EXADJ", "ordinal": "19", "role": "Record Qualifier", "simpleDatatype": "Char"}, {"_links": {"modelClassVariable": {"href": "/mdr/sdtm/1-2/classes/GeneralObservations/variables/--STDTC", "title": "Start Date/Time of Observation", "type": "Class Variable"}, "parentDataset": {"href": "/mdr/sendig/3-0/datasets/EX", "title": "Exposure", "type": "SDTM Dataset"}, "parentProduct": {"href": "/mdr/sendig/3-0", "title": "Standard for Exchange of Nonclinical Data Implementation Guide: Nonclinical Studies Version 3.0 (Final)", "type": "Implementation Guide"}, "rootItem": {"href": "/mdr/root/sendig/datasets/EX/variables/EXSTDTC", "title": "Version-agnostic anchor resource for SENDIG variable EX.EXSTDTC", "type": "Root Data Element"}, "self": {"href": "/mdr/sendig/3-0/datasets/EX/variables/EXSTDTC", "title": "Start Date/Time of Treatment", "type": "SDTM Dataset Variable"}}, "core": "Exp", "describedValueDomain": "ISO 8601", "description": "Date/Time when administration of the treatment indicated by EXTRT and EXDOSE began, in ISO 8601 format.", "label": "Start Date/Time of Treatment", "name": "EXSTDTC", "ordinal": "20", "role": "Timing", "simpleDatatype": "Char"}, {"_links": {"modelClassVariable": {"href": "/mdr/sdtm/1-2/classes/GeneralObservations/variables/--ENDTC", "title": "End Date/Time of Observation", "type": "Class Variable"}, "parentDataset": {"href": "/mdr/sendig/3-0/datasets/EX", "title": "Exposure", "type": "SDTM Dataset"}, "parentProduct": {"href": "/mdr/sendig/3-0", "title": "Standard for Exchange of Nonclinical Data Implementation Guide: Nonclinical Studies Version 3.0 (Final)", "type": "Implementation Guide"}, "rootItem": {"href": "/mdr/root/sendig/datasets/EX/variables/EXENDTC", "title": "Version-agnostic anchor resource for SENDIG variable EX.EXENDTC", "type": "Root Data Element"}, "self": {"href": "/mdr/sendig/3-0/datasets/EX/variables/EXENDTC", "title": "End Date/Time of Treatment", "type": "SDTM Dataset Variable"}}, "core": "Perm", "describedValueDomain": "ISO 8601", "description": "Date/Time when administration of the treatment indicated by EXTRT and EXDOSE ended, in ISO 8601 format.", "label": "End Date/Time of Treatment", "name": "EXENDTC", "ordinal": "21", "role": "Timing", "simpleDatatype": "Char"}, {"_links": {"modelClassVariable": {"href": "/mdr/sdtm/1-2/classes/GeneralObservations/variables/--STDY", "title": "Study Day of Start of Observation", "type": "Class Variable"}, "parentDataset": {"href": "/mdr/sendig/3-0/datasets/EX", "title": "Exposure", "type": "SDTM Dataset"}, "parentProduct": {"href": "/mdr/sendig/3-0", "title": "Standard for Exchange of Nonclinical Data Implementation Guide: Nonclinical Studies Version 3.0 (Final)", "type": "Implementation Guide"}, "rootItem": {"href": "/mdr/root/sendig/datasets/EX/variables/EXSTDY", "title": "Version-agnostic anchor resource for SENDIG variable EX.EXSTDY", "type": "Root Data Element"}, "self": {"href": "/mdr/sendig/3-0/datasets/EX/variables/EXSTDY", "title": "Study Day of Start of Treatment", "type": "SDTM Dataset Variable"}}, "core": "Perm", "description": "Study day when administration of the treatment began, in integer days. The algorithm for calculations must be relative to the sponsor-defined RFSTDTC variable in the Demographics (DM) domain", "label": "Study Day of Start of Treatment", "name": "EXSTDY", "ordinal": "22", "role": "Timing", "simpleDatatype": "Num"}, {"_links": {"modelClassVariable": {"href": "/mdr/sdtm/1-2/classes/GeneralObservations/variables/--ENDY", "title": "Study Day of End of Observation", "type": "Class Variable"}, "parentDataset": {"href": "/mdr/sendig/3-0/datasets/EX", "title": "Exposure", "type": "SDTM Dataset"}, "parentProduct": {"href": "/mdr/sendig/3-0", "title": "Standard for Exchange of Nonclinical Data Implementation Guide: Nonclinical Studies Version 3.0 (Final)", "type": "Implementation Guide"}, "rootItem": {"href": "/mdr/root/sendig/datasets/EX/variables/EXENDY", "title": "Version-agnostic anchor resource for SENDIG variable EX.EXENDY", "type": "Root Data Element"}, "self": {"href": "/mdr/sendig/3-0/datasets/EX/variables/EXENDY", "title": "Study Day of End of Treatment", "type": "SDTM Dataset Variable"}}, "core": "Perm", "description": "Study day when administration of the treatment ended, in integer days. The algorithm for calculations must be relative to the sponsor-defined RFSTDTC variable in the Demographics (DM) domain.", "label": "Study Day of End of Treatment", "name": "EXENDY", "ordinal": "23", "role": "Timing", "simpleDatatype": "Num"}, {"_links": {"modelClassVariable": {"href": "/mdr/sdtm/1-2/classes/GeneralObservations/variables/--DUR", "title": "Duration", "type": "Class Variable"}, "parentDataset": {"href": "/mdr/sendig/3-0/datasets/EX", "title": "Exposure", "type": "SDTM Dataset"}, "parentProduct": {"href": "/mdr/sendig/3-0", "title": "Standard for Exchange of Nonclinical Data Implementation Guide: Nonclinical Studies Version 3.0 (Final)", "type": "Implementation Guide"}, "rootItem": {"href": "/mdr/root/sendig/datasets/EX/variables/EXDUR", "title": "Version-agnostic anchor resource for SENDIG variable EX.EXDUR", "type": "Root Data Element"}, "self": {"href": "/mdr/sendig/3-0/datasets/EX/variables/EXDUR", "title": "Duration of Treatment", "type": "SDTM Dataset Variable"}}, "core": "Perm", "describedValueDomain": "ISO 8601", "description": "Duration and unit of time for a continuous treatment. This may be used to denote the length of an infusion (e.g., 10 minutes).", "label": "Duration of Treatment", "name": "EXDUR", "ordinal": "24", "role": "Timing", "simpleDatatype": "Char"}, {"_links": {"modelClassVariable": {"href": "/mdr/sdtm/1-2/classes/GeneralObservations/variables/--TPT", "title": "Planned Time Point Name", "type": "Class Variable"}, "parentDataset": {"href": "/mdr/sendig/3-0/datasets/EX", "title": "Exposure", "type": "SDTM Dataset"}, "parentProduct": {"href": "/mdr/sendig/3-0", "title": "Standard for Exchange of Nonclinical Data Implementation Guide: Nonclinical Studies Version 3.0 (Final)", "type": "Implementation Guide"}, "rootItem": {"href": "/mdr/root/sendig/datasets/EX/variables/EXTPT", "title": "Version-agnostic anchor resource for SENDIG variable EX.EXTPT", "type": "Root Data Element"}, "self": {"href": "/mdr/sendig/3-0/datasets/EX/variables/EXTPT", "title": "Planned Time Point Name", "type": "SDTM Dataset Variable"}}, "core": "Perm", "description": "Text description of time when a dose should be given. Note: This may be represented as an elapsed time relative to a fixed reference point such as time of last dose. See EXTPTNUM and EXTPTREF.", "label": "Planned Time Point Name", "name": "EXTPT", "ordinal": "25", "role": "Timing", "simpleDatatype": "Char"}, {"_links": {"modelClassVariable": {"href": "/mdr/sdtm/1-2/classes/GeneralObservations/variables/--TPTNUM", "title": "Planned Time Point Number", "type": "Class Variable"}, "parentDataset": {"href": "/mdr/sendig/3-0/datasets/EX", "title": "Exposure", "type": "SDTM Dataset"}, "parentProduct": {"href": "/mdr/sendig/3-0", "title": "Standard for Exchange of Nonclinical Data Implementation Guide: Nonclinical Studies Version 3.0 (Final)", "type": "Implementation Guide"}, "rootItem": {"href": "/mdr/root/sendig/datasets/EX/variables/EXTPTNUM", "title": "Version-agnostic anchor resource for SENDIG variable EX.EXTPTNUM", "type": "Root Data Element"}, "self": {"href": "/mdr/sendig/3-0/datasets/EX/variables/EXTPTNUM", "title": "Planned Time Point Number", "type": "SDTM Dataset Variable"}}, "core": "Perm", "description": "Numerical version of EXTPT to aid in sorting.", "label": "Planned Time Point Number", "name": "EXTPTNUM", "ordinal": "26", "role": "Timing", "simpleDatatype": "Num"}, {"_links": {"modelClassVariable": {"href": "/mdr/sdtm/1-2/classes/GeneralObservations/variables/--ELTM", "title": "Planned Elapsed Time from Time Point Ref", "type": "Class Variable"}, "parentDataset": {"href": "/mdr/sendig/3-0/datasets/EX", "title": "Exposure", "type": "SDTM Dataset"}, "parentProduct": {"href": "/mdr/sendig/3-0", "title": "Standard for Exchange of Nonclinical Data Implementation Guide: Nonclinical Studies Version 3.0 (Final)", "type": "Implementation Guide"}, "rootItem": {"href": "/mdr/root/sendig/datasets/EX/variables/EXELTM", "title": "Version-agnostic anchor resource for SENDIG variable EX.EXELTM", "type": "Root Data Element"}, "self": {"href": "/mdr/sendig/3-0/datasets/EX/variables/EXELTM", "title": "Planned Elapsed Time from Time Point Ref", "type": "SDTM Dataset Variable"}}, "core": "Perm", "describedValueDomain": "ISO 8601", "description": "Planned elapsed time (in ISO 8601) format relative to the planned fixed reference (EXTPTREF). This variable is useful where there are repetitive", "label": "Planned Elapsed Time from Time Point Ref", "name": "EXELTM", "ordinal": "27", "role": "Timing", "simpleDatatype": "Char"}, {"_links": {"modelClassVariable": {"href": "/mdr/sdtm/1-2/classes/GeneralObservations/variables/--TPTREF", "title": "Time Point Reference", "type": "Class Variable"}, "parentDataset": {"href": "/mdr/sendig/3-0/datasets/EX", "title": "Exposure", "type": "SDTM Dataset"}, "parentProduct": {"href": "/mdr/sendig/3-0", "title": "Standard for Exchange of Nonclinical Data Implementation Guide: Nonclinical Studies Version 3.0 (Final)", "type": "Implementation Guide"}, "rootItem": {"href": "/mdr/root/sendig/datasets/EX/variables/EXTPTREF", "title": "Version-agnostic anchor resource for SENDIG variable EX.EXTPTREF", "type": "Root Data Element"}, "self": {"href": "/mdr/sendig/3-0/datasets/EX/variables/EXTPTREF", "title": "Time Point Reference", "type": "SDTM Dataset Variable"}}, "core": "Perm", "description": "Name of the fixed reference point referred to by EXELTM, EXTPTNUM, and EXTPT. Examples: Previous dose, previous feed.", "label": "Time Point Reference", "name": "EXTPTREF", "ordinal": "28", "role": "Timing", "simpleDatatype": "Char"}, {"_links": {"modelClassVariable": {"href": "/mdr/sdtm/1-2/classes/GeneralObservations/variables/--RFTDTC", "title": "Date/Time of Reference Time Point", "type": "Class Variable"}, "parentDataset": {"href": "/mdr/sendig/3-0/datasets/EX", "title": "Exposure", "type": "SDTM Dataset"}, "parentProduct": {"href": "/mdr/sendig/3-0", "title": "Standard for Exchange of Nonclinical Data Implementation Guide: Nonclinical Studies Version 3.0 (Final)", "type": "Implementation Guide"}, "rootItem": {"href": "/mdr/root/sendig/datasets/EX/variables/EXRFTDTC", "title": "Version-agnostic anchor resource for SENDIG variable EX.EXRFTDTC", "type": "Root Data Element"}, "self": {"href": "/mdr/sendig/3-0/datasets/EX/variables/EXRFTDTC", "title": "Date/Time of Reference Time Point", "type": "SDTM Dataset Variable"}}, "core": "Perm", "describedValueDomain": "ISO 8601", "description": "Date/time of EXTPTREF.", "label": "Date/Time of Reference Time Point", "name": "EXRFTDTC", "ordinal": "29", "role": "Timing", "simpleDatatype": "Char"}], "description": "An interventions domain that contains the details of a subject's exposure to protocol-specified study treatment. Study treatment may be any intervention that is prospectively defined as a test material within a study, and is typically but not always supplied to the subject. (Source: CDISC Controlled Terminology, SDOMAIN, C49587, 2018-06-29)", "label": "Exposure", "name": "EX", "ordinal": "4"}
