{"_links": {"parentClass": {"href": "/mdr/sendig/3-0/classes/Findings", "title": "Findings Observation Class", "type": "Class"}, "parentProduct": {"href": "/mdr/sendig/3-0", "title": "Standard for Exchange of Nonclinical Data Implementation Guide: Nonclinical Studies Version 3.0 (Final)", "type": "Implementation Guide"}, "self": {"href": "/mdr/sendig/3-0/datasets/FW", "title": "Food and Water Consumption", "type": "SDTM Dataset"}}, "datasetStructure": "One record per test per interval per subject or pool", "datasetVariables": [{"_links": {"modelClassVariable": {"href": "/mdr/sdtm/1-2/classes/GeneralObservations/variables/STUDYID", "title": "Study Identifier", "type": "Class Variable"}, "parentDataset": {"href": "/mdr/sendig/3-0/datasets/FW", "title": "Food and Water Consumption", "type": "SDTM Dataset"}, "parentProduct": {"href": "/mdr/sendig/3-0", "title": "Standard for Exchange of Nonclinical Data Implementation Guide: Nonclinical Studies Version 3.0 (Final)", "type": "Implementation Guide"}, "rootItem": {"href": "/mdr/root/sendig/datasets/FW/variables/STUDYID", "title": "Version-agnostic anchor resource for SENDIG variable FW.STUDYID", "type": "Root Data Element"}, "self": {"href": "/mdr/sendig/3-0/datasets/FW/variables/STUDYID", "title": "Study Identifier", "type": "SDTM Dataset Variable"}}, "core": "Req", "description": "Unique identifier for a study.", "label": "Study Identifier", "name": "STUDYID", "ordinal": "1", "role": "Identifier", "simpleDatatype": "Char"}, {"_links": {"modelClassVariable": {"href": "/mdr/sdtm/1-2/classes/GeneralObservations/variables/DOMAIN", "title": "Domain Abbreviation", "type": "Class Variable"}, "parentDataset": {"href": "/mdr/sendig/3-0/datasets/FW", "title": "Food and Water Consumption", "type": "SDTM Dataset"}, "parentProduct": {"href": "/mdr/sendig/3-0", "title": "Standard for Exchange of Nonclinical Data Implementation Guide: Nonclinical Studies Version 3.0 (Final)", "type": "Implementation Guide"}, "rootItem": {"href": "/mdr/root/sendig/datasets/FW/variables/DOMAIN", "title": "Version-agnostic anchor resource for SENDIG variable FW.DOMAIN", "type": "Root Data Element"}, "self": {"href": "/mdr/sendig/3-0/datasets/FW/variables/DOMAIN", "title": "Domain Abbreviation", "type": "SDTM Dataset Variable"}}, "core": "Req", "description": "Two-character abbreviation for the domain.", "label": "Domain Abbreviation", "name": "DOMAIN", "ordinal": "2", "role": "Identifier", "simpleDatatype": "Char", "valueList": ["FW"]}, {"_links": {"modelClassVariable": {"href": "/mdr/sdtm/1-2/classes/GeneralObservations/variables/USUBJID", "title": "Unique Subject Identifier", "type": "Class Variable"}, "parentDataset": {"href": "/mdr/sendig/3-0/datasets/FW", "title": "Food and Water Consumption", "type": "SDTM Dataset"}, "parentProduct": {"href": "/mdr/sendig/3-0", "title": "Standard for Exchange of Nonclinical Data Implementation Guide: Nonclinical Studies Version 3.0 (Final)", "type": "Implementation Guide"}, "rootItem": {"href": "/mdr/root/sendig/datasets/FW/variables/USUBJID", "title": "Version-agnostic anchor resource for SENDIG variable FW.USUBJID", "type": "Root Data Element"}, "self": {"href": "/mdr/sendig/3-0/datasets/FW/variables/USUBJID", "title": "Unique Subject Identifier", "type": "SDTM Dataset Variable"}}, "core": "Exp", "description": "Identifier existing in the demographics domain, used to uniquely identify a subject across all studies for all applications or submissions involving the product.", "label": "Unique Subject Identifier", "name": "USUBJID", "ordinal": "3", "role": "Identifier", "simpleDatatype": "Char"}, {"_links": {"parentDataset": {"href": "/mdr/sendig/3-0/datasets/FW", "title": "Food and Water Consumption", "type": "SDTM Dataset"}, "parentProduct": {"href": "/mdr/sendig/3-0", "title": "Standard for Exchange of Nonclinical Data Implementation Guide: Nonclinical Studies Version 3.0 (Final)", "type": "Implementation Guide"}, "rootItem": {"href": "/mdr/root/sendig/datasets/FW/variables/POOLID", "title": "Version-agnostic anchor resource for SENDIG variable FW.POOLID", "type": "Root Data Element"}, "self": {"href": "/mdr/sendig/3-0/datasets/FW/variables/POOLID", "title": "Pool Identifier", "type": "SDTM Dataset Variable"}}, "core": "Perm", "description": "Identifier used for pooling subjects to assign a single result to multiple subjects. Either USUBJID or POOLID must be populated.", "label": "Pool Identifier", "name": "POOLID", "ordinal": "4", "role": "Identifier", "simpleDatatype": "Char"}, {"_links": {"modelClassVariable": {"href": "/mdr/sdtm/1-2/classes/GeneralObservations/variables/--SEQ", "title": "Sequence Number", "type": "Class Variable"}, "parentDataset": {"href": "/mdr/sendig/3-0/datasets/FW", "title": "Food and Water Consumption", "type": "SDTM Dataset"}, "parentProduct": {"href": "/mdr/sendig/3-0", "title": "Standard for Exchange of Nonclinical Data Implementation Guide: Nonclinical Studies Version 3.0 (Final)", "type": "Implementation Guide"}, "rootItem": {"href": "/mdr/root/sendig/datasets/FW/variables/FWSEQ", "title": "Version-agnostic anchor resource for SENDIG variable FW.FWSEQ", "type": "Root Data Element"}, "self": {"href": "/mdr/sendig/3-0/datasets/FW/variables/FWSEQ", "title": "Sequence Number", "type": "SDTM Dataset Variable"}}, "core": "Req", "description": "Sequence number given to ensure uniqueness of subject records within a domain. May be any valid number.", "label": "Sequence Number", "name": "FWSEQ", "ordinal": "5", "role": "Identifier", "simpleDatatype": "Num"}, {"_links": {"modelClassVariable": {"href": "/mdr/sdtm/1-2/classes/GeneralObservations/variables/--GRPID", "title": "Group ID", "type": "Class Variable"}, "parentDataset": {"href": "/mdr/sendig/3-0/datasets/FW", "title": "Food and Water Consumption", "type": "SDTM Dataset"}, "parentProduct": {"href": "/mdr/sendig/3-0", "title": "Standard for Exchange of Nonclinical Data Implementation Guide: Nonclinical Studies Version 3.0 (Final)", "type": "Implementation Guide"}, "rootItem": {"href": "/mdr/root/sendig/datasets/FW/variables/FWGRPID", "title": "Version-agnostic anchor resource for SENDIG variable FW.FWGRPID", "type": "Root Data Element"}, "self": {"href": "/mdr/sendig/3-0/datasets/FW/variables/FWGRPID", "title": "Group Identifier", "type": "SDTM Dataset Variable"}}, "core": "Perm", "description": "Used to tie together a block of related records in a single domain for a subject. This is not the treatment group number.", "label": "Group Identifier", "name": "FWGRPID", "ordinal": "6", "role": "Identifier", "simpleDatatype": "Char"}, {"_links": {"codelist": [{"href": "/mdr/root/ct/sendct/codelists/C89970", "title": "Version-agnostic anchor resource for codelist C89970", "type": "Root Value Domain"}], "modelClassVariable": {"href": "/mdr/sdtm/1-2/classes/Findings/variables/--TESTCD", "title": "Short Name of Measurement, Test or Examination", "type": "Class Variable"}, "parentDataset": {"href": "/mdr/sendig/3-0/datasets/FW", "title": "Food and Water Consumption", "type": "SDTM Dataset"}, "parentProduct": {"href": "/mdr/sendig/3-0", "title": "Standard for Exchange of Nonclinical Data Implementation Guide: Nonclinical Studies Version 3.0 (Final)", "type": "Implementation Guide"}, "rootItem": {"href": "/mdr/root/sendig/datasets/FW/variables/FWTESTCD", "title": "Version-agnostic anchor resource for SENDIG variable FW.FWTESTCD", "type": "Root Data Element"}, "self": {"href": "/mdr/sendig/3-0/datasets/FW/variables/FWTESTCD", "title": "Food /Water Consumption Short Name", "type": "SDTM Dataset Variable"}}, "core": "Req", "description": "Short name of the measurement, test, or examination described in FWTEST. It can be used as a column name when converting a dataset from a vertical to a horizontal format. The value in FWTESTCD cannot be longer than 8 characters, nor can it start with a number (e.g., \"1TEST\" is not valid). FWTESTCD cannot contain characters other than letters, numbers, or underscores. Extensible controlled values are FC, FCRELBW, WC, and WCRELBW.", "label": "Food /Water Consumption Short Name", "name": "FWTESTCD", "ordinal": "7", "role": "Topic", "simpleDatatype": "Char"}, {"_links": {"codelist": [{"href": "/mdr/root/ct/sendct/codelists/C89969", "title": "Version-agnostic anchor resource for codelist C89969", "type": "Root Value Domain"}], "modelClassVariable": {"href": "/mdr/sdtm/1-2/classes/Findings/variables/--TEST", "title": "Name of Measurement, Test or Examination", "type": "Class Variable"}, "parentDataset": {"href": "/mdr/sendig/3-0/datasets/FW", "title": "Food and Water Consumption", "type": "SDTM Dataset"}, "parentProduct": {"href": "/mdr/sendig/3-0", "title": "Standard for Exchange of Nonclinical Data Implementation Guide: Nonclinical Studies Version 3.0 (Final)", "type": "Implementation Guide"}, "rootItem": {"href": "/mdr/root/sendig/datasets/FW/variables/FWTEST", "title": "Version-agnostic anchor resource for SENDIG variable FW.FWTEST", "type": "Root Data Element"}, "self": {"href": "/mdr/sendig/3-0/datasets/FW/variables/FWTEST", "title": "Food /Water Consumption Name", "type": "SDTM Dataset Variable"}}, "core": "Req", "description": "Long name for FWTESTCD. The value in FWTEST cannot be longer than 40 characters. Extensible controlled values are Food Consumption, Food Consumption Relative to Body Wt, Water Consumption, Water Consumption Relative to Body Wt.", "label": "Food /Water Consumption Name", "name": "FWTEST", "ordinal": "8", "role": "Synonym Qualifier", "simpleDatatype": "Char"}, {"_links": {"modelClassVariable": {"href": "/mdr/sdtm/1-2/classes/Findings/variables/--ORRES", "title": "Result or Finding in Original Units", "type": "Class Variable"}, "parentDataset": {"href": "/mdr/sendig/3-0/datasets/FW", "title": "Food and Water Consumption", "type": "SDTM Dataset"}, "parentProduct": {"href": "/mdr/sendig/3-0", "title": "Standard for Exchange of Nonclinical Data Implementation Guide: Nonclinical Studies Version 3.0 (Final)", "type": "Implementation Guide"}, "rootItem": {"href": "/mdr/root/sendig/datasets/FW/variables/FWORRES", "title": "Version-agnostic anchor resource for SENDIG variable FW.FWORRES", "type": "Root Data Element"}, "self": {"href": "/mdr/sendig/3-0/datasets/FW/variables/FWORRES", "title": "Result or Findings as Collected", "type": "SDTM Dataset Variable"}}, "core": "Exp", "description": "Result of the measurement or finding as originally received or collected.", "label": "Result or Findings as Collected", "name": "FWORRES", "ordinal": "9", "role": "Result Qualifier", "simpleDatatype": "Char"}, {"_links": {"codelist": [{"href": "/mdr/root/ct/sendct/codelists/C71620", "title": "Version-agnostic anchor resource for codelist C71620", "type": "Root Value Domain"}], "modelClassVariable": {"href": "/mdr/sdtm/1-2/classes/Findings/variables/--ORRESU", "title": "Original Units", "type": "Class Variable"}, "parentDataset": {"href": "/mdr/sendig/3-0/datasets/FW", "title": "Food and Water Consumption", "type": "SDTM Dataset"}, "parentProduct": {"href": "/mdr/sendig/3-0", "title": "Standard for Exchange of Nonclinical Data Implementation Guide: Nonclinical Studies Version 3.0 (Final)", "type": "Implementation Guide"}, "rootItem": {"href": "/mdr/root/sendig/datasets/FW/variables/FWORRESU", "title": "Version-agnostic anchor resource for SENDIG variable FW.FWORRESU", "type": "Root Data Element"}, "self": {"href": "/mdr/sendig/3-0/datasets/FW/variables/FWORRESU", "title": "Unit of the Original Result", "type": "SDTM Dataset Variable"}}, "core": "Exp", "description": "The unit for the original result. The unit of the original result should be mapped to a synonymous unit on the Controlled Terminology list.", "label": "Unit of the Original Result", "name": "FWORRESU", "ordinal": "10", "role": "Variable Qualifier", "simpleDatatype": "Char"}, {"_links": {"modelClassVariable": {"href": "/mdr/sdtm/1-2/classes/Findings/variables/--STRESC", "title": "Result or Finding in Standard Format", "type": "Class Variable"}, "parentDataset": {"href": "/mdr/sendig/3-0/datasets/FW", "title": "Food and Water Consumption", "type": "SDTM Dataset"}, "parentProduct": {"href": "/mdr/sendig/3-0", "title": "Standard for Exchange of Nonclinical Data Implementation Guide: Nonclinical Studies Version 3.0 (Final)", "type": "Implementation Guide"}, "rootItem": {"href": "/mdr/root/sendig/datasets/FW/variables/FWSTRESC", "title": "Version-agnostic anchor resource for SENDIG variable FW.FWSTRESC", "type": "Root Data Element"}, "self": {"href": "/mdr/sendig/3-0/datasets/FW/variables/FWSTRESC", "title": "Standardized Result in Character Format", "type": "SDTM Dataset Variable"}}, "core": "Exp", "description": "Contains the result value for all findings, copied or derived from FWORRES in a standard format or standard units.", "label": "Standardized Result in Character Format", "name": "FWSTRESC", "ordinal": "11", "role": "Result Qualifier", "simpleDatatype": "Char"}, {"_links": {"modelClassVariable": {"href": "/mdr/sdtm/1-2/classes/Findings/variables/--STRESN", "title": "Numeric Result/Finding in Standard Units", "type": "Class Variable"}, "parentDataset": {"href": "/mdr/sendig/3-0/datasets/FW", "title": "Food and Water Consumption", "type": "SDTM Dataset"}, "parentProduct": {"href": "/mdr/sendig/3-0", "title": "Standard for Exchange of Nonclinical Data Implementation Guide: Nonclinical Studies Version 3.0 (Final)", "type": "Implementation Guide"}, "rootItem": {"href": "/mdr/root/sendig/datasets/FW/variables/FWSTRESN", "title": "Version-agnostic anchor resource for SENDIG variable FW.FWSTRESN", "type": "Root Data Element"}, "self": {"href": "/mdr/sendig/3-0/datasets/FW/variables/FWSTRESN", "title": "Standardized Result in Numeric Format", "type": "SDTM Dataset Variable"}}, "core": "Exp", "description": "Used for numeric results or findings in standard format; contains the numeric form of FWSTRESC. FWSTRESN should store all numeric test results or findings.", "label": "Standardized Result in Numeric Format", "name": "FWSTRESN", "ordinal": "12", "role": "Result Qualifier", "simpleDatatype": "Num"}, {"_links": {"codelist": [{"href": "/mdr/root/ct/sendct/codelists/C71620", "title": "Version-agnostic anchor resource for codelist C71620", "type": "Root Value Domain"}], "modelClassVariable": {"href": "/mdr/sdtm/1-2/classes/Findings/variables/--STRESU", "title": "Standard Units", "type": "Class Variable"}, "parentDataset": {"href": "/mdr/sendig/3-0/datasets/FW", "title": "Food and Water Consumption", "type": "SDTM Dataset"}, "parentProduct": {"href": "/mdr/sendig/3-0", "title": "Standard for Exchange of Nonclinical Data Implementation Guide: Nonclinical Studies Version 3.0 (Final)", "type": "Implementation Guide"}, "rootItem": {"href": "/mdr/root/sendig/datasets/FW/variables/FWSTRESU", "title": "Version-agnostic anchor resource for SENDIG variable FW.FWSTRESU", "type": "Root Data Element"}, "self": {"href": "/mdr/sendig/3-0/datasets/FW/variables/FWSTRESU", "title": "Unit of the Standardized Result", "type": "SDTM Dataset Variable"}}, "core": "Exp", "description": "Standardized unit used for FWSTRESC or FWSTRESN.", "label": "Unit of the Standardized Result", "name": "FWSTRESU", "ordinal": "13", "role": "Variable Qualifier", "simpleDatatype": "Char"}, {"_links": {"codelist": [{"href": "/mdr/root/ct/sendct/codelists/C66789", "title": "Version-agnostic anchor resource for codelist C66789", "type": "Root Value Domain"}], "modelClassVariable": {"href": "/mdr/sdtm/1-2/classes/Findings/variables/--STAT", "title": "Completion Status", "type": "Class Variable"}, "parentDataset": {"href": "/mdr/sendig/3-0/datasets/FW", "title": "Food and Water Consumption", "type": "SDTM Dataset"}, "parentProduct": {"href": "/mdr/sendig/3-0", "title": "Standard for Exchange of Nonclinical Data Implementation Guide: Nonclinical Studies Version 3.0 (Final)", "type": "Implementation Guide"}, "rootItem": {"href": "/mdr/root/sendig/datasets/FW/variables/FWSTAT", "title": "Version-agnostic anchor resource for SENDIG variable FW.FWSTAT", "type": "Root Data Element"}, "self": {"href": "/mdr/sendig/3-0/datasets/FW/variables/FWSTAT", "title": "Completion Status", "type": "SDTM Dataset Variable"}}, "core": "Perm", "description": "Used to indicate when a test is not done or result is missing. Should be null if a result exists in FWORRES.", "label": "Completion Status", "name": "FWSTAT", "ordinal": "14", "role": "Record Qualifier", "simpleDatatype": "Char"}, {"_links": {"modelClassVariable": {"href": "/mdr/sdtm/1-2/classes/Findings/variables/--REASND", "title": "Reason Not Done", "type": "Class Variable"}, "parentDataset": {"href": "/mdr/sendig/3-0/datasets/FW", "title": "Food and Water Consumption", "type": "SDTM Dataset"}, "parentProduct": {"href": "/mdr/sendig/3-0", "title": "Standard for Exchange of Nonclinical Data Implementation Guide: Nonclinical Studies Version 3.0 (Final)", "type": "Implementation Guide"}, "rootItem": {"href": "/mdr/root/sendig/datasets/FW/variables/FWREASND", "title": "Version-agnostic anchor resource for SENDIG variable FW.FWREASND", "type": "Root Data Element"}, "self": {"href": "/mdr/sendig/3-0/datasets/FW/variables/FWREASND", "title": "Reason Not Done", "type": "SDTM Dataset Variable"}}, "core": "Perm", "description": "Describes why FWSTAT is NOT DONE, such as FOOD WET.", "label": "Reason Not Done", "name": "FWREASND", "ordinal": "15", "role": "Record Qualifier", "simpleDatatype": "Char"}, {"_links": {"codelist": [{"href": "/mdr/root/ct/sendct/codelists/C66742", "title": "Version-agnostic anchor resource for codelist C66742", "type": "Root Value Domain"}], "parentDataset": {"href": "/mdr/sendig/3-0/datasets/FW", "title": "Food and Water Consumption", "type": "SDTM Dataset"}, "parentProduct": {"href": "/mdr/sendig/3-0", "title": "Standard for Exchange of Nonclinical Data Implementation Guide: Nonclinical Studies Version 3.0 (Final)", "type": "Implementation Guide"}, "rootItem": {"href": "/mdr/root/sendig/datasets/FW/variables/FWEXCLFL", "title": "Version-agnostic anchor resource for SENDIG variable FW.FWEXCLFL", "type": "Root Data Element"}, "self": {"href": "/mdr/sendig/3-0/datasets/FW/variables/FWEXCLFL", "title": "Exclusion Flag", "type": "SDTM Dataset Variable"}}, "core": "Perm", "description": "Y if the result should be excluded from all calculations, otherwise null.", "label": "Exclusion Flag", "name": "FWEXCLFL", "ordinal": "16", "role": "Record Qualifier", "simpleDatatype": "Char"}, {"_links": {"parentDataset": {"href": "/mdr/sendig/3-0/datasets/FW", "title": "Food and Water Consumption", "type": "SDTM Dataset"}, "parentProduct": {"href": "/mdr/sendig/3-0", "title": "Standard for Exchange of Nonclinical Data Implementation Guide: Nonclinical Studies Version 3.0 (Final)", "type": "Implementation Guide"}, "rootItem": {"href": "/mdr/root/sendig/datasets/FW/variables/FWREASEX", "title": "Version-agnostic anchor resource for SENDIG variable FW.FWREASEX", "type": "Root Data Element"}, "self": {"href": "/mdr/sendig/3-0/datasets/FW/variables/FWREASEX", "title": "Reason for Exclusion", "type": "SDTM Dataset Variable"}}, "core": "Perm", "description": "The reason the result should be excluded from all calculations. Used only when FWEXCLFL is Y.", "label": "Reason for Exclusion", "name": "FWREASEX", "ordinal": "17", "role": "Record Qualifier", "simpleDatatype": "Char"}, {"_links": {"modelClassVariable": {"href": "/mdr/sdtm/1-2/classes/GeneralObservations/variables/--DTC", "title": "Date/Time of Collection", "type": "Class Variable"}, "parentDataset": {"href": "/mdr/sendig/3-0/datasets/FW", "title": "Food and Water Consumption", "type": "SDTM Dataset"}, "parentProduct": {"href": "/mdr/sendig/3-0", "title": "Standard for Exchange of Nonclinical Data Implementation Guide: Nonclinical Studies Version 3.0 (Final)", "type": "Implementation Guide"}, "rootItem": {"href": "/mdr/root/sendig/datasets/FW/variables/FWDTC", "title": "Version-agnostic anchor resource for SENDIG variable FW.FWDTC", "type": "Root Data Element"}, "self": {"href": "/mdr/sendig/3-0/datasets/FW/variables/FWDTC", "title": "Date/Time of Observation", "type": "SDTM Dataset Variable"}}, "core": "Exp", "describedValueDomain": "ISO 8601", "description": "Date/time of the start of theobservation in IS0 8601 character format.", "label": "Date/Time of Observation", "name": "FWDTC", "ordinal": "18", "role": "Timing", "simpleDatatype": "Char"}, {"_links": {"modelClassVariable": {"href": "/mdr/sdtm/1-2/classes/GeneralObservations/variables/--ENDTC", "title": "End Date/Time of Observation", "type": "Class Variable"}, "parentDataset": {"href": "/mdr/sendig/3-0/datasets/FW", "title": "Food and Water Consumption", "type": "SDTM Dataset"}, "parentProduct": {"href": "/mdr/sendig/3-0", "title": "Standard for Exchange of Nonclinical Data Implementation Guide: Nonclinical Studies Version 3.0 (Final)", "type": "Implementation Guide"}, "rootItem": {"href": "/mdr/root/sendig/datasets/FW/variables/FWENDTC", "title": "Version-agnostic anchor resource for SENDIG variable FW.FWENDTC", "type": "Root Data Element"}, "self": {"href": "/mdr/sendig/3-0/datasets/FW/variables/FWENDTC", "title": "End Date/Time of Observation", "type": "SDTM Dataset Variable"}}, "core": "Exp", "describedValueDomain": "ISO 8601", "description": "Date/time of the end of theobservation in IS0 8601 character format.", "label": "End Date/Time of Observation", "name": "FWENDTC", "ordinal": "19", "role": "Timing", "simpleDatatype": "Char"}, {"_links": {"modelClassVariable": {"href": "/mdr/sdtm/1-2/classes/GeneralObservations/variables/--DY", "title": "Study Day of Visit/Collection/Exam", "type": "Class Variable"}, "parentDataset": {"href": "/mdr/sendig/3-0/datasets/FW", "title": "Food and Water Consumption", "type": "SDTM Dataset"}, "parentProduct": {"href": "/mdr/sendig/3-0", "title": "Standard for Exchange of Nonclinical Data Implementation Guide: Nonclinical Studies Version 3.0 (Final)", "type": "Implementation Guide"}, "rootItem": {"href": "/mdr/root/sendig/datasets/FW/variables/FWDY", "title": "Version-agnostic anchor resource for SENDIG variable FW.FWDY", "type": "Root Data Element"}, "self": {"href": "/mdr/sendig/3-0/datasets/FW/variables/FWDY", "title": "Study Day of Observation", "type": "SDTM Dataset Variable"}}, "core": "Perm", "description": "Study day of the start of the observation, in integer days. The algorithm for calculations must be relative to the sponsor-defined RFSTDTC variable in the Demographics (DM) domain.", "label": "Study Day of Observation", "name": "FWDY", "ordinal": "20", "role": "Timing", "simpleDatatype": "Num"}, {"_links": {"modelClassVariable": {"href": "/mdr/sdtm/1-2/classes/GeneralObservations/variables/--ENDY", "title": "Study Day of End of Observation", "type": "Class Variable"}, "parentDataset": {"href": "/mdr/sendig/3-0/datasets/FW", "title": "Food and Water Consumption", "type": "SDTM Dataset"}, "parentProduct": {"href": "/mdr/sendig/3-0", "title": "Standard for Exchange of Nonclinical Data Implementation Guide: Nonclinical Studies Version 3.0 (Final)", "type": "Implementation Guide"}, "rootItem": {"href": "/mdr/root/sendig/datasets/FW/variables/FWENDY", "title": "Version-agnostic anchor resource for SENDIG variable FW.FWENDY", "type": "Root Data Element"}, "self": {"href": "/mdr/sendig/3-0/datasets/FW/variables/FWENDY", "title": "Study Day of End of Observation", "type": "SDTM Dataset Variable"}}, "core": "Perm", "description": "Study day of the end of the observation, measured as integer days. The algorithm for calculations must be relative to the sponsor-defined RFSTDTC variable in the Demographics (DM) domain.", "label": "Study Day of End of Observation", "name": "FWENDY", "ordinal": "21", "role": "Timing", "simpleDatatype": "Num"}], "description": "This domain captures food/water consumption of animals in the study. The data in this domain is derived data. (Source: CDISC Controlled Terminology, SDOMAIN, C95090, 2018-06-29)", "label": "Food and Water Consumption", "name": "FW", "ordinal": "10"}
