{"_links": {"parentClass": {"href": "/mdr/sendig/3-0/classes/Findings", "title": "Findings Observation Class", "type": "Class"}, "parentProduct": {"href": "/mdr/sendig/3-0", "title": "Standard for Exchange of Nonclinical Data Implementation Guide: Nonclinical Studies Version 3.0 (Final)", "type": "Implementation Guide"}, "self": {"href": "/mdr/sendig/3-0/datasets/MA", "title": "Macroscopic Findings", "type": "SDTM Dataset"}}, "datasetStructure": "One record per finding per specimen per subject", "datasetVariables": [{"_links": {"modelClassVariable": {"href": "/mdr/sdtm/1-2/classes/GeneralObservations/variables/STUDYID", "title": "Study Identifier", "type": "Class Variable"}, "parentDataset": {"href": "/mdr/sendig/3-0/datasets/MA", "title": "Macroscopic Findings", "type": "SDTM Dataset"}, "parentProduct": {"href": "/mdr/sendig/3-0", "title": "Standard for Exchange of Nonclinical Data Implementation Guide: Nonclinical Studies Version 3.0 (Final)", "type": "Implementation Guide"}, "rootItem": {"href": "/mdr/root/sendig/datasets/MA/variables/STUDYID", "title": "Version-agnostic anchor resource for SENDIG variable MA.STUDYID", "type": "Root Data Element"}, "self": {"href": "/mdr/sendig/3-0/datasets/MA/variables/STUDYID", "title": "Study Identifier", "type": "SDTM Dataset Variable"}}, "core": "Req", "description": "Unique identifier for a study.", "label": "Study Identifier", "name": "STUDYID", "ordinal": "1", "role": "Identifier", "simpleDatatype": "Char"}, {"_links": {"modelClassVariable": {"href": "/mdr/sdtm/1-2/classes/GeneralObservations/variables/DOMAIN", "title": "Domain Abbreviation", "type": "Class Variable"}, "parentDataset": {"href": "/mdr/sendig/3-0/datasets/MA", "title": "Macroscopic Findings", "type": "SDTM Dataset"}, "parentProduct": {"href": "/mdr/sendig/3-0", "title": "Standard for Exchange of Nonclinical Data Implementation Guide: Nonclinical Studies Version 3.0 (Final)", "type": "Implementation Guide"}, "rootItem": {"href": "/mdr/root/sendig/datasets/MA/variables/DOMAIN", "title": "Version-agnostic anchor resource for SENDIG variable MA.DOMAIN", "type": "Root Data Element"}, "self": {"href": "/mdr/sendig/3-0/datasets/MA/variables/DOMAIN", "title": "Domain Abbreviation", "type": "SDTM Dataset Variable"}}, "core": "Req", "description": "Two-character code for the domain.", "label": "Domain Abbreviation", "name": "DOMAIN", "ordinal": "2", "role": "Identifier", "simpleDatatype": "Char", "valueList": ["MA"]}, {"_links": {"modelClassVariable": {"href": "/mdr/sdtm/1-2/classes/GeneralObservations/variables/USUBJID", "title": "Unique Subject Identifier", "type": "Class Variable"}, "parentDataset": {"href": "/mdr/sendig/3-0/datasets/MA", "title": "Macroscopic Findings", "type": "SDTM Dataset"}, "parentProduct": {"href": "/mdr/sendig/3-0", "title": "Standard for Exchange of Nonclinical Data Implementation Guide: Nonclinical Studies Version 3.0 (Final)", "type": "Implementation Guide"}, "rootItem": {"href": "/mdr/root/sendig/datasets/MA/variables/USUBJID", "title": "Version-agnostic anchor resource for SENDIG variable MA.USUBJID", "type": "Root Data Element"}, "self": {"href": "/mdr/sendig/3-0/datasets/MA/variables/USUBJID", "title": "Unique Subject Identifier", "type": "SDTM Dataset Variable"}}, "core": "Req", "description": "Identifier used to uniquely identify a subject across all studies for all applications or submissions involving the product.", "label": "Unique Subject Identifier", "name": "USUBJID", "ordinal": "3", "role": "Identifier", "simpleDatatype": "Char"}, {"_links": {"modelClassVariable": {"href": "/mdr/sdtm/1-2/classes/GeneralObservations/variables/--SEQ", "title": "Sequence Number", "type": "Class Variable"}, "parentDataset": {"href": "/mdr/sendig/3-0/datasets/MA", "title": "Macroscopic Findings", "type": "SDTM Dataset"}, "parentProduct": {"href": "/mdr/sendig/3-0", "title": "Standard for Exchange of Nonclinical Data Implementation Guide: Nonclinical Studies Version 3.0 (Final)", "type": "Implementation Guide"}, "rootItem": {"href": "/mdr/root/sendig/datasets/MA/variables/MASEQ", "title": "Version-agnostic anchor resource for SENDIG variable MA.MASEQ", "type": "Root Data Element"}, "self": {"href": "/mdr/sendig/3-0/datasets/MA/variables/MASEQ", "title": "Sequence Number", "type": "SDTM Dataset Variable"}}, "core": "Req", "description": "Sequence number given to ensure uniqueness of subject records within a domain. May be any valid number.", "label": "Sequence Number", "name": "MASEQ", "ordinal": "4", "role": "Identifier", "simpleDatatype": "Num"}, {"_links": {"modelClassVariable": {"href": "/mdr/sdtm/1-2/classes/GeneralObservations/variables/--GRPID", "title": "Group ID", "type": "Class Variable"}, "parentDataset": {"href": "/mdr/sendig/3-0/datasets/MA", "title": "Macroscopic Findings", "type": "SDTM Dataset"}, "parentProduct": {"href": "/mdr/sendig/3-0", "title": "Standard for Exchange of Nonclinical Data Implementation Guide: Nonclinical Studies Version 3.0 (Final)", "type": "Implementation Guide"}, "rootItem": {"href": "/mdr/root/sendig/datasets/MA/variables/MAGRPID", "title": "Version-agnostic anchor resource for SENDIG variable MA.MAGRPID", "type": "Root Data Element"}, "self": {"href": "/mdr/sendig/3-0/datasets/MA/variables/MAGRPID", "title": "Group Identifier", "type": "SDTM Dataset Variable"}}, "core": "Perm", "description": "Used to link together a block of related records for an animal in a single domain. This is not the treatment group number.", "label": "Group Identifier", "name": "MAGRPID", "ordinal": "5", "role": "Identifier", "simpleDatatype": "Char"}, {"_links": {"modelClassVariable": {"href": "/mdr/sdtm/1-2/classes/GeneralObservations/variables/--REFID", "title": "Reference ID", "type": "Class Variable"}, "parentDataset": {"href": "/mdr/sendig/3-0/datasets/MA", "title": "Macroscopic Findings", "type": "SDTM Dataset"}, "parentProduct": {"href": "/mdr/sendig/3-0", "title": "Standard for Exchange of Nonclinical Data Implementation Guide: Nonclinical Studies Version 3.0 (Final)", "type": "Implementation Guide"}, "rootItem": {"href": "/mdr/root/sendig/datasets/MA/variables/MAREFID", "title": "Version-agnostic anchor resource for SENDIG variable MA.MAREFID", "type": "Root Data Element"}, "self": {"href": "/mdr/sendig/3-0/datasets/MA/variables/MAREFID", "title": "Specimen Reference Identifier", "type": "SDTM Dataset Variable"}}, "core": "Perm", "description": "Optional internal or external identifier.", "label": "Specimen Reference Identifier", "name": "MAREFID", "ordinal": "6", "role": "Identifier", "simpleDatatype": "Char"}, {"_links": {"modelClassVariable": {"href": "/mdr/sdtm/1-2/classes/GeneralObservations/variables/--SPID", "title": "Sponsor ID", "type": "Class Variable"}, "parentDataset": {"href": "/mdr/sendig/3-0/datasets/MA", "title": "Macroscopic Findings", "type": "SDTM Dataset"}, "parentProduct": {"href": "/mdr/sendig/3-0", "title": "Standard for Exchange of Nonclinical Data Implementation Guide: Nonclinical Studies Version 3.0 (Final)", "type": "Implementation Guide"}, "rootItem": {"href": "/mdr/root/sendig/datasets/MA/variables/MASPID", "title": "Version-agnostic anchor resource for SENDIG variable MA.MASPID", "type": "Root Data Element"}, "self": {"href": "/mdr/sendig/3-0/datasets/MA/variables/MASPID", "title": "Mass Identifier", "type": "SDTM Dataset Variable"}}, "core": "Perm", "description": "Mass identifier such as MASS 1 or MASS A. Used when the mass was discovered during the in-life phase or during pathology and assigned a mass identifier. The mass identification should be unique within the subject, regardless of mass location.", "label": "Mass Identifier", "name": "MASPID", "ordinal": "7", "role": "Identifier", "simpleDatatype": "Char"}, {"_links": {"codelist": [{"href": "/mdr/root/ct/sendct/codelists/C89972", "title": "Version-agnostic anchor resource for codelist C89972", "type": "Root Value Domain"}], "modelClassVariable": {"href": "/mdr/sdtm/1-2/classes/Findings/variables/--TESTCD", "title": "Short Name of Measurement, Test or Examination", "type": "Class Variable"}, "parentDataset": {"href": "/mdr/sendig/3-0/datasets/MA", "title": "Macroscopic Findings", "type": "SDTM Dataset"}, "parentProduct": {"href": "/mdr/sendig/3-0", "title": "Standard for Exchange of Nonclinical Data Implementation Guide: Nonclinical Studies Version 3.0 (Final)", "type": "Implementation Guide"}, "rootItem": {"href": "/mdr/root/sendig/datasets/MA/variables/MATESTCD", "title": "Version-agnostic anchor resource for SENDIG variable MA.MATESTCD", "type": "Root Data Element"}, "self": {"href": "/mdr/sendig/3-0/datasets/MA/variables/MATESTCD", "title": "Macroscopic Examination Short Name", "type": "SDTM Dataset Variable"}}, "core": "Req", "description": "Short name of the measurement, test, or examination described in MATEST. It can be used as a column name when converting a dataset from a vertical to a horizontal format. The value in MATESTCD cannot be longer than 8 characters, nor can it start with a number (e.g., \"1TEST\" is not valid). MATESTCD cannot contain characters other than letters, numbers, or underscores.", "label": "Macroscopic Examination Short Name", "name": "MATESTCD", "ordinal": "8", "role": "Topic", "simpleDatatype": "Char"}, {"_links": {"codelist": [{"href": "/mdr/root/ct/sendct/codelists/C89971", "title": "Version-agnostic anchor resource for codelist C89971", "type": "Root Value Domain"}], "modelClassVariable": {"href": "/mdr/sdtm/1-2/classes/Findings/variables/--TEST", "title": "Name of Measurement, Test or Examination", "type": "Class Variable"}, "parentDataset": {"href": "/mdr/sendig/3-0/datasets/MA", "title": "Macroscopic Findings", "type": "SDTM Dataset"}, "parentProduct": {"href": "/mdr/sendig/3-0", "title": "Standard for Exchange of Nonclinical Data Implementation Guide: Nonclinical Studies Version 3.0 (Final)", "type": "Implementation Guide"}, "rootItem": {"href": "/mdr/root/sendig/datasets/MA/variables/MATEST", "title": "Version-agnostic anchor resource for SENDIG variable MA.MATEST", "type": "Root Data Element"}, "self": {"href": "/mdr/sendig/3-0/datasets/MA/variables/MATEST", "title": "Macroscopic Examination Name", "type": "SDTM Dataset Variable"}}, "core": "Req", "description": "Long name for MATESTCD. The value in MATEST cannot be longer than 40 characters. Extensible controlled values are Gross Pathological Examination, Clinical Signs Follow-up.", "label": "Macroscopic Examination Name", "name": "MATEST", "ordinal": "9", "role": "Synonym Qualifier", "simpleDatatype": "Char"}, {"_links": {"codelist": [{"href": "/mdr/root/ct/sendct/codelists/C88026", "title": "Version-agnostic anchor resource for codelist C88026", "type": "Root Value Domain"}], "modelClassVariable": {"href": "/mdr/sdtm/1-2/classes/Findings/variables/--BODSYS", "title": "Body System or Organ Class", "type": "Class Variable"}, "parentDataset": {"href": "/mdr/sendig/3-0/datasets/MA", "title": "Macroscopic Findings", "type": "SDTM Dataset"}, "parentProduct": {"href": "/mdr/sendig/3-0", "title": "Standard for Exchange of Nonclinical Data Implementation Guide: Nonclinical Studies Version 3.0 (Final)", "type": "Implementation Guide"}, "rootItem": {"href": "/mdr/root/sendig/datasets/MA/variables/MABODSYS", "title": "Version-agnostic anchor resource for SENDIG variable MA.MABODSYS", "type": "Root Data Element"}, "self": {"href": "/mdr/sendig/3-0/datasets/MA/variables/MABODSYS", "title": "Body System or Organ Class", "type": "SDTM Dataset Variable"}}, "core": "Perm", "description": "Body system or organ class associated with the measurement performed.", "label": "Body System or Organ Class", "name": "MABODSYS", "ordinal": "10", "role": "Record Qualifier", "simpleDatatype": "Char"}, {"_links": {"modelClassVariable": {"href": "/mdr/sdtm/1-2/classes/Findings/variables/--ORRES", "title": "Result or Finding in Original Units", "type": "Class Variable"}, "parentDataset": {"href": "/mdr/sendig/3-0/datasets/MA", "title": "Macroscopic Findings", "type": "SDTM Dataset"}, "parentProduct": {"href": "/mdr/sendig/3-0", "title": "Standard for Exchange of Nonclinical Data Implementation Guide: Nonclinical Studies Version 3.0 (Final)", "type": "Implementation Guide"}, "rootItem": {"href": "/mdr/root/sendig/datasets/MA/variables/MAORRES", "title": "Version-agnostic anchor resource for SENDIG variable MA.MAORRES", "type": "Root Data Element"}, "self": {"href": "/mdr/sendig/3-0/datasets/MA/variables/MAORRES", "title": "Result or Findings as Collected", "type": "SDTM Dataset Variable"}}, "core": "Exp", "description": "Text description of the findings as originally received or collected, including the base gross pathological observation and any modifiers, such as severity, origin, classification, size, color, etc.", "label": "Result or Findings as Collected", "name": "MAORRES", "ordinal": "11", "role": "Result Qualifier", "simpleDatatype": "Char"}, {"_links": {"modelClassVariable": {"href": "/mdr/sdtm/1-2/classes/Findings/variables/--STRESC", "title": "Result or Finding in Standard Format", "type": "Class Variable"}, "parentDataset": {"href": "/mdr/sendig/3-0/datasets/MA", "title": "Macroscopic Findings", "type": "SDTM Dataset"}, "parentProduct": {"href": "/mdr/sendig/3-0", "title": "Standard for Exchange of Nonclinical Data Implementation Guide: Nonclinical Studies Version 3.0 (Final)", "type": "Implementation Guide"}, "rootItem": {"href": "/mdr/root/sendig/datasets/MA/variables/MASTRESC", "title": "Version-agnostic anchor resource for SENDIG variable MA.MASTRESC", "type": "Root Data Element"}, "self": {"href": "/mdr/sendig/3-0/datasets/MA/variables/MASTRESC", "title": "Standardized Result in Character Format", "type": "SDTM Dataset Variable"}}, "core": "Exp", "description": "Contains only the base gross pathological observation (e.g., ENLARGED) from MAORRES without any modifiers. Or, if the examination was completed and there were no findings, the value must be NORMAL.", "label": "Standardized Result in Character Format", "name": "MASTRESC", "ordinal": "12", "role": "Result Qualifier", "simpleDatatype": "Char"}, {"_links": {"codelist": [{"href": "/mdr/root/ct/sendct/codelists/C66789", "title": "Version-agnostic anchor resource for codelist C66789", "type": "Root Value Domain"}], "modelClassVariable": {"href": "/mdr/sdtm/1-2/classes/Findings/variables/--STAT", "title": "Completion Status", "type": "Class Variable"}, "parentDataset": {"href": "/mdr/sendig/3-0/datasets/MA", "title": "Macroscopic Findings", "type": "SDTM Dataset"}, "parentProduct": {"href": "/mdr/sendig/3-0", "title": "Standard for Exchange of Nonclinical Data Implementation Guide: Nonclinical Studies Version 3.0 (Final)", "type": "Implementation Guide"}, "rootItem": {"href": "/mdr/root/sendig/datasets/MA/variables/MASTAT", "title": "Version-agnostic anchor resource for SENDIG variable MA.MASTAT", "type": "Root Data Element"}, "self": {"href": "/mdr/sendig/3-0/datasets/MA/variables/MASTAT", "title": "Examination Status", "type": "SDTM Dataset Variable"}}, "core": "Perm", "description": "Used to indicate examination not done or result is missing. Should be null if a result exists in MAORRES.", "label": "Examination Status", "name": "MASTAT", "ordinal": "13", "role": "Record Qualifier", "simpleDatatype": "Char"}, {"_links": {"modelClassVariable": {"href": "/mdr/sdtm/1-2/classes/Findings/variables/--REASND", "title": "Reason Not Done", "type": "Class Variable"}, "parentDataset": {"href": "/mdr/sendig/3-0/datasets/MA", "title": "Macroscopic Findings", "type": "SDTM Dataset"}, "parentProduct": {"href": "/mdr/sendig/3-0", "title": "Standard for Exchange of Nonclinical Data Implementation Guide: Nonclinical Studies Version 3.0 (Final)", "type": "Implementation Guide"}, "rootItem": {"href": "/mdr/root/sendig/datasets/MA/variables/MAREASND", "title": "Version-agnostic anchor resource for SENDIG variable MA.MAREASND", "type": "Root Data Element"}, "self": {"href": "/mdr/sendig/3-0/datasets/MA/variables/MAREASND", "title": "Reason Not Done", "type": "SDTM Dataset Variable"}}, "core": "Perm", "description": "Describes why MASTAT is NOT DONE.", "label": "Reason Not Done", "name": "MAREASND", "ordinal": "14", "role": "Record Qualifier", "simpleDatatype": "Char"}, {"_links": {"modelClassVariable": {"href": "/mdr/sdtm/1-2/classes/Findings/variables/--NAM", "title": "Laboratory/Vendor Name", "type": "Class Variable"}, "parentDataset": {"href": "/mdr/sendig/3-0/datasets/MA", "title": "Macroscopic Findings", "type": "SDTM Dataset"}, "parentProduct": {"href": "/mdr/sendig/3-0", "title": "Standard for Exchange of Nonclinical Data Implementation Guide: Nonclinical Studies Version 3.0 (Final)", "type": "Implementation Guide"}, "rootItem": {"href": "/mdr/root/sendig/datasets/MA/variables/MANAM", "title": "Version-agnostic anchor resource for SENDIG variable MA.MANAM", "type": "Root Data Element"}, "self": {"href": "/mdr/sendig/3-0/datasets/MA/variables/MANAM", "title": "Laboratory Name", "type": "SDTM Dataset Variable"}}, "core": "Perm", "description": "Char Name or identifier of the vendor (i.e., laboratory) that provided the test results.", "label": "Laboratory Name", "name": "MANAM", "ordinal": "15", "role": "Record Qualifier", "simpleDatatype": "Char"}, {"_links": {"codelist": [{"href": "/mdr/root/ct/sendct/codelists/C77529", "title": "Version-agnostic anchor resource for codelist C77529", "type": "Root Value Domain"}], "modelClassVariable": {"href": "/mdr/sdtm/1-2/classes/Findings/variables/--SPEC", "title": "Specimen Material Type", "type": "Class Variable"}, "parentDataset": {"href": "/mdr/sendig/3-0/datasets/MA", "title": "Macroscopic Findings", "type": "SDTM Dataset"}, "parentProduct": {"href": "/mdr/sendig/3-0", "title": "Standard for Exchange of Nonclinical Data Implementation Guide: Nonclinical Studies Version 3.0 (Final)", "type": "Implementation Guide"}, "rootItem": {"href": "/mdr/root/sendig/datasets/MA/variables/MASPEC", "title": "Version-agnostic anchor resource for SENDIG variable MA.MASPEC", "type": "Root Data Element"}, "self": {"href": "/mdr/sendig/3-0/datasets/MA/variables/MASPEC", "title": "Specimen Material Type", "type": "SDTM Dataset Variable"}}, "core": "Exp", "description": "Defines the type of tissue, organ, or fluid specimen used as the object for the finding. Examples: GLAND, ADRENAL; KIDNEY; VESSEL, LYMPHATIC. See also Assumption 4.b.", "label": "Specimen Material Type", "name": "MASPEC", "ordinal": "16", "role": "Record Qualifier", "simpleDatatype": "Char"}, {"_links": {"parentDataset": {"href": "/mdr/sendig/3-0/datasets/MA", "title": "Macroscopic Findings", "type": "SDTM Dataset"}, "parentProduct": {"href": "/mdr/sendig/3-0", "title": "Standard for Exchange of Nonclinical Data Implementation Guide: Nonclinical Studies Version 3.0 (Final)", "type": "Implementation Guide"}, "rootItem": {"href": "/mdr/root/sendig/datasets/MA/variables/MAANTREG", "title": "Version-agnostic anchor resource for SENDIG variable MA.MAANTREG", "type": "Root Data Element"}, "self": {"href": "/mdr/sendig/3-0/datasets/MA/variables/MAANTREG", "title": "Anatomical Region of Specimen", "type": "SDTM Dataset Variable"}}, "core": "Exp", "description": "Defines the specific anatomical or biological region of a tissue, organ specimen or the region from which the specimen was obtained, such as a section or part of what is defined in the --SPEC variable. If the anatomical region is not included in the specimen description --SPEC, it may be included in this variable. This field can be a combination of terms where needed. This field can be null if not applicable. Examples: CORTEX, MEDULLA, MUCOSA, SEROSA, ISLET, ZONA FASICULATA, ZONA RETICULARIS, CRANIAL, MEDIAN, ACCESSORY, SPINAL, LUMBAR, FRONTAL.", "label": "Anatomical Region of Specimen", "name": "MAANTREG", "ordinal": "17", "role": "Variable Qualifier", "simpleDatatype": "Char"}, {"_links": {"modelClassVariable": {"href": "/mdr/sdtm/1-2/classes/Findings/variables/--SPCCND", "title": "Specimen Condition", "type": "Class Variable"}, "parentDataset": {"href": "/mdr/sendig/3-0/datasets/MA", "title": "Macroscopic Findings", "type": "SDTM Dataset"}, "parentProduct": {"href": "/mdr/sendig/3-0", "title": "Standard for Exchange of Nonclinical Data Implementation Guide: Nonclinical Studies Version 3.0 (Final)", "type": "Implementation Guide"}, "rootItem": {"href": "/mdr/root/sendig/datasets/MA/variables/MASPCCND", "title": "Version-agnostic anchor resource for SENDIG variable MA.MASPCCND", "type": "Root Data Element"}, "self": {"href": "/mdr/sendig/3-0/datasets/MA/variables/MASPCCND", "title": "Specimen Condition", "type": "SDTM Dataset Variable"}}, "core": "Perm", "description": "Free or standardized text describing the condition of the specimen. Example: AUTOLYZED.", "label": "Specimen Condition", "name": "MASPCCND", "ordinal": "18", "role": "Variable Qualifier", "simpleDatatype": "Char"}, {"_links": {"codelist": [{"href": "/mdr/root/ct/sendct/codelists/C66742", "title": "Version-agnostic anchor resource for codelist C66742", "type": "Root Value Domain"}], "parentDataset": {"href": "/mdr/sendig/3-0/datasets/MA", "title": "Macroscopic Findings", "type": "SDTM Dataset"}, "parentProduct": {"href": "/mdr/sendig/3-0", "title": "Standard for Exchange of Nonclinical Data Implementation Guide: Nonclinical Studies Version 3.0 (Final)", "type": "Implementation Guide"}, "rootItem": {"href": "/mdr/root/sendig/datasets/MA/variables/MASPCUFL", "title": "Version-agnostic anchor resource for SENDIG variable MA.MASPCUFL", "type": "Root Data Element"}, "self": {"href": "/mdr/sendig/3-0/datasets/MA/variables/MASPCUFL", "title": "Specimen Usability for the Test", "type": "SDTM Dataset Variable"}}, "core": "Perm", "description": "Describes the usability of the specimen for the test. Example: N = the specimen is not usable; otherwise null.", "label": "Specimen Usability for the Test", "name": "MASPCUFL", "ordinal": "19", "role": "Variable Qualifier", "simpleDatatype": "Char"}, {"_links": {"codelist": [{"href": "/mdr/root/ct/sendct/codelists/C99073", "title": "Version-agnostic anchor resource for codelist C99073", "type": "Root Value Domain"}], "parentDataset": {"href": "/mdr/sendig/3-0/datasets/MA", "title": "Macroscopic Findings", "type": "SDTM Dataset"}, "parentProduct": {"href": "/mdr/sendig/3-0", "title": "Standard for Exchange of Nonclinical Data Implementation Guide: Nonclinical Studies Version 3.0 (Final)", "type": "Implementation Guide"}, "rootItem": {"href": "/mdr/root/sendig/datasets/MA/variables/MALAT", "title": "Version-agnostic anchor resource for SENDIG variable MA.MALAT", "type": "Root Data Element"}, "self": {"href": "/mdr/sendig/3-0/datasets/MA/variables/MALAT", "title": "Specimen Laterality within Subject", "type": "SDTM Dataset Variable"}}, "core": "Perm", "description": "Qualifier for laterality of the specimen within the subject for paired specimens. Examples: LEFT, RIGHT, BILATERAL.", "label": "Specimen Laterality within Subject", "name": "MALAT", "ordinal": "20", "role": "Variable Qualifier", "simpleDatatype": "Char"}, {"_links": {"codelist": [{"href": "/mdr/root/ct/sendct/codelists/C99074", "title": "Version-agnostic anchor resource for codelist C99074", "type": "Root Value Domain"}], "parentDataset": {"href": "/mdr/sendig/3-0/datasets/MA", "title": "Macroscopic Findings", "type": "SDTM Dataset"}, "parentProduct": {"href": "/mdr/sendig/3-0", "title": "Standard for Exchange of Nonclinical Data Implementation Guide: Nonclinical Studies Version 3.0 (Final)", "type": "Implementation Guide"}, "rootItem": {"href": "/mdr/root/sendig/datasets/MA/variables/MADIR", "title": "Version-agnostic anchor resource for SENDIG variable MA.MADIR", "type": "Root Data Element"}, "self": {"href": "/mdr/sendig/3-0/datasets/MA/variables/MADIR", "title": "Specimen Directionality within Subject", "type": "SDTM Dataset Variable"}}, "core": "Perm", "description": "Qualifier for directionality of the specimen within the subject. Examples: DORSAL, PROXIMAL.", "label": "Specimen Directionality within Subject", "name": "MADIR", "ordinal": "21", "role": "Variable Qualifier", "simpleDatatype": "Char"}, {"_links": {"codelist": [{"href": "/mdr/root/ct/sendct/codelists/C99075", "title": "Version-agnostic anchor resource for codelist C99075", "type": "Root Value Domain"}], "parentDataset": {"href": "/mdr/sendig/3-0/datasets/MA", "title": "Macroscopic Findings", "type": "SDTM Dataset"}, "parentProduct": {"href": "/mdr/sendig/3-0", "title": "Standard for Exchange of Nonclinical Data Implementation Guide: Nonclinical Studies Version 3.0 (Final)", "type": "Implementation Guide"}, "rootItem": {"href": "/mdr/root/sendig/datasets/MA/variables/MAPORTOT", "title": "Version-agnostic anchor resource for SENDIG variable MA.MAPORTOT", "type": "Root Data Element"}, "self": {"href": "/mdr/sendig/3-0/datasets/MA/variables/MAPORTOT", "title": "Portion or Totality", "type": "SDTM Dataset Variable"}}, "core": "Perm", "description": "Qualifier for anatomical location or specimen further detailing the portion or totality which means arrangement of, or apportioning of, for example, ENTIRE, SINGLE, SEGMENT, MANY.", "label": "Portion or Totality", "name": "MAPORTOT", "ordinal": "22", "role": "Variable Qualifier", "simpleDatatype": "Char"}, {"_links": {"modelClassVariable": {"href": "/mdr/sdtm/1-2/classes/Findings/variables/--EVAL", "title": "Evaluator", "type": "Class Variable"}, "parentDataset": {"href": "/mdr/sendig/3-0/datasets/MA", "title": "Macroscopic Findings", "type": "SDTM Dataset"}, "parentProduct": {"href": "/mdr/sendig/3-0", "title": "Standard for Exchange of Nonclinical Data Implementation Guide: Nonclinical Studies Version 3.0 (Final)", "type": "Implementation Guide"}, "rootItem": {"href": "/mdr/root/sendig/datasets/MA/variables/MAEVAL", "title": "Version-agnostic anchor resource for SENDIG variable MA.MAEVAL", "type": "Root Data Element"}, "self": {"href": "/mdr/sendig/3-0/datasets/MA/variables/MAEVAL", "title": "Evaluator", "type": "SDTM Dataset Variable"}}, "core": "Perm", "description": "Role of the person who provided the evaluation. Used only for results that are subjective (i.e., assigned by a person or a group). Examples: PRINCIPAL PATHOLOGIST, PEER REVIEW, SPONSOR PATHOLOGIST.", "label": "Evaluator", "name": "MAEVAL", "ordinal": "23", "role": "Record Qualifier", "simpleDatatype": "Char"}, {"_links": {"codelist": [{"href": "/mdr/root/ct/sendct/codelists/C90000", "title": "Version-agnostic anchor resource for codelist C90000", "type": "Root Value Domain"}], "modelClassVariable": {"href": "/mdr/sdtm/1-2/classes/Findings/variables/--SEV", "title": "Severity", "type": "Class Variable"}, "parentDataset": {"href": "/mdr/sendig/3-0/datasets/MA", "title": "Macroscopic Findings", "type": "SDTM Dataset"}, "parentProduct": {"href": "/mdr/sendig/3-0", "title": "Standard for Exchange of Nonclinical Data Implementation Guide: Nonclinical Studies Version 3.0 (Final)", "type": "Implementation Guide"}, "rootItem": {"href": "/mdr/root/sendig/datasets/MA/variables/MASEV", "title": "Version-agnostic anchor resource for SENDIG variable MA.MASEV", "type": "Root Data Element"}, "self": {"href": "/mdr/sendig/3-0/datasets/MA/variables/MASEV", "title": "Severity", "type": "SDTM Dataset Variable"}}, "core": "Perm", "description": "Describes the severity or intensity of a particular finding. Examples: MILD, MODERATE, SEVERE.", "label": "Severity", "name": "MASEV", "ordinal": "24", "role": "Record Qualifier", "simpleDatatype": "Char"}, {"_links": {"codelist": [{"href": "/mdr/root/ct/sendct/codelists/C66742", "title": "Version-agnostic anchor resource for codelist C66742", "type": "Root Value Domain"}], "modelClassVariable": {"href": "/mdr/sdtm/1-2/classes/Findings/variables/--DTHREL", "title": "Relationship to Death", "type": "Class Variable"}, "parentDataset": {"href": "/mdr/sendig/3-0/datasets/MA", "title": "Macroscopic Findings", "type": "SDTM Dataset"}, "parentProduct": {"href": "/mdr/sendig/3-0", "title": "Standard for Exchange of Nonclinical Data Implementation Guide: Nonclinical Studies Version 3.0 (Final)", "type": "Implementation Guide"}, "rootItem": {"href": "/mdr/root/sendig/datasets/MA/variables/MADTHREL", "title": "Version-agnostic anchor resource for SENDIG variable MA.MADTHREL", "type": "Root Data Element"}, "self": {"href": "/mdr/sendig/3-0/datasets/MA/variables/MADTHREL", "title": "Relationship to Death", "type": "SDTM Dataset Variable"}}, "core": "Perm", "description": "Describes the relationship of a particular finding to the death of a subject (Y=caused death, N=did not cause death, U=unknown). May be left null if not available.", "label": "Relationship to Death", "name": "MADTHREL", "ordinal": "25", "role": "Record Qualifier", "simpleDatatype": "Char"}, {"_links": {"modelClassVariable": {"href": "/mdr/sdtm/1-2/classes/GeneralObservations/variables/--DTC", "title": "Date/Time of Collection", "type": "Class Variable"}, "parentDataset": {"href": "/mdr/sendig/3-0/datasets/MA", "title": "Macroscopic Findings", "type": "SDTM Dataset"}, "parentProduct": {"href": "/mdr/sendig/3-0", "title": "Standard for Exchange of Nonclinical Data Implementation Guide: Nonclinical Studies Version 3.0 (Final)", "type": "Implementation Guide"}, "rootItem": {"href": "/mdr/root/sendig/datasets/MA/variables/MADTC", "title": "Version-agnostic anchor resource for SENDIG variable MA.MADTC", "type": "Root Data Element"}, "self": {"href": "/mdr/sendig/3-0/datasets/MA/variables/MADTC", "title": "Date/Time of Collection", "type": "SDTM Dataset Variable"}}, "core": "Perm", "describedValueDomain": "ISO 8601", "description": "Date/time of specimen collection in ISO 8601 format.", "label": "Date/Time of Collection", "name": "MADTC", "ordinal": "26", "role": "Timing", "simpleDatatype": "Char"}, {"_links": {"modelClassVariable": {"href": "/mdr/sdtm/1-2/classes/GeneralObservations/variables/--DY", "title": "Study Day of Visit/Collection/Exam", "type": "Class Variable"}, "parentDataset": {"href": "/mdr/sendig/3-0/datasets/MA", "title": "Macroscopic Findings", "type": "SDTM Dataset"}, "parentProduct": {"href": "/mdr/sendig/3-0", "title": "Standard for Exchange of Nonclinical Data Implementation Guide: Nonclinical Studies Version 3.0 (Final)", "type": "Implementation Guide"}, "rootItem": {"href": "/mdr/root/sendig/datasets/MA/variables/MADY", "title": "Version-agnostic anchor resource for SENDIG variable MA.MADY", "type": "Root Data Element"}, "self": {"href": "/mdr/sendig/3-0/datasets/MA/variables/MADY", "title": "Study Day of Specimen Collection", "type": "SDTM Dataset Variable"}}, "core": "Perm", "description": "Study day of specimen collection, in integer days. The algorithm for calculations must be relative to the sponsor-defined RFSTDTC variable in the Demographics (DM) domain.", "label": "Study Day of Specimen Collection", "name": "MADY", "ordinal": "27", "role": "Timing", "simpleDatatype": "Num"}], "description": "The gross pathology findings recorded at necropsy. (Source: CDISC Controlled Terminology, SDOMAIN, C95094, 2018-06-29)", "label": "Macroscopic Findings", "name": "MA", "ordinal": "12"}
