{"_links": {"parentClass": {"href": "/mdr/sendig/3-0/classes/Findings", "title": "Findings Observation Class", "type": "Class"}, "parentProduct": {"href": "/mdr/sendig/3-0", "title": "Standard for Exchange of Nonclinical Data Implementation Guide: Nonclinical Studies Version 3.0 (Final)", "type": "Implementation Guide"}, "self": {"href": "/mdr/sendig/3-0/datasets/MI", "title": "Microscopic Findings", "type": "SDTM Dataset"}}, "datasetStructure": "One record per finding per specimen per subject", "datasetVariables": [{"_links": {"modelClassVariable": {"href": "/mdr/sdtm/1-2/classes/GeneralObservations/variables/STUDYID", "title": "Study Identifier", "type": "Class Variable"}, "parentDataset": {"href": "/mdr/sendig/3-0/datasets/MI", "title": "Microscopic Findings", "type": "SDTM Dataset"}, "parentProduct": {"href": "/mdr/sendig/3-0", "title": "Standard for Exchange of Nonclinical Data Implementation Guide: Nonclinical Studies Version 3.0 (Final)", "type": "Implementation Guide"}, "rootItem": {"href": "/mdr/root/sendig/datasets/MI/variables/STUDYID", "title": "Version-agnostic anchor resource for SENDIG variable MI.STUDYID", "type": "Root Data Element"}, "self": {"href": "/mdr/sendig/3-0/datasets/MI/variables/STUDYID", "title": "Study Identifier", "type": "SDTM Dataset Variable"}}, "core": "Req", "description": "Unique identifier for a study.", "label": "Study Identifier", "name": "STUDYID", "ordinal": "1", "role": "Identifier", "simpleDatatype": "Char"}, {"_links": {"modelClassVariable": {"href": "/mdr/sdtm/1-2/classes/GeneralObservations/variables/DOMAIN", "title": "Domain Abbreviation", "type": "Class Variable"}, "parentDataset": {"href": "/mdr/sendig/3-0/datasets/MI", "title": "Microscopic Findings", "type": "SDTM Dataset"}, "parentProduct": {"href": "/mdr/sendig/3-0", "title": "Standard for Exchange of Nonclinical Data Implementation Guide: Nonclinical Studies Version 3.0 (Final)", "type": "Implementation Guide"}, "rootItem": {"href": "/mdr/root/sendig/datasets/MI/variables/DOMAIN", "title": "Version-agnostic anchor resource for SENDIG variable MI.DOMAIN", "type": "Root Data Element"}, "self": {"href": "/mdr/sendig/3-0/datasets/MI/variables/DOMAIN", "title": "Domain Abbreviation", "type": "SDTM Dataset Variable"}}, "core": "Req", "description": "Two-character abbreviation for the domain.", "label": "Domain Abbreviation", "name": "DOMAIN", "ordinal": "2", "role": "Identifier", "simpleDatatype": "Char", "valueList": ["MI"]}, {"_links": {"modelClassVariable": {"href": "/mdr/sdtm/1-2/classes/GeneralObservations/variables/USUBJID", "title": "Unique Subject Identifier", "type": "Class Variable"}, "parentDataset": {"href": "/mdr/sendig/3-0/datasets/MI", "title": "Microscopic Findings", "type": "SDTM Dataset"}, "parentProduct": {"href": "/mdr/sendig/3-0", "title": "Standard for Exchange of Nonclinical Data Implementation Guide: Nonclinical Studies Version 3.0 (Final)", "type": "Implementation Guide"}, "rootItem": {"href": "/mdr/root/sendig/datasets/MI/variables/USUBJID", "title": "Version-agnostic anchor resource for SENDIG variable MI.USUBJID", "type": "Root Data Element"}, "self": {"href": "/mdr/sendig/3-0/datasets/MI/variables/USUBJID", "title": "Unique Subject Identifier", "type": "SDTM Dataset Variable"}}, "core": "Req", "description": "Identifier used to uniquely identify a subject across all studies for all applications or submissions involving the product.", "label": "Unique Subject Identifier", "name": "USUBJID", "ordinal": "3", "role": "Identifier", "simpleDatatype": "Char"}, {"_links": {"modelClassVariable": {"href": "/mdr/sdtm/1-2/classes/GeneralObservations/variables/--SEQ", "title": "Sequence Number", "type": "Class Variable"}, "parentDataset": {"href": "/mdr/sendig/3-0/datasets/MI", "title": "Microscopic Findings", "type": "SDTM Dataset"}, "parentProduct": {"href": "/mdr/sendig/3-0", "title": "Standard for Exchange of Nonclinical Data Implementation Guide: Nonclinical Studies Version 3.0 (Final)", "type": "Implementation Guide"}, "rootItem": {"href": "/mdr/root/sendig/datasets/MI/variables/MISEQ", "title": "Version-agnostic anchor resource for SENDIG variable MI.MISEQ", "type": "Root Data Element"}, "self": {"href": "/mdr/sendig/3-0/datasets/MI/variables/MISEQ", "title": "Sequence Number", "type": "SDTM Dataset Variable"}}, "core": "Req", "description": "Sequence number given to ensure uniqueness of subject records within a domain. May be any valid number.", "label": "Sequence Number", "name": "MISEQ", "ordinal": "4", "role": "Identifier", "simpleDatatype": "Num"}, {"_links": {"modelClassVariable": {"href": "/mdr/sdtm/1-2/classes/GeneralObservations/variables/--GRPID", "title": "Group ID", "type": "Class Variable"}, "parentDataset": {"href": "/mdr/sendig/3-0/datasets/MI", "title": "Microscopic Findings", "type": "SDTM Dataset"}, "parentProduct": {"href": "/mdr/sendig/3-0", "title": "Standard for Exchange of Nonclinical Data Implementation Guide: Nonclinical Studies Version 3.0 (Final)", "type": "Implementation Guide"}, "rootItem": {"href": "/mdr/root/sendig/datasets/MI/variables/MIGRPID", "title": "Version-agnostic anchor resource for SENDIG variable MI.MIGRPID", "type": "Root Data Element"}, "self": {"href": "/mdr/sendig/3-0/datasets/MI/variables/MIGRPID", "title": "Group Identifier", "type": "SDTM Dataset Variable"}}, "core": "Perm", "description": "Used to tie together a block of related records in a single domain for a subject. This is not the treatment group number.", "label": "Group Identifier", "name": "MIGRPID", "ordinal": "5", "role": "Identifier", "simpleDatatype": "Char"}, {"_links": {"modelClassVariable": {"href": "/mdr/sdtm/1-2/classes/GeneralObservations/variables/--REFID", "title": "Reference ID", "type": "Class Variable"}, "parentDataset": {"href": "/mdr/sendig/3-0/datasets/MI", "title": "Microscopic Findings", "type": "SDTM Dataset"}, "parentProduct": {"href": "/mdr/sendig/3-0", "title": "Standard for Exchange of Nonclinical Data Implementation Guide: Nonclinical Studies Version 3.0 (Final)", "type": "Implementation Guide"}, "rootItem": {"href": "/mdr/root/sendig/datasets/MI/variables/MIREFID", "title": "Version-agnostic anchor resource for SENDIG variable MI.MIREFID", "type": "Root Data Element"}, "self": {"href": "/mdr/sendig/3-0/datasets/MI/variables/MIREFID", "title": "Specimen Reference Identifier", "type": "SDTM Dataset Variable"}}, "core": "Perm", "description": "Internal or external specimen identifier. Example: Specimen barcode number.", "label": "Specimen Reference Identifier", "name": "MIREFID", "ordinal": "6", "role": "Identifier", "simpleDatatype": "Char"}, {"_links": {"modelClassVariable": {"href": "/mdr/sdtm/1-2/classes/GeneralObservations/variables/--SPID", "title": "Sponsor ID", "type": "Class Variable"}, "parentDataset": {"href": "/mdr/sendig/3-0/datasets/MI", "title": "Microscopic Findings", "type": "SDTM Dataset"}, "parentProduct": {"href": "/mdr/sendig/3-0", "title": "Standard for Exchange of Nonclinical Data Implementation Guide: Nonclinical Studies Version 3.0 (Final)", "type": "Implementation Guide"}, "rootItem": {"href": "/mdr/root/sendig/datasets/MI/variables/MISPID", "title": "Version-agnostic anchor resource for SENDIG variable MI.MISPID", "type": "Root Data Element"}, "self": {"href": "/mdr/sendig/3-0/datasets/MI/variables/MISPID", "title": "Mass Identifier", "type": "SDTM Dataset Variable"}}, "core": "Perm", "description": "Mass identifier such as MASS 1 or MASS A. Used when the mass was discovered during the in-life phase or during pathology and assigned a mass identifier. The mass identification should be unique within the subject, regardless of mass location.", "label": "Mass Identifier", "name": "MISPID", "ordinal": "7", "role": "Identifier", "simpleDatatype": "Char"}, {"_links": {"codelist": [{"href": "/mdr/root/ct/sendct/codelists/C89974", "title": "Version-agnostic anchor resource for codelist C89974", "type": "Root Value Domain"}], "modelClassVariable": {"href": "/mdr/sdtm/1-2/classes/Findings/variables/--TESTCD", "title": "Short Name of Measurement, Test or Examination", "type": "Class Variable"}, "parentDataset": {"href": "/mdr/sendig/3-0/datasets/MI", "title": "Microscopic Findings", "type": "SDTM Dataset"}, "parentProduct": {"href": "/mdr/sendig/3-0", "title": "Standard for Exchange of Nonclinical Data Implementation Guide: Nonclinical Studies Version 3.0 (Final)", "type": "Implementation Guide"}, "rootItem": {"href": "/mdr/root/sendig/datasets/MI/variables/MITESTCD", "title": "Version-agnostic anchor resource for SENDIG variable MI.MITESTCD", "type": "Root Data Element"}, "self": {"href": "/mdr/sendig/3-0/datasets/MI/variables/MITESTCD", "title": "Microscopic Examination Short Name", "type": "SDTM Dataset Variable"}}, "core": "Req", "description": "Short name of the measurement, test, or examination described in MITEST. It can be used as a column name when converting a dataset from a vertical to a horizontal format. The value in MITESTCD cannot be longer than 8 characters, nor can it start with a number (e.g., \"1TEST\" is not valid). MITESTCD cannot contain characters other than letters, numbers, or underscores. Extensible controlled value is MIEXAM.", "label": "Microscopic Examination Short Name", "name": "MITESTCD", "ordinal": "8", "role": "Topic", "simpleDatatype": "Char"}, {"_links": {"codelist": [{"href": "/mdr/root/ct/sendct/codelists/C89973", "title": "Version-agnostic anchor resource for codelist C89973", "type": "Root Value Domain"}], "modelClassVariable": {"href": "/mdr/sdtm/1-2/classes/Findings/variables/--TEST", "title": "Name of Measurement, Test or Examination", "type": "Class Variable"}, "parentDataset": {"href": "/mdr/sendig/3-0/datasets/MI", "title": "Microscopic Findings", "type": "SDTM Dataset"}, "parentProduct": {"href": "/mdr/sendig/3-0", "title": "Standard for Exchange of Nonclinical Data Implementation Guide: Nonclinical Studies Version 3.0 (Final)", "type": "Implementation Guide"}, "rootItem": {"href": "/mdr/root/sendig/datasets/MI/variables/MITEST", "title": "Version-agnostic anchor resource for SENDIG variable MI.MITEST", "type": "Root Data Element"}, "self": {"href": "/mdr/sendig/3-0/datasets/MI/variables/MITEST", "title": "Microscopic Examination Name", "type": "SDTM Dataset Variable"}}, "core": "Req", "description": "Long name for MITESTCD. The value in MITEST cannot be longer than 40 characters. Extensible controlled value is Microscopic Examination.", "label": "Microscopic Examination Name", "name": "MITEST", "ordinal": "9", "role": "Synonym Qualifier", "simpleDatatype": "Char"}, {"_links": {"codelist": [{"href": "/mdr/root/ct/sendct/codelists/C88026", "title": "Version-agnostic anchor resource for codelist C88026", "type": "Root Value Domain"}], "modelClassVariable": {"href": "/mdr/sdtm/1-2/classes/Findings/variables/--BODSYS", "title": "Body System or Organ Class", "type": "Class Variable"}, "parentDataset": {"href": "/mdr/sendig/3-0/datasets/MI", "title": "Microscopic Findings", "type": "SDTM Dataset"}, "parentProduct": {"href": "/mdr/sendig/3-0", "title": "Standard for Exchange of Nonclinical Data Implementation Guide: Nonclinical Studies Version 3.0 (Final)", "type": "Implementation Guide"}, "rootItem": {"href": "/mdr/root/sendig/datasets/MI/variables/MIBODSYS", "title": "Version-agnostic anchor resource for SENDIG variable MI.MIBODSYS", "type": "Root Data Element"}, "self": {"href": "/mdr/sendig/3-0/datasets/MI/variables/MIBODSYS", "title": "Body System or Organ Class", "type": "SDTM Dataset Variable"}}, "core": "Perm", "description": "Body system or organ class associated with the measurement performed.", "label": "Body System or Organ Class", "name": "MIBODSYS", "ordinal": "10", "role": "Record Qualifier", "simpleDatatype": "Char"}, {"_links": {"modelClassVariable": {"href": "/mdr/sdtm/1-2/classes/Findings/variables/--ORRES", "title": "Result or Finding in Original Units", "type": "Class Variable"}, "parentDataset": {"href": "/mdr/sendig/3-0/datasets/MI", "title": "Microscopic Findings", "type": "SDTM Dataset"}, "parentProduct": {"href": "/mdr/sendig/3-0", "title": "Standard for Exchange of Nonclinical Data Implementation Guide: Nonclinical Studies Version 3.0 (Final)", "type": "Implementation Guide"}, "rootItem": {"href": "/mdr/root/sendig/datasets/MI/variables/MIORRES", "title": "Version-agnostic anchor resource for SENDIG variable MI.MIORRES", "type": "Root Data Element"}, "self": {"href": "/mdr/sendig/3-0/datasets/MI/variables/MIORRES", "title": "Result or Findings as Collected", "type": "SDTM Dataset Variable"}}, "core": "Exp", "description": "Text description of the findings as originally received or collected, including the base pathological process and any modifiers.", "label": "Result or Findings as Collected", "name": "MIORRES", "ordinal": "11", "role": "Result Qualifier", "simpleDatatype": "Char"}, {"_links": {"modelClassVariable": {"href": "/mdr/sdtm/1-2/classes/Findings/variables/--STRESC", "title": "Result or Finding in Standard Format", "type": "Class Variable"}, "parentDataset": {"href": "/mdr/sendig/3-0/datasets/MI", "title": "Microscopic Findings", "type": "SDTM Dataset"}, "parentProduct": {"href": "/mdr/sendig/3-0", "title": "Standard for Exchange of Nonclinical Data Implementation Guide: Nonclinical Studies Version 3.0 (Final)", "type": "Implementation Guide"}, "rootItem": {"href": "/mdr/root/sendig/datasets/MI/variables/MISTRESC", "title": "Version-agnostic anchor resource for SENDIG variable MI.MISTRESC", "type": "Root Data Element"}, "self": {"href": "/mdr/sendig/3-0/datasets/MI/variables/MISTRESC", "title": "Standardized Result in Character Format", "type": "SDTM Dataset Variable"}}, "core": "Exp", "description": "Contains only the base pathological process (e.g., NECROSIS) from MIORRES without any modifiers such as severity, distribution, frequency, grade, etc. Or, if the examination was completed and there were no findings, the value must be NORMAL. Tumors must be populated using TFSTRESC controlled list. MISTRESC is not currently controlled for non-neoplastic/non-tumor findings.", "label": "Standardized Result in Character Format", "name": "MISTRESC", "ordinal": "12", "role": "Result Qualifier", "simpleDatatype": "Char"}, {"_links": {"codelist": [{"href": "/mdr/root/ct/sendct/codelists/C90017", "title": "Version-agnostic anchor resource for codelist C90017", "type": "Root Value Domain"}], "modelClassVariable": {"href": "/mdr/sdtm/1-2/classes/Findings/variables/--RESCAT", "title": "Result Category", "type": "Class Variable"}, "parentDataset": {"href": "/mdr/sendig/3-0/datasets/MI", "title": "Microscopic Findings", "type": "SDTM Dataset"}, "parentProduct": {"href": "/mdr/sendig/3-0", "title": "Standard for Exchange of Nonclinical Data Implementation Guide: Nonclinical Studies Version 3.0 (Final)", "type": "Implementation Guide"}, "rootItem": {"href": "/mdr/root/sendig/datasets/MI/variables/MIRESCAT", "title": "Version-agnostic anchor resource for SENDIG variable MI.MIRESCAT", "type": "Root Data Element"}, "self": {"href": "/mdr/sendig/3-0/datasets/MI/variables/MIRESCAT", "title": "Result Category", "type": "SDTM Dataset Variable"}}, "core": "Perm", "description": "Used to categorize the result of a finding. Example: MALIGNANT for tumor findings. Histopathological findings may be categorized as NON-NEOPLASTIC.", "label": "Result Category", "name": "MIRESCAT", "ordinal": "13", "role": "Result Qualifier", "simpleDatatype": "Char"}, {"_links": {"codelist": [{"href": "/mdr/root/ct/sendct/codelists/C66789", "title": "Version-agnostic anchor resource for codelist C66789", "type": "Root Value Domain"}], "modelClassVariable": {"href": "/mdr/sdtm/1-2/classes/Findings/variables/--STAT", "title": "Completion Status", "type": "Class Variable"}, "parentDataset": {"href": "/mdr/sendig/3-0/datasets/MI", "title": "Microscopic Findings", "type": "SDTM Dataset"}, "parentProduct": {"href": "/mdr/sendig/3-0", "title": "Standard for Exchange of Nonclinical Data Implementation Guide: Nonclinical Studies Version 3.0 (Final)", "type": "Implementation Guide"}, "rootItem": {"href": "/mdr/root/sendig/datasets/MI/variables/MISTAT", "title": "Version-agnostic anchor resource for SENDIG variable MI.MISTAT", "type": "Root Data Element"}, "self": {"href": "/mdr/sendig/3-0/datasets/MI/variables/MISTAT", "title": "Completion Status", "type": "SDTM Dataset Variable"}}, "core": "Perm", "description": "Used to indicate examination not done or result is missing. Should be null if a result exists in MIORRES.", "label": "Completion Status", "name": "MISTAT", "ordinal": "14", "role": "Record Qualifier", "simpleDatatype": "Char"}, {"_links": {"modelClassVariable": {"href": "/mdr/sdtm/1-2/classes/Findings/variables/--REASND", "title": "Reason Not Done", "type": "Class Variable"}, "parentDataset": {"href": "/mdr/sendig/3-0/datasets/MI", "title": "Microscopic Findings", "type": "SDTM Dataset"}, "parentProduct": {"href": "/mdr/sendig/3-0", "title": "Standard for Exchange of Nonclinical Data Implementation Guide: Nonclinical Studies Version 3.0 (Final)", "type": "Implementation Guide"}, "rootItem": {"href": "/mdr/root/sendig/datasets/MI/variables/MIREASND", "title": "Version-agnostic anchor resource for SENDIG variable MI.MIREASND", "type": "Root Data Element"}, "self": {"href": "/mdr/sendig/3-0/datasets/MI/variables/MIREASND", "title": "Reason Not Done", "type": "SDTM Dataset Variable"}}, "core": "Perm", "description": "Describes why MISTAT is NOT DONE, such as SAMPLE AUTOLYZED or SPECIMEN LOST.", "label": "Reason Not Done", "name": "MIREASND", "ordinal": "15", "role": "Record Qualifier", "simpleDatatype": "Char"}, {"_links": {"modelClassVariable": {"href": "/mdr/sdtm/1-2/classes/Findings/variables/--NAM", "title": "Laboratory/Vendor Name", "type": "Class Variable"}, "parentDataset": {"href": "/mdr/sendig/3-0/datasets/MI", "title": "Microscopic Findings", "type": "SDTM Dataset"}, "parentProduct": {"href": "/mdr/sendig/3-0", "title": "Standard for Exchange of Nonclinical Data Implementation Guide: Nonclinical Studies Version 3.0 (Final)", "type": "Implementation Guide"}, "rootItem": {"href": "/mdr/root/sendig/datasets/MI/variables/MINAM", "title": "Version-agnostic anchor resource for SENDIG variable MI.MINAM", "type": "Root Data Element"}, "self": {"href": "/mdr/sendig/3-0/datasets/MI/variables/MINAM", "title": "Laboratory Name", "type": "SDTM Dataset Variable"}}, "core": "Perm", "description": "Name or identifier of the laboratory or vendor who provides the test results if different per animal or different from Trial Summary (TS).", "label": "Laboratory Name", "name": "MINAM", "ordinal": "16", "role": "Record Qualifier", "simpleDatatype": "Char"}, {"_links": {"codelist": [{"href": "/mdr/root/ct/sendct/codelists/C77529", "title": "Version-agnostic anchor resource for codelist C77529", "type": "Root Value Domain"}], "modelClassVariable": {"href": "/mdr/sdtm/1-2/classes/Findings/variables/--SPEC", "title": "Specimen Material Type", "type": "Class Variable"}, "parentDataset": {"href": "/mdr/sendig/3-0/datasets/MI", "title": "Microscopic Findings", "type": "SDTM Dataset"}, "parentProduct": {"href": "/mdr/sendig/3-0", "title": "Standard for Exchange of Nonclinical Data Implementation Guide: Nonclinical Studies Version 3.0 (Final)", "type": "Implementation Guide"}, "rootItem": {"href": "/mdr/root/sendig/datasets/MI/variables/MISPEC", "title": "Version-agnostic anchor resource for SENDIG variable MI.MISPEC", "type": "Root Data Element"}, "self": {"href": "/mdr/sendig/3-0/datasets/MI/variables/MISPEC", "title": "Specimen Material Type", "type": "SDTM Dataset Variable"}}, "core": "Req", "description": "Subject of the observation. Defines the type of specimen used for a measurement. Examples: LIVER, HEART, BONE MARROW.", "label": "Specimen Material Type", "name": "MISPEC", "ordinal": "17", "role": "Record Qualifier", "simpleDatatype": "Char"}, {"_links": {"parentDataset": {"href": "/mdr/sendig/3-0/datasets/MI", "title": "Microscopic Findings", "type": "SDTM Dataset"}, "parentProduct": {"href": "/mdr/sendig/3-0", "title": "Standard for Exchange of Nonclinical Data Implementation Guide: Nonclinical Studies Version 3.0 (Final)", "type": "Implementation Guide"}, "rootItem": {"href": "/mdr/root/sendig/datasets/MI/variables/MIANTREG", "title": "Version-agnostic anchor resource for SENDIG variable MI.MIANTREG", "type": "Root Data Element"}, "self": {"href": "/mdr/sendig/3-0/datasets/MI/variables/MIANTREG", "title": "Anatomical Region of Specimen", "type": "SDTM Dataset Variable"}}, "core": "Perm", "description": "Example: Cortex, Medulla, or Femur (if the MISPEC is, for example, BONE MARROW).", "label": "Anatomical Region of Specimen", "name": "MIANTREG", "ordinal": "18", "role": "Variable Qualifier", "simpleDatatype": "Char"}, {"_links": {"modelClassVariable": {"href": "/mdr/sdtm/1-2/classes/Findings/variables/--SPCCND", "title": "Specimen Condition", "type": "Class Variable"}, "parentDataset": {"href": "/mdr/sendig/3-0/datasets/MI", "title": "Microscopic Findings", "type": "SDTM Dataset"}, "parentProduct": {"href": "/mdr/sendig/3-0", "title": "Standard for Exchange of Nonclinical Data Implementation Guide: Nonclinical Studies Version 3.0 (Final)", "type": "Implementation Guide"}, "rootItem": {"href": "/mdr/root/sendig/datasets/MI/variables/MISPCCND", "title": "Version-agnostic anchor resource for SENDIG variable MI.MISPCCND", "type": "Root Data Element"}, "self": {"href": "/mdr/sendig/3-0/datasets/MI/variables/MISPCCND", "title": "Specimen Condition", "type": "SDTM Dataset Variable"}}, "core": "Exp", "description": "Free or standardized text describing the condition of the specimen. Example: AUTOLYZED.", "label": "Specimen Condition", "name": "MISPCCND", "ordinal": "19", "role": "Variable Qualifier", "simpleDatatype": "Char"}, {"_links": {"codelist": [{"href": "/mdr/root/ct/sendct/codelists/C66742", "title": "Version-agnostic anchor resource for codelist C66742", "type": "Root Value Domain"}], "parentDataset": {"href": "/mdr/sendig/3-0/datasets/MI", "title": "Microscopic Findings", "type": "SDTM Dataset"}, "parentProduct": {"href": "/mdr/sendig/3-0", "title": "Standard for Exchange of Nonclinical Data Implementation Guide: Nonclinical Studies Version 3.0 (Final)", "type": "Implementation Guide"}, "rootItem": {"href": "/mdr/root/sendig/datasets/MI/variables/MISPCUFL", "title": "Version-agnostic anchor resource for SENDIG variable MI.MISPCUFL", "type": "Root Data Element"}, "self": {"href": "/mdr/sendig/3-0/datasets/MI/variables/MISPCUFL", "title": "Specimen Usability for the Test", "type": "SDTM Dataset Variable"}}, "core": "Exp", "description": "Describes the usability of the specimen for the test. Example: N = the specimen is not usable; otherwise null.", "label": "Specimen Usability for the Test", "name": "MISPCUFL", "ordinal": "20", "role": "Variable Qualifier", "simpleDatatype": "Char"}, {"_links": {"modelClassVariable": {"href": "/mdr/sdtm/1-2/classes/Findings/variables/--METHOD", "title": "Method of Test or Examination", "type": "Class Variable"}, "parentDataset": {"href": "/mdr/sendig/3-0/datasets/MI", "title": "Microscopic Findings", "type": "SDTM Dataset"}, "parentProduct": {"href": "/mdr/sendig/3-0", "title": "Standard for Exchange of Nonclinical Data Implementation Guide: Nonclinical Studies Version 3.0 (Final)", "type": "Implementation Guide"}, "rootItem": {"href": "/mdr/root/sendig/datasets/MI/variables/MIMETHOD", "title": "Version-agnostic anchor resource for SENDIG variable MI.MIMETHOD", "type": "Root Data Element"}, "self": {"href": "/mdr/sendig/3-0/datasets/MI/variables/MIMETHOD", "title": "Method of Test or Examination", "type": "SDTM Dataset Variable"}}, "core": "Perm", "description": "Method of the test or examination. This could be different types of coloring used for the slides whenever appropriate. Examples: H&E.", "label": "Method of Test or Examination", "name": "MIMETHOD", "ordinal": "21", "role": "Record Qualifier", "simpleDatatype": "Char"}, {"_links": {"codelist": [{"href": "/mdr/root/ct/sendct/codelists/C99073", "title": "Version-agnostic anchor resource for codelist C99073", "type": "Root Value Domain"}], "parentDataset": {"href": "/mdr/sendig/3-0/datasets/MI", "title": "Microscopic Findings", "type": "SDTM Dataset"}, "parentProduct": {"href": "/mdr/sendig/3-0", "title": "Standard for Exchange of Nonclinical Data Implementation Guide: Nonclinical Studies Version 3.0 (Final)", "type": "Implementation Guide"}, "rootItem": {"href": "/mdr/root/sendig/datasets/MI/variables/MILAT", "title": "Version-agnostic anchor resource for SENDIG variable MI.MILAT", "type": "Root Data Element"}, "self": {"href": "/mdr/sendig/3-0/datasets/MI/variables/MILAT", "title": "Specimen Laterality within Subject", "type": "SDTM Dataset Variable"}}, "core": "Perm", "description": "Qualifier for laterality of the specimen within the subject for paired specimens. Examples: LEFT, RIGHT, BILATERAL.", "label": "Specimen Laterality within Subject", "name": "MILAT", "ordinal": "22", "role": "Variable Qualifier", "simpleDatatype": "Char"}, {"_links": {"codelist": [{"href": "/mdr/root/ct/sendct/codelists/C99074", "title": "Version-agnostic anchor resource for codelist C99074", "type": "Root Value Domain"}], "parentDataset": {"href": "/mdr/sendig/3-0/datasets/MI", "title": "Microscopic Findings", "type": "SDTM Dataset"}, "parentProduct": {"href": "/mdr/sendig/3-0", "title": "Standard for Exchange of Nonclinical Data Implementation Guide: Nonclinical Studies Version 3.0 (Final)", "type": "Implementation Guide"}, "rootItem": {"href": "/mdr/root/sendig/datasets/MI/variables/MIDIR", "title": "Version-agnostic anchor resource for SENDIG variable MI.MIDIR", "type": "Root Data Element"}, "self": {"href": "/mdr/sendig/3-0/datasets/MI/variables/MIDIR", "title": "Specimen Directionality within Subject", "type": "SDTM Dataset Variable"}}, "core": "Perm", "description": "Qualifier for directionality of the specimen within the subject. Examples: DORSAL, PROXIMAL.", "label": "Specimen Directionality within Subject", "name": "MIDIR", "ordinal": "23", "role": "Variable Qualifier", "simpleDatatype": "Char"}, {"_links": {"modelClassVariable": {"href": "/mdr/sdtm/1-2/classes/Findings/variables/--EVAL", "title": "Evaluator", "type": "Class Variable"}, "parentDataset": {"href": "/mdr/sendig/3-0/datasets/MI", "title": "Microscopic Findings", "type": "SDTM Dataset"}, "parentProduct": {"href": "/mdr/sendig/3-0", "title": "Standard for Exchange of Nonclinical Data Implementation Guide: Nonclinical Studies Version 3.0 (Final)", "type": "Implementation Guide"}, "rootItem": {"href": "/mdr/root/sendig/datasets/MI/variables/MIEVAL", "title": "Version-agnostic anchor resource for SENDIG variable MI.MIEVAL", "type": "Root Data Element"}, "self": {"href": "/mdr/sendig/3-0/datasets/MI/variables/MIEVAL", "title": "Evaluator", "type": "SDTM Dataset Variable"}}, "core": "Perm", "description": "Role of the person who provided the evaluation. Example: TOX PATHOLOGIST, PEER REVIEW, SPONSOR PATHOLOGIST.", "label": "Evaluator", "name": "MIEVAL", "ordinal": "24", "role": "Record Qualifier", "simpleDatatype": "Char"}, {"_links": {"codelist": [{"href": "/mdr/root/ct/sendct/codelists/C90000", "title": "Version-agnostic anchor resource for codelist C90000", "type": "Root Value Domain"}], "modelClassVariable": {"href": "/mdr/sdtm/1-2/classes/Findings/variables/--SEV", "title": "Severity", "type": "Class Variable"}, "parentDataset": {"href": "/mdr/sendig/3-0/datasets/MI", "title": "Microscopic Findings", "type": "SDTM Dataset"}, "parentProduct": {"href": "/mdr/sendig/3-0", "title": "Standard for Exchange of Nonclinical Data Implementation Guide: Nonclinical Studies Version 3.0 (Final)", "type": "Implementation Guide"}, "rootItem": {"href": "/mdr/root/sendig/datasets/MI/variables/MISEV", "title": "Version-agnostic anchor resource for SENDIG variable MI.MISEV", "type": "Root Data Element"}, "self": {"href": "/mdr/sendig/3-0/datasets/MI/variables/MISEV", "title": "Severity", "type": "SDTM Dataset Variable"}}, "core": "Exp", "description": "Describes the severity of a particular finding.", "label": "Severity", "name": "MISEV", "ordinal": "25", "role": "Variable Qualifier", "simpleDatatype": "Char"}, {"_links": {"codelist": [{"href": "/mdr/root/ct/sendct/codelists/C66742", "title": "Version-agnostic anchor resource for codelist C66742", "type": "Root Value Domain"}], "modelClassVariable": {"href": "/mdr/sdtm/1-2/classes/Findings/variables/--DTHREL", "title": "Relationship to Death", "type": "Class Variable"}, "parentDataset": {"href": "/mdr/sendig/3-0/datasets/MI", "title": "Microscopic Findings", "type": "SDTM Dataset"}, "parentProduct": {"href": "/mdr/sendig/3-0", "title": "Standard for Exchange of Nonclinical Data Implementation Guide: Nonclinical Studies Version 3.0 (Final)", "type": "Implementation Guide"}, "rootItem": {"href": "/mdr/root/sendig/datasets/MI/variables/MIDTHREL", "title": "Version-agnostic anchor resource for SENDIG variable MI.MIDTHREL", "type": "Root Data Element"}, "self": {"href": "/mdr/sendig/3-0/datasets/MI/variables/MIDTHREL", "title": "Relationship to Death", "type": "SDTM Dataset Variable"}}, "core": "Perm", "description": "Describes the relationship of a particular finding to the death of a subject (Y=caused death, N=did not cause death, U=unknown). May be left null if not available.", "label": "Relationship to Death", "name": "MIDTHREL", "ordinal": "26", "role": "Record Qualifier", "simpleDatatype": "Char"}, {"_links": {"modelClassVariable": {"href": "/mdr/sdtm/1-2/classes/GeneralObservations/variables/--DTC", "title": "Date/Time of Collection", "type": "Class Variable"}, "parentDataset": {"href": "/mdr/sendig/3-0/datasets/MI", "title": "Microscopic Findings", "type": "SDTM Dataset"}, "parentProduct": {"href": "/mdr/sendig/3-0", "title": "Standard for Exchange of Nonclinical Data Implementation Guide: Nonclinical Studies Version 3.0 (Final)", "type": "Implementation Guide"}, "rootItem": {"href": "/mdr/root/sendig/datasets/MI/variables/MIDTC", "title": "Version-agnostic anchor resource for SENDIG variable MI.MIDTC", "type": "Root Data Element"}, "self": {"href": "/mdr/sendig/3-0/datasets/MI/variables/MIDTC", "title": "Date/Time of Specimen Collection", "type": "SDTM Dataset Variable"}}, "core": "Perm", "describedValueDomain": "ISO 8601", "description": "Date/time of specimen collection, in ISO 8601 format.", "label": "Date/Time of Specimen Collection", "name": "MIDTC", "ordinal": "27", "role": "Timing", "simpleDatatype": "Char"}, {"_links": {"modelClassVariable": {"href": "/mdr/sdtm/1-2/classes/GeneralObservations/variables/--DY", "title": "Study Day of Visit/Collection/Exam", "type": "Class Variable"}, "parentDataset": {"href": "/mdr/sendig/3-0/datasets/MI", "title": "Microscopic Findings", "type": "SDTM Dataset"}, "parentProduct": {"href": "/mdr/sendig/3-0", "title": "Standard for Exchange of Nonclinical Data Implementation Guide: Nonclinical Studies Version 3.0 (Final)", "type": "Implementation Guide"}, "rootItem": {"href": "/mdr/root/sendig/datasets/MI/variables/MIDY", "title": "Version-agnostic anchor resource for SENDIG variable MI.MIDY", "type": "Root Data Element"}, "self": {"href": "/mdr/sendig/3-0/datasets/MI/variables/MIDY", "title": "Study Day of Specimen Collection", "type": "SDTM Dataset Variable"}}, "core": "Perm", "description": "Study day of specimen collection, in integer days. The algorithm for calculations must be relative to the sponsor-defined RFSTDTC variable in the Demographics (DM) domain.", "label": "Study Day of Specimen Collection", "name": "MIDY", "ordinal": "28", "role": "Timing", "simpleDatatype": "Num"}], "description": "A findings domain that contains histopathology findings and microscopic evaluations. (Source: CDISC Controlled Terminology, SDOMAIN, C95095, 2018-06-29)", "label": "Microscopic Findings", "name": "MI", "ordinal": "13"}
