{"_links": {"parentClass": {"href": "/mdr/sendig/3-0/classes/Findings", "title": "Findings Observation Class", "type": "Class"}, "parentProduct": {"href": "/mdr/sendig/3-0", "title": "Standard for Exchange of Nonclinical Data Implementation Guide: Nonclinical Studies Version 3.0 (Final)", "type": "Implementation Guide"}, "self": {"href": "/mdr/sendig/3-0/datasets/PP", "title": "Pharmacokinetics Parameters", "type": "SDTM Dataset"}}, "datasetStructure": "One record per pharmacokinetic parameter per time-concentration profile per specimen per subject", "datasetVariables": [{"_links": {"modelClassVariable": {"href": "/mdr/sdtm/1-2/classes/GeneralObservations/variables/STUDYID", "title": "Study Identifier", "type": "Class Variable"}, "parentDataset": {"href": "/mdr/sendig/3-0/datasets/PP", "title": "Pharmacokinetics Parameters", "type": "SDTM Dataset"}, "parentProduct": {"href": "/mdr/sendig/3-0", "title": "Standard for Exchange of Nonclinical Data Implementation Guide: Nonclinical Studies Version 3.0 (Final)", "type": "Implementation Guide"}, "rootItem": {"href": "/mdr/root/sendig/datasets/PP/variables/STUDYID", "title": "Version-agnostic anchor resource for SENDIG variable PP.STUDYID", "type": "Root Data Element"}, "self": {"href": "/mdr/sendig/3-0/datasets/PP/variables/STUDYID", "title": "Study Identifier", "type": "SDTM Dataset Variable"}}, "core": "Req", "description": "Unique identifier for a study.", "label": "Study Identifier", "name": "STUDYID", "ordinal": "1", "role": "Identifier", "simpleDatatype": "Char"}, {"_links": {"modelClassVariable": {"href": "/mdr/sdtm/1-2/classes/GeneralObservations/variables/DOMAIN", "title": "Domain Abbreviation", "type": "Class Variable"}, "parentDataset": {"href": "/mdr/sendig/3-0/datasets/PP", "title": "Pharmacokinetics Parameters", "type": "SDTM Dataset"}, "parentProduct": {"href": "/mdr/sendig/3-0", "title": "Standard for Exchange of Nonclinical Data Implementation Guide: Nonclinical Studies Version 3.0 (Final)", "type": "Implementation Guide"}, "rootItem": {"href": "/mdr/root/sendig/datasets/PP/variables/DOMAIN", "title": "Version-agnostic anchor resource for SENDIG variable PP.DOMAIN", "type": "Root Data Element"}, "self": {"href": "/mdr/sendig/3-0/datasets/PP/variables/DOMAIN", "title": "Domain Abbreviation", "type": "SDTM Dataset Variable"}}, "core": "Req", "description": "Two-character abbreviation for the domain.", "label": "Domain Abbreviation", "name": "DOMAIN", "ordinal": "2", "role": "Identifier", "simpleDatatype": "Char", "valueList": ["PP"]}, {"_links": {"modelClassVariable": {"href": "/mdr/sdtm/1-2/classes/GeneralObservations/variables/USUBJID", "title": "Unique Subject Identifier", "type": "Class Variable"}, "parentDataset": {"href": "/mdr/sendig/3-0/datasets/PP", "title": "Pharmacokinetics Parameters", "type": "SDTM Dataset"}, "parentProduct": {"href": "/mdr/sendig/3-0", "title": "Standard for Exchange of Nonclinical Data Implementation Guide: Nonclinical Studies Version 3.0 (Final)", "type": "Implementation Guide"}, "rootItem": {"href": "/mdr/root/sendig/datasets/PP/variables/USUBJID", "title": "Version-agnostic anchor resource for SENDIG variable PP.USUBJID", "type": "Root Data Element"}, "self": {"href": "/mdr/sendig/3-0/datasets/PP/variables/USUBJID", "title": "Unique Subject Identifier", "type": "SDTM Dataset Variable"}}, "core": "Exp", "description": "Identifier used to uniquely identify a subject across all studies for all applications or submissions involving the product.", "label": "Unique Subject Identifier", "name": "USUBJID", "ordinal": "3", "role": "Identifier", "simpleDatatype": "Char"}, {"_links": {"parentDataset": {"href": "/mdr/sendig/3-0/datasets/PP", "title": "Pharmacokinetics Parameters", "type": "SDTM Dataset"}, "parentProduct": {"href": "/mdr/sendig/3-0", "title": "Standard for Exchange of Nonclinical Data Implementation Guide: Nonclinical Studies Version 3.0 (Final)", "type": "Implementation Guide"}, "rootItem": {"href": "/mdr/root/sendig/datasets/PP/variables/POOLID", "title": "Version-agnostic anchor resource for SENDIG variable PP.POOLID", "type": "Root Data Element"}, "self": {"href": "/mdr/sendig/3-0/datasets/PP/variables/POOLID", "title": "Pool Identifier", "type": "SDTM Dataset Variable"}}, "core": "Perm", "description": "Used to identify a set of subjects that contributed to the recorded measurement. Within the PP domain, this represents the subjects that contributed to the PPTEST result.", "label": "Pool Identifier", "name": "POOLID", "ordinal": "4", "role": "Identifier", "simpleDatatype": "Char"}, {"_links": {"modelClassVariable": {"href": "/mdr/sdtm/1-2/classes/GeneralObservations/variables/--SEQ", "title": "Sequence Number", "type": "Class Variable"}, "parentDataset": {"href": "/mdr/sendig/3-0/datasets/PP", "title": "Pharmacokinetics Parameters", "type": "SDTM Dataset"}, "parentProduct": {"href": "/mdr/sendig/3-0", "title": "Standard for Exchange of Nonclinical Data Implementation Guide: Nonclinical Studies Version 3.0 (Final)", "type": "Implementation Guide"}, "rootItem": {"href": "/mdr/root/sendig/datasets/PP/variables/PPSEQ", "title": "Version-agnostic anchor resource for SENDIG variable PP.PPSEQ", "type": "Root Data Element"}, "self": {"href": "/mdr/sendig/3-0/datasets/PP/variables/PPSEQ", "title": "Sequence Number", "type": "SDTM Dataset Variable"}}, "core": "Req", "description": "Sequence number given to ensure uniqueness of subject records within a domain. May be any valid number.", "label": "Sequence Number", "name": "PPSEQ", "ordinal": "5", "role": "Identifier", "simpleDatatype": "Num"}, {"_links": {"modelClassVariable": {"href": "/mdr/sdtm/1-2/classes/GeneralObservations/variables/--GRPID", "title": "Group ID", "type": "Class Variable"}, "parentDataset": {"href": "/mdr/sendig/3-0/datasets/PP", "title": "Pharmacokinetics Parameters", "type": "SDTM Dataset"}, "parentProduct": {"href": "/mdr/sendig/3-0", "title": "Standard for Exchange of Nonclinical Data Implementation Guide: Nonclinical Studies Version 3.0 (Final)", "type": "Implementation Guide"}, "rootItem": {"href": "/mdr/root/sendig/datasets/PP/variables/PPGRPID", "title": "Version-agnostic anchor resource for SENDIG variable PP.PPGRPID", "type": "Root Data Element"}, "self": {"href": "/mdr/sendig/3-0/datasets/PP/variables/PPGRPID", "title": "Group Identifier", "type": "SDTM Dataset Variable"}}, "core": "Perm", "description": "Used to tie together a block of related records in a single domain to support relationships within the domain and between domains. This is not the treatment group number.", "label": "Group Identifier", "name": "PPGRPID", "ordinal": "6", "role": "Identifier", "simpleDatatype": "Char"}, {"_links": {"codelist": [{"href": "/mdr/root/ct/sendct/codelists/C85839", "title": "Version-agnostic anchor resource for codelist C85839", "type": "Root Value Domain"}], "modelClassVariable": {"href": "/mdr/sdtm/1-2/classes/Findings/variables/--TESTCD", "title": "Short Name of Measurement, Test or Examination", "type": "Class Variable"}, "parentDataset": {"href": "/mdr/sendig/3-0/datasets/PP", "title": "Pharmacokinetics Parameters", "type": "SDTM Dataset"}, "parentProduct": {"href": "/mdr/sendig/3-0", "title": "Standard for Exchange of Nonclinical Data Implementation Guide: Nonclinical Studies Version 3.0 (Final)", "type": "Implementation Guide"}, "rootItem": {"href": "/mdr/root/sendig/datasets/PP/variables/PPTESTCD", "title": "Version-agnostic anchor resource for SENDIG variable PP.PPTESTCD", "type": "Root Data Element"}, "self": {"href": "/mdr/sendig/3-0/datasets/PP/variables/PPTESTCD", "title": "Parameter Short Name", "type": "SDTM Dataset Variable"}}, "core": "Req", "description": "Short name of the measurement, test, or examination described in PPTEST. It can be used as a column name when converting a dataset from a vertical to a horizontal format. The value in PPTESTCD cannot be longer than 8 characters, nor can it start with a number (e.g., \"1TEST\" is not valid). PPTESTCD cannot contain characters other than letters, numbers, or underscores. Examples: AUCINT, TMAX, CMAX.", "label": "Parameter Short Name", "name": "PPTESTCD", "ordinal": "7", "role": "Topic", "simpleDatatype": "Char"}, {"_links": {"codelist": [{"href": "/mdr/root/ct/sendct/codelists/C85493", "title": "Version-agnostic anchor resource for codelist C85493", "type": "Root Value Domain"}], "modelClassVariable": {"href": "/mdr/sdtm/1-2/classes/Findings/variables/--TEST", "title": "Name of Measurement, Test or Examination", "type": "Class Variable"}, "parentDataset": {"href": "/mdr/sendig/3-0/datasets/PP", "title": "Pharmacokinetics Parameters", "type": "SDTM Dataset"}, "parentProduct": {"href": "/mdr/sendig/3-0", "title": "Standard for Exchange of Nonclinical Data Implementation Guide: Nonclinical Studies Version 3.0 (Final)", "type": "Implementation Guide"}, "rootItem": {"href": "/mdr/root/sendig/datasets/PP/variables/PPTEST", "title": "Version-agnostic anchor resource for SENDIG variable PP.PPTEST", "type": "Root Data Element"}, "self": {"href": "/mdr/sendig/3-0/datasets/PP/variables/PPTEST", "title": "Parameter Name", "type": "SDTM Dataset Variable"}}, "core": "Req", "description": "Long name for PPTESTCD. The value in PPTEST cannot be longer than 40 characters. Examples: AUCINT, Time of CMAX Observation, Max Conc.", "label": "Parameter Name", "name": "PPTEST", "ordinal": "8", "role": "Synonym Qualifier", "simpleDatatype": "Char"}, {"_links": {"modelClassVariable": {"href": "/mdr/sdtm/1-2/classes/Findings/variables/--CAT", "title": "Category", "type": "Class Variable"}, "parentDataset": {"href": "/mdr/sendig/3-0/datasets/PP", "title": "Pharmacokinetics Parameters", "type": "SDTM Dataset"}, "parentProduct": {"href": "/mdr/sendig/3-0", "title": "Standard for Exchange of Nonclinical Data Implementation Guide: Nonclinical Studies Version 3.0 (Final)", "type": "Implementation Guide"}, "rootItem": {"href": "/mdr/root/sendig/datasets/PP/variables/PPCAT", "title": "Version-agnostic anchor resource for SENDIG variable PP.PPCAT", "type": "Root Data Element"}, "self": {"href": "/mdr/sendig/3-0/datasets/PP/variables/PPCAT", "title": "Parameter Category", "type": "SDTM Dataset Variable"}}, "core": "Exp", "description": "Used to define a category of related records. For PP, this should be the name of the analyte in PPTEST whose profile the parameter is associated with.", "label": "Parameter Category", "name": "PPCAT", "ordinal": "9", "role": "Grouping Qualifier", "simpleDatatype": "Char"}, {"_links": {"modelClassVariable": {"href": "/mdr/sdtm/1-2/classes/Findings/variables/--SCAT", "title": "Subcategory", "type": "Class Variable"}, "parentDataset": {"href": "/mdr/sendig/3-0/datasets/PP", "title": "Pharmacokinetics Parameters", "type": "SDTM Dataset"}, "parentProduct": {"href": "/mdr/sendig/3-0", "title": "Standard for Exchange of Nonclinical Data Implementation Guide: Nonclinical Studies Version 3.0 (Final)", "type": "Implementation Guide"}, "rootItem": {"href": "/mdr/root/sendig/datasets/PP/variables/PPSCAT", "title": "Version-agnostic anchor resource for SENDIG variable PP.PPSCAT", "type": "Root Data Element"}, "self": {"href": "/mdr/sendig/3-0/datasets/PP/variables/PPSCAT", "title": "Parameter Subcategory", "type": "SDTM Dataset Variable"}}, "core": "Perm", "description": "Categorization of the model type used to calculate the pharmacokinetic parameters. Examples include COMPARTMENTAL, NON-COMPARTMENTAL.", "label": "Parameter Subcategory", "name": "PPSCAT", "ordinal": "10", "role": "Grouping Qualifier", "simpleDatatype": "Char"}, {"_links": {"modelClassVariable": {"href": "/mdr/sdtm/1-2/classes/Findings/variables/--ORRES", "title": "Result or Finding in Original Units", "type": "Class Variable"}, "parentDataset": {"href": "/mdr/sendig/3-0/datasets/PP", "title": "Pharmacokinetics Parameters", "type": "SDTM Dataset"}, "parentProduct": {"href": "/mdr/sendig/3-0", "title": "Standard for Exchange of Nonclinical Data Implementation Guide: Nonclinical Studies Version 3.0 (Final)", "type": "Implementation Guide"}, "rootItem": {"href": "/mdr/root/sendig/datasets/PP/variables/PPORRES", "title": "Version-agnostic anchor resource for SENDIG variable PP.PPORRES", "type": "Root Data Element"}, "self": {"href": "/mdr/sendig/3-0/datasets/PP/variables/PPORRES", "title": "Result or Findings as Collected", "type": "SDTM Dataset Variable"}}, "core": "Exp", "description": "Result of the measurement or finding as originally received or collected.", "label": "Result or Findings as Collected", "name": "PPORRES", "ordinal": "11", "role": "Result Qualifier", "simpleDatatype": "Char"}, {"_links": {"codelist": [{"href": "/mdr/root/ct/sendct/codelists/C85494", "title": "Version-agnostic anchor resource for codelist C85494", "type": "Root Value Domain"}], "modelClassVariable": {"href": "/mdr/sdtm/1-2/classes/Findings/variables/--ORRESU", "title": "Original Units", "type": "Class Variable"}, "parentDataset": {"href": "/mdr/sendig/3-0/datasets/PP", "title": "Pharmacokinetics Parameters", "type": "SDTM Dataset"}, "parentProduct": {"href": "/mdr/sendig/3-0", "title": "Standard for Exchange of Nonclinical Data Implementation Guide: Nonclinical Studies Version 3.0 (Final)", "type": "Implementation Guide"}, "rootItem": {"href": "/mdr/root/sendig/datasets/PP/variables/PPORRESU", "title": "Version-agnostic anchor resource for SENDIG variable PP.PPORRESU", "type": "Root Data Element"}, "self": {"href": "/mdr/sendig/3-0/datasets/PP/variables/PPORRESU", "title": "Unit of the Original Result", "type": "SDTM Dataset Variable"}}, "core": "Exp", "description": "The unit for the original result. The unit of the original result should be mapped to a synonymous unit on the Controlled Terminology list.", "label": "Unit of the Original Result", "name": "PPORRESU", "ordinal": "12", "role": "Variable Qualifier", "simpleDatatype": "Char"}, {"_links": {"modelClassVariable": {"href": "/mdr/sdtm/1-2/classes/Findings/variables/--STRESC", "title": "Result or Finding in Standard Format", "type": "Class Variable"}, "parentDataset": {"href": "/mdr/sendig/3-0/datasets/PP", "title": "Pharmacokinetics Parameters", "type": "SDTM Dataset"}, "parentProduct": {"href": "/mdr/sendig/3-0", "title": "Standard for Exchange of Nonclinical Data Implementation Guide: Nonclinical Studies Version 3.0 (Final)", "type": "Implementation Guide"}, "rootItem": {"href": "/mdr/root/sendig/datasets/PP/variables/PPSTRESC", "title": "Version-agnostic anchor resource for SENDIG variable PP.PPSTRESC", "type": "Root Data Element"}, "self": {"href": "/mdr/sendig/3-0/datasets/PP/variables/PPSTRESC", "title": "Standardized Result in Character Format", "type": "SDTM Dataset Variable"}}, "core": "Exp", "description": "Contains the result value for all findings derived from PPORRES in a standard format or standard units. PPSTRESC should store all results or findings in character format; if results are numeric, they should also be stored in numeric format in PPSTRESN. For example, if a test has results NONE, NEG, and NEGATIVE in PPORRES and these results effectively have the same meaning, they could be represented in standard format in PPSTRESC as NEGATIVE. For other examples, see general assumptions.", "label": "Standardized Result in Character Format", "name": "PPSTRESC", "ordinal": "13", "role": "Result Qualifier", "simpleDatatype": "Char"}, {"_links": {"modelClassVariable": {"href": "/mdr/sdtm/1-2/classes/Findings/variables/--STRESN", "title": "Numeric Result/Finding in Standard Units", "type": "Class Variable"}, "parentDataset": {"href": "/mdr/sendig/3-0/datasets/PP", "title": "Pharmacokinetics Parameters", "type": "SDTM Dataset"}, "parentProduct": {"href": "/mdr/sendig/3-0", "title": "Standard for Exchange of Nonclinical Data Implementation Guide: Nonclinical Studies Version 3.0 (Final)", "type": "Implementation Guide"}, "rootItem": {"href": "/mdr/root/sendig/datasets/PP/variables/PPSTRESN", "title": "Version-agnostic anchor resource for SENDIG variable PP.PPSTRESN", "type": "Root Data Element"}, "self": {"href": "/mdr/sendig/3-0/datasets/PP/variables/PPSTRESN", "title": "Standardized Result in Numeric Format", "type": "SDTM Dataset Variable"}}, "core": "Exp", "description": "Used for continuous or numeric results or findings in standard format; contains the numeric form of PPSTRESC. PPSTRESN should store all numeric test results or findings.", "label": "Standardized Result in Numeric Format", "name": "PPSTRESN", "ordinal": "14", "role": "Result Qualifier", "simpleDatatype": "Num"}, {"_links": {"codelist": [{"href": "/mdr/root/ct/sendct/codelists/C85494", "title": "Version-agnostic anchor resource for codelist C85494", "type": "Root Value Domain"}], "modelClassVariable": {"href": "/mdr/sdtm/1-2/classes/Findings/variables/--STRESU", "title": "Standard Units", "type": "Class Variable"}, "parentDataset": {"href": "/mdr/sendig/3-0/datasets/PP", "title": "Pharmacokinetics Parameters", "type": "SDTM Dataset"}, "parentProduct": {"href": "/mdr/sendig/3-0", "title": "Standard for Exchange of Nonclinical Data Implementation Guide: Nonclinical Studies Version 3.0 (Final)", "type": "Implementation Guide"}, "rootItem": {"href": "/mdr/root/sendig/datasets/PP/variables/PPSTRESU", "title": "Version-agnostic anchor resource for SENDIG variable PP.PPSTRESU", "type": "Root Data Element"}, "self": {"href": "/mdr/sendig/3-0/datasets/PP/variables/PPSTRESU", "title": "Unit of the Standardized Result", "type": "SDTM Dataset Variable"}}, "core": "Exp", "description": "Standardized unit used for PPSTRESC and PPSTRESN.", "label": "Unit of the Standardized Result", "name": "PPSTRESU", "ordinal": "15", "role": "Variable Qualifier", "simpleDatatype": "Char"}, {"_links": {"codelist": [{"href": "/mdr/root/ct/sendct/codelists/C66789", "title": "Version-agnostic anchor resource for codelist C66789", "type": "Root Value Domain"}], "modelClassVariable": {"href": "/mdr/sdtm/1-2/classes/Findings/variables/--STAT", "title": "Completion Status", "type": "Class Variable"}, "parentDataset": {"href": "/mdr/sendig/3-0/datasets/PP", "title": "Pharmacokinetics Parameters", "type": "SDTM Dataset"}, "parentProduct": {"href": "/mdr/sendig/3-0", "title": "Standard for Exchange of Nonclinical Data Implementation Guide: Nonclinical Studies Version 3.0 (Final)", "type": "Implementation Guide"}, "rootItem": {"href": "/mdr/root/sendig/datasets/PP/variables/PPSTAT", "title": "Version-agnostic anchor resource for SENDIG variable PP.PPSTAT", "type": "Root Data Element"}, "self": {"href": "/mdr/sendig/3-0/datasets/PP/variables/PPSTAT", "title": "Completion Status", "type": "SDTM Dataset Variable"}}, "core": "Perm", "description": "Used to indicate that a parameter was not calculated. Should be null if a result exists in PPORRES.", "label": "Completion Status", "name": "PPSTAT", "ordinal": "16", "role": "Record Qualifier", "simpleDatatype": "Char"}, {"_links": {"modelClassVariable": {"href": "/mdr/sdtm/1-2/classes/Findings/variables/--REASND", "title": "Reason Not Done", "type": "Class Variable"}, "parentDataset": {"href": "/mdr/sendig/3-0/datasets/PP", "title": "Pharmacokinetics Parameters", "type": "SDTM Dataset"}, "parentProduct": {"href": "/mdr/sendig/3-0", "title": "Standard for Exchange of Nonclinical Data Implementation Guide: Nonclinical Studies Version 3.0 (Final)", "type": "Implementation Guide"}, "rootItem": {"href": "/mdr/root/sendig/datasets/PP/variables/PPREASND", "title": "Version-agnostic anchor resource for SENDIG variable PP.PPREASND", "type": "Root Data Element"}, "self": {"href": "/mdr/sendig/3-0/datasets/PP/variables/PPREASND", "title": "Reason Not Done", "type": "SDTM Dataset Variable"}}, "core": "Perm", "description": "Describes why a parameter was not performed, such as INSUFFICIENT DATA. Used in conjunction with PPSTAT when value is NOT DONE.", "label": "Reason Not Done", "name": "PPREASND", "ordinal": "17", "role": "Record Qualifier", "simpleDatatype": "Char"}, {"_links": {"codelist": [{"href": "/mdr/root/ct/sendct/codelists/C77529", "title": "Version-agnostic anchor resource for codelist C77529", "type": "Root Value Domain"}], "modelClassVariable": {"href": "/mdr/sdtm/1-2/classes/Findings/variables/--SPEC", "title": "Specimen Material Type", "type": "Class Variable"}, "parentDataset": {"href": "/mdr/sendig/3-0/datasets/PP", "title": "Pharmacokinetics Parameters", "type": "SDTM Dataset"}, "parentProduct": {"href": "/mdr/sendig/3-0", "title": "Standard for Exchange of Nonclinical Data Implementation Guide: Nonclinical Studies Version 3.0 (Final)", "type": "Implementation Guide"}, "rootItem": {"href": "/mdr/root/sendig/datasets/PP/variables/PPSPEC", "title": "Version-agnostic anchor resource for SENDIG variable PP.PPSPEC", "type": "Root Data Element"}, "self": {"href": "/mdr/sendig/3-0/datasets/PP/variables/PPSPEC", "title": "Specimen Material Type", "type": "SDTM Dataset Variable"}}, "core": "Exp", "description": "Defines the type of specimen used for a measurement. If multiple specimen types are used for a calculation (e.g., serum and urine for creatinine clearance), then this field should be left blank. Examples: SERUM, PLASMA, URINE.", "label": "Specimen Material Type", "name": "PPSPEC", "ordinal": "18", "role": "Record Qualifier", "simpleDatatype": "Char"}, {"_links": {"modelClassVariable": {"href": "/mdr/sdtm/1-2/classes/GeneralObservations/variables/VISITDY", "title": "Planned Study Day of Visit", "type": "Class Variable"}, "parentDataset": {"href": "/mdr/sendig/3-0/datasets/PP", "title": "Pharmacokinetics Parameters", "type": "SDTM Dataset"}, "parentProduct": {"href": "/mdr/sendig/3-0", "title": "Standard for Exchange of Nonclinical Data Implementation Guide: Nonclinical Studies Version 3.0 (Final)", "type": "Implementation Guide"}, "rootItem": {"href": "/mdr/root/sendig/datasets/PP/variables/VISITDY", "title": "Version-agnostic anchor resource for SENDIG variable PP.VISITDY", "type": "Root Data Element"}, "self": {"href": "/mdr/sendig/3-0/datasets/PP/variables/VISITDY", "title": "Planned Study Day of Collection", "type": "SDTM Dataset Variable"}}, "core": "Exp", "description": "It is the planned study day for the time point reference of the time-concentration profile.", "label": "Planned Study Day of Collection", "name": "VISITDY", "ordinal": "19", "role": "Timing", "simpleDatatype": "Num"}, {"_links": {"modelClassVariable": {"href": "/mdr/sdtm/1-2/classes/GeneralObservations/variables/--TPTREF", "title": "Time Point Reference", "type": "Class Variable"}, "parentDataset": {"href": "/mdr/sendig/3-0/datasets/PP", "title": "Pharmacokinetics Parameters", "type": "SDTM Dataset"}, "parentProduct": {"href": "/mdr/sendig/3-0", "title": "Standard for Exchange of Nonclinical Data Implementation Guide: Nonclinical Studies Version 3.0 (Final)", "type": "Implementation Guide"}, "rootItem": {"href": "/mdr/root/sendig/datasets/PP/variables/PPTPTREF", "title": "Version-agnostic anchor resource for SENDIG variable PP.PPTPTREF", "type": "Root Data Element"}, "self": {"href": "/mdr/sendig/3-0/datasets/PP/variables/PPTPTREF", "title": "Time Point Reference", "type": "SDTM Dataset Variable"}}, "core": "Perm", "description": "Name of the fixed reference point used as a basis for PPRFTDTC.", "label": "Time Point Reference", "name": "PPTPTREF", "ordinal": "20", "role": "Timing", "simpleDatatype": "Char"}, {"_links": {"modelClassVariable": {"href": "/mdr/sdtm/1-2/classes/GeneralObservations/variables/--RFTDTC", "title": "Date/Time of Reference Time Point", "type": "Class Variable"}, "parentDataset": {"href": "/mdr/sendig/3-0/datasets/PP", "title": "Pharmacokinetics Parameters", "type": "SDTM Dataset"}, "parentProduct": {"href": "/mdr/sendig/3-0", "title": "Standard for Exchange of Nonclinical Data Implementation Guide: Nonclinical Studies Version 3.0 (Final)", "type": "Implementation Guide"}, "rootItem": {"href": "/mdr/root/sendig/datasets/PP/variables/PPRFTDTC", "title": "Version-agnostic anchor resource for SENDIG variable PP.PPRFTDTC", "type": "Root Data Element"}, "self": {"href": "/mdr/sendig/3-0/datasets/PP/variables/PPRFTDTC", "title": "Date/Time of Reference Point", "type": "SDTM Dataset Variable"}}, "core": "Exp", "describedValueDomain": "ISO 8601", "description": "Date/time of the reference time point from the PC records used to calculate a parameter record. The values in PPRFTDTC should be the same as that in PCRFTDTC for related records.", "label": "Date/Time of Reference Point", "name": "PPRFTDTC", "ordinal": "21", "role": "Timing", "simpleDatatype": "Char"}, {"_links": {"parentDataset": {"href": "/mdr/sendig/3-0/datasets/PP", "title": "Pharmacokinetics Parameters", "type": "SDTM Dataset"}, "parentProduct": {"href": "/mdr/sendig/3-0", "title": "Standard for Exchange of Nonclinical Data Implementation Guide: Nonclinical Studies Version 3.0 (Final)", "type": "Implementation Guide"}, "rootItem": {"href": "/mdr/root/sendig/datasets/PP/variables/PPSTINT", "title": "Version-agnostic anchor resource for SENDIG variable PP.PPSTINT", "type": "Root Data Element"}, "self": {"href": "/mdr/sendig/3-0/datasets/PP/variables/PPSTINT", "title": "Start of Evaluation Interval", "type": "SDTM Dataset Variable"}}, "core": "Perm", "describedValueDomain": "ISO 8601", "description": "Start of an interval relative to Time Point Reference (PPTPTREF) in ISO 8601 duration format. Example: when the area under the curve is calculated from 12 to 24 hours (PPTESTCD=AUCT1T2), the value would be PT12H.", "label": "Start of Evaluation Interval", "name": "PPSTINT", "ordinal": "22", "role": "Timing", "simpleDatatype": "Char"}, {"_links": {"parentDataset": {"href": "/mdr/sendig/3-0/datasets/PP", "title": "Pharmacokinetics Parameters", "type": "SDTM Dataset"}, "parentProduct": {"href": "/mdr/sendig/3-0", "title": "Standard for Exchange of Nonclinical Data Implementation Guide: Nonclinical Studies Version 3.0 (Final)", "type": "Implementation Guide"}, "rootItem": {"href": "/mdr/root/sendig/datasets/PP/variables/PPENINT", "title": "Version-agnostic anchor resource for SENDIG variable PP.PPENINT", "type": "Root Data Element"}, "self": {"href": "/mdr/sendig/3-0/datasets/PP/variables/PPENINT", "title": "End of Evaluation Interval", "type": "SDTM Dataset Variable"}}, "core": "Perm", "describedValueDomain": "ISO 8601", "description": "End of an interval relative to Time Point Reference (PPTPTREF) in ISO 8601 duration format. Example: when the area under the curve is calculated from 12 to 24 hours (PPTESTCD=AUCT1T2), the value would be PT24H.", "label": "End of Evaluation Interval", "name": "PPENINT", "ordinal": "23", "role": "Timing", "simpleDatatype": "Char"}], "description": "A findings domain that contains pharmacokinetic parameters derived from pharmacokinetic concentration-time (PC) data. (Source: CDISC Controlled Terminology, SDOMAIN, C49607, 2018-06-29)", "label": "Pharmacokinetics Parameters", "name": "PP", "ordinal": "17"}
