{"_links": {"modelDataset": {"href": "/mdr/sdtm/1-2/datasets/RELREC", "title": "Related Records", "type": "SDTM Dataset"}, "parentClass": {"href": "/mdr/sendig/3-0/classes/Relationship", "title": "Relationship Datasets", "type": "Class"}, "parentProduct": {"href": "/mdr/sendig/3-0", "title": "Standard for Exchange of Nonclinical Data Implementation Guide: Nonclinical Studies Version 3.0 (Final)", "type": "Implementation Guide"}, "self": {"href": "/mdr/sendig/3-0/datasets/RELREC", "title": "Related Records", "type": "SDTM Dataset"}}, "datasetStructure": "One record per related record, related group of records (e.g. --GRPID), or related dataset", "datasetVariables": [{"_links": {"modelDatasetVariable": {"href": "/mdr/sdtm/1-2/datasets/RELREC/variables/STUDYID", "title": "Study Identifier", "type": "SDTM Dataset Variable"}, "parentDataset": {"href": "/mdr/sendig/3-0/datasets/RELREC", "title": "Related Records", "type": "SDTM Dataset"}, "parentProduct": {"href": "/mdr/sendig/3-0", "title": "Standard for Exchange of Nonclinical Data Implementation Guide: Nonclinical Studies Version 3.0 (Final)", "type": "Implementation Guide"}, "rootItem": {"href": "/mdr/root/sendig/datasets/RELREC/variables/STUDYID", "title": "Version-agnostic anchor resource for SENDIG variable RELREC.STUDYID", "type": "Root Data Element"}, "self": {"href": "/mdr/sendig/3-0/datasets/RELREC/variables/STUDYID", "title": "Study Identifier", "type": "SDTM Dataset Variable"}}, "core": "Req", "description": "Unique identifier for a study.", "label": "Study Identifier", "name": "STUDYID", "ordinal": "1", "simpleDatatype": "Char"}, {"_links": {"modelDatasetVariable": {"href": "/mdr/sdtm/1-2/datasets/RELREC/variables/RDOMAIN", "title": "Related Domain Abbreviation", "type": "SDTM Dataset Variable"}, "parentDataset": {"href": "/mdr/sendig/3-0/datasets/RELREC", "title": "Related Records", "type": "SDTM Dataset"}, "parentProduct": {"href": "/mdr/sendig/3-0", "title": "Standard for Exchange of Nonclinical Data Implementation Guide: Nonclinical Studies Version 3.0 (Final)", "type": "Implementation Guide"}, "rootItem": {"href": "/mdr/root/sendig/datasets/RELREC/variables/RDOMAIN", "title": "Version-agnostic anchor resource for SENDIG variable RELREC.RDOMAIN", "type": "Root Data Element"}, "self": {"href": "/mdr/sendig/3-0/datasets/RELREC/variables/RDOMAIN", "title": "Related Domain Abbreviation", "type": "SDTM Dataset Variable"}}, "core": "Req", "description": "Two-character abbreviation for the domain of the parent record(s).", "label": "Related Domain Abbreviation", "name": "RDOMAIN", "ordinal": "2", "simpleDatatype": "Char"}, {"_links": {"modelDatasetVariable": {"href": "/mdr/sdtm/1-2/datasets/RELREC/variables/USUBJID", "title": "Unique Subject Identifier", "type": "SDTM Dataset Variable"}, "parentDataset": {"href": "/mdr/sendig/3-0/datasets/RELREC", "title": "Related Records", "type": "SDTM Dataset"}, "parentProduct": {"href": "/mdr/sendig/3-0", "title": "Standard for Exchange of Nonclinical Data Implementation Guide: Nonclinical Studies Version 3.0 (Final)", "type": "Implementation Guide"}, "rootItem": {"href": "/mdr/root/sendig/datasets/RELREC/variables/USUBJID", "title": "Version-agnostic anchor resource for SENDIG variable RELREC.USUBJID", "type": "Root Data Element"}, "self": {"href": "/mdr/sendig/3-0/datasets/RELREC/variables/USUBJID", "title": "Unique Subject Identifier", "type": "SDTM Dataset Variable"}}, "core": "Exp", "description": "Identifier used to uniquely identify across all studies for all applications or submissions involving the product.", "label": "Unique Subject Identifier", "name": "USUBJID", "ordinal": "3", "simpleDatatype": "Char"}, {"_links": {"parentDataset": {"href": "/mdr/sendig/3-0/datasets/RELREC", "title": "Related Records", "type": "SDTM Dataset"}, "parentProduct": {"href": "/mdr/sendig/3-0", "title": "Standard for Exchange of Nonclinical Data Implementation Guide: Nonclinical Studies Version 3.0 (Final)", "type": "Implementation Guide"}, "rootItem": {"href": "/mdr/root/sendig/datasets/RELREC/variables/POOLID", "title": "Version-agnostic anchor resource for SENDIG variable RELREC.POOLID", "type": "Root Data Element"}, "self": {"href": "/mdr/sendig/3-0/datasets/RELREC/variables/POOLID", "title": "Pool Identifier", "type": "SDTM Dataset Variable"}}, "core": "Perm", "description": "Identifier used for pooling subjects to assign a single finding to multiple subjects.", "label": "Pool Identifier", "name": "POOLID", "ordinal": "4", "simpleDatatype": "Char"}, {"_links": {"modelDatasetVariable": {"href": "/mdr/sdtm/1-2/datasets/RELREC/variables/IDVAR", "title": "Identifying Variable", "type": "SDTM Dataset Variable"}, "parentDataset": {"href": "/mdr/sendig/3-0/datasets/RELREC", "title": "Related Records", "type": "SDTM Dataset"}, "parentProduct": {"href": "/mdr/sendig/3-0", "title": "Standard for Exchange of Nonclinical Data Implementation Guide: Nonclinical Studies Version 3.0 (Final)", "type": "Implementation Guide"}, "rootItem": {"href": "/mdr/root/sendig/datasets/RELREC/variables/IDVAR", "title": "Version-agnostic anchor resource for SENDIG variable RELREC.IDVAR", "type": "Root Data Element"}, "self": {"href": "/mdr/sendig/3-0/datasets/RELREC/variables/IDVAR", "title": "Identifying Variable", "type": "SDTM Dataset Variable"}}, "core": "Exp", "description": "Name of the identifying variable in the general-observation-class dataset that identifies the related record(s). Examples include --SEQ and --GRPID.", "label": "Identifying Variable", "name": "IDVAR", "ordinal": "5", "simpleDatatype": "Char"}, {"_links": {"modelDatasetVariable": {"href": "/mdr/sdtm/1-2/datasets/RELREC/variables/IDVARVAL", "title": "Identifying Variable Value", "type": "SDTM Dataset Variable"}, "parentDataset": {"href": "/mdr/sendig/3-0/datasets/RELREC", "title": "Related Records", "type": "SDTM Dataset"}, "parentProduct": {"href": "/mdr/sendig/3-0", "title": "Standard for Exchange of Nonclinical Data Implementation Guide: Nonclinical Studies Version 3.0 (Final)", "type": "Implementation Guide"}, "rootItem": {"href": "/mdr/root/sendig/datasets/RELREC/variables/IDVARVAL", "title": "Version-agnostic anchor resource for SENDIG variable RELREC.IDVARVAL", "type": "Root Data Element"}, "self": {"href": "/mdr/sendig/3-0/datasets/RELREC/variables/IDVARVAL", "title": "Identifying Variable Value", "type": "SDTM Dataset Variable"}}, "core": "Exp", "description": "Value of identifying variable described in IDVAR. If --SEQ is the variable being used to describe this record, then the value of --SEQ would be entered here.", "label": "Identifying Variable Value", "name": "IDVARVAL", "ordinal": "6", "simpleDatatype": "Char"}, {"_links": {"modelDatasetVariable": {"href": "/mdr/sdtm/1-2/datasets/RELREC/variables/RELTYPE", "title": "Relationship Type", "type": "SDTM Dataset Variable"}, "parentDataset": {"href": "/mdr/sendig/3-0/datasets/RELREC", "title": "Related Records", "type": "SDTM Dataset"}, "parentProduct": {"href": "/mdr/sendig/3-0", "title": "Standard for Exchange of Nonclinical Data Implementation Guide: Nonclinical Studies Version 3.0 (Final)", "type": "Implementation Guide"}, "rootItem": {"href": "/mdr/root/sendig/datasets/RELREC/variables/RELTYPE", "title": "Version-agnostic anchor resource for SENDIG variable RELREC.RELTYPE", "type": "Root Data Element"}, "self": {"href": "/mdr/sendig/3-0/datasets/RELREC/variables/RELTYPE", "title": "Relationship Type", "type": "SDTM Dataset Variable"}}, "core": "Exp", "description": "Identifies the hierarchical level of the records in the relationship. Values should be either ONE or MANY, only when --SPID is used. However, values are only necessary when identifying a relationship between datasets (as described in Section 8.4).", "label": "Relationship Type", "name": "RELTYPE", "ordinal": "7", "simpleDatatype": "Char", "valueList": ["MANY", "ONE"]}, {"_links": {"modelDatasetVariable": {"href": "/mdr/sdtm/1-2/datasets/RELREC/variables/RELID", "title": "Relationship Identifier", "type": "SDTM Dataset Variable"}, "parentDataset": {"href": "/mdr/sendig/3-0/datasets/RELREC", "title": "Related Records", "type": "SDTM Dataset"}, "parentProduct": {"href": "/mdr/sendig/3-0", "title": "Standard for Exchange of Nonclinical Data Implementation Guide: Nonclinical Studies Version 3.0 (Final)", "type": "Implementation Guide"}, "rootItem": {"href": "/mdr/root/sendig/datasets/RELREC/variables/RELID", "title": "Version-agnostic anchor resource for SENDIG variable RELREC.RELID", "type": "Root Data Element"}, "self": {"href": "/mdr/sendig/3-0/datasets/RELREC/variables/RELID", "title": "Relationship Identifier", "type": "SDTM Dataset Variable"}}, "core": "Req", "description": "Unique value within USUBJID that identifies the relationship. All records for the same USUBJID that have the same RELID are considered \"related/associated.\" \"RELID\" can be any value the sponsor chooses and is only meaningful within the RELREC dataset to identify the related/associated Domain records.", "label": "Relationship Identifier", "name": "RELID", "ordinal": "8", "simpleDatatype": "Char"}], "label": "Related Records", "name": "RELREC", "ordinal": "26"}
