{"_links": {"modelDataset": {"href": "/mdr/sdtm/1-2/datasets/SUPPQUAL", "title": "Supplemental Qualifiers", "type": "SDTM Dataset"}, "parentClass": {"href": "/mdr/sendig/3-0/classes/Relationship", "title": "Relationship Datasets", "type": "Class"}, "parentProduct": {"href": "/mdr/sendig/3-0", "title": "Standard for Exchange of Nonclinical Data Implementation Guide: Nonclinical Studies Version 3.0 (Final)", "type": "Implementation Guide"}, "self": {"href": "/mdr/sendig/3-0/datasets/SUPPQUAL", "title": "Supplemental Qualifiers for (domain name)", "type": "SDTM Dataset"}}, "datasetStructure": "One record per IDVAR, IDVARVAL, and QNAM value per subject per related domain", "datasetVariables": [{"_links": {"modelDatasetVariable": {"href": "/mdr/sdtm/1-2/datasets/SUPPQUAL/variables/STUDYID", "title": "Study Identifier", "type": "SDTM Dataset Variable"}, "parentDataset": {"href": "/mdr/sendig/3-0/datasets/SUPPQUAL", "title": "Supplemental Qualifiers for (domain name)", "type": "SDTM Dataset"}, "parentProduct": {"href": "/mdr/sendig/3-0", "title": "Standard for Exchange of Nonclinical Data Implementation Guide: Nonclinical Studies Version 3.0 (Final)", "type": "Implementation Guide"}, "rootItem": {"href": "/mdr/root/sendig/datasets/SUPPQUAL/variables/STUDYID", "title": "Version-agnostic anchor resource for SENDIG variable SUPPQUAL.STUDYID", "type": "Root Data Element"}, "self": {"href": "/mdr/sendig/3-0/datasets/SUPPQUAL/variables/STUDYID", "title": "Study Identifier", "type": "SDTM Dataset Variable"}}, "core": "Req", "description": "Study Identifier of the Parent record(s).", "label": "Study Identifier", "name": "STUDYID", "ordinal": "1", "simpleDatatype": "Char"}, {"_links": {"modelDatasetVariable": {"href": "/mdr/sdtm/1-2/datasets/SUPPQUAL/variables/RDOMAIN", "title": "Related Domain Abbreviation", "type": "SDTM Dataset Variable"}, "parentDataset": {"href": "/mdr/sendig/3-0/datasets/SUPPQUAL", "title": "Supplemental Qualifiers for (domain name)", "type": "SDTM Dataset"}, "parentProduct": {"href": "/mdr/sendig/3-0", "title": "Standard for Exchange of Nonclinical Data Implementation Guide: Nonclinical Studies Version 3.0 (Final)", "type": "Implementation Guide"}, "rootItem": {"href": "/mdr/root/sendig/datasets/SUPPQUAL/variables/RDOMAIN", "title": "Version-agnostic anchor resource for SENDIG variable SUPPQUAL.RDOMAIN", "type": "Root Data Element"}, "self": {"href": "/mdr/sendig/3-0/datasets/SUPPQUAL/variables/RDOMAIN", "title": "Related Domain Abbreviation", "type": "SDTM Dataset Variable"}}, "core": "Req", "description": "Two-character abbreviation for the domain of the parent record(s).", "label": "Related Domain Abbreviation", "name": "RDOMAIN", "ordinal": "2", "simpleDatatype": "Char"}, {"_links": {"modelDatasetVariable": {"href": "/mdr/sdtm/1-2/datasets/SUPPQUAL/variables/USUBJID", "title": "Unique Subject Identifier", "type": "SDTM Dataset Variable"}, "parentDataset": {"href": "/mdr/sendig/3-0/datasets/SUPPQUAL", "title": "Supplemental Qualifiers for (domain name)", "type": "SDTM Dataset"}, "parentProduct": {"href": "/mdr/sendig/3-0", "title": "Standard for Exchange of Nonclinical Data Implementation Guide: Nonclinical Studies Version 3.0 (Final)", "type": "Implementation Guide"}, "rootItem": {"href": "/mdr/root/sendig/datasets/SUPPQUAL/variables/USUBJID", "title": "Version-agnostic anchor resource for SENDIG variable SUPPQUAL.USUBJID", "type": "Root Data Element"}, "self": {"href": "/mdr/sendig/3-0/datasets/SUPPQUAL/variables/USUBJID", "title": "Unique Subject Identifier", "type": "SDTM Dataset Variable"}}, "core": "Exp", "description": "Unique Subject Identifier of the Parent record(s).", "label": "Unique Subject Identifier", "name": "USUBJID", "ordinal": "3", "simpleDatatype": "Char"}, {"_links": {"parentDataset": {"href": "/mdr/sendig/3-0/datasets/SUPPQUAL", "title": "Supplemental Qualifiers for (domain name)", "type": "SDTM Dataset"}, "parentProduct": {"href": "/mdr/sendig/3-0", "title": "Standard for Exchange of Nonclinical Data Implementation Guide: Nonclinical Studies Version 3.0 (Final)", "type": "Implementation Guide"}, "rootItem": {"href": "/mdr/root/sendig/datasets/SUPPQUAL/variables/POOLID", "title": "Version-agnostic anchor resource for SENDIG variable SUPPQUAL.POOLID", "type": "Root Data Element"}, "self": {"href": "/mdr/sendig/3-0/datasets/SUPPQUAL/variables/POOLID", "title": "Pool Identifier", "type": "SDTM Dataset Variable"}}, "core": "Perm", "description": "Identifier used for pooling subjects to assign a single finding to multiple subjects.", "label": "Pool Identifier", "name": "POOLID", "ordinal": "4", "simpleDatatype": "Char"}, {"_links": {"modelDatasetVariable": {"href": "/mdr/sdtm/1-2/datasets/SUPPQUAL/variables/IDVAR", "title": "Identifying Variable", "type": "SDTM Dataset Variable"}, "parentDataset": {"href": "/mdr/sendig/3-0/datasets/SUPPQUAL", "title": "Supplemental Qualifiers for (domain name)", "type": "SDTM Dataset"}, "parentProduct": {"href": "/mdr/sendig/3-0", "title": "Standard for Exchange of Nonclinical Data Implementation Guide: Nonclinical Studies Version 3.0 (Final)", "type": "Implementation Guide"}, "rootItem": {"href": "/mdr/root/sendig/datasets/SUPPQUAL/variables/IDVAR", "title": "Version-agnostic anchor resource for SENDIG variable SUPPQUAL.IDVAR", "type": "Root Data Element"}, "self": {"href": "/mdr/sendig/3-0/datasets/SUPPQUAL/variables/IDVAR", "title": "Identifying Variable", "type": "SDTM Dataset Variable"}}, "core": "Exp", "description": "Identifying variable in the dataset that identifies the related record(s). Examples: --SEQ, --GRPID.", "label": "Identifying Variable", "name": "IDVAR", "ordinal": "5", "simpleDatatype": "Char"}, {"_links": {"modelDatasetVariable": {"href": "/mdr/sdtm/1-2/datasets/SUPPQUAL/variables/IDVARVAL", "title": "Identifying Variable Value", "type": "SDTM Dataset Variable"}, "parentDataset": {"href": "/mdr/sendig/3-0/datasets/SUPPQUAL", "title": "Supplemental Qualifiers for (domain name)", "type": "SDTM Dataset"}, "parentProduct": {"href": "/mdr/sendig/3-0", "title": "Standard for Exchange of Nonclinical Data Implementation Guide: Nonclinical Studies Version 3.0 (Final)", "type": "Implementation Guide"}, "rootItem": {"href": "/mdr/root/sendig/datasets/SUPPQUAL/variables/IDVARVAL", "title": "Version-agnostic anchor resource for SENDIG variable SUPPQUAL.IDVARVAL", "type": "Root Data Element"}, "self": {"href": "/mdr/sendig/3-0/datasets/SUPPQUAL/variables/IDVARVAL", "title": "Identifying Variable Value", "type": "SDTM Dataset Variable"}}, "core": "Exp", "description": "Value of identifying variable of the parent record(s).", "label": "Identifying Variable Value", "name": "IDVARVAL", "ordinal": "6", "simpleDatatype": "Char"}, {"_links": {"modelDatasetVariable": {"href": "/mdr/sdtm/1-2/datasets/SUPPQUAL/variables/QNAM", "title": "Qualifier Variable Name", "type": "SDTM Dataset Variable"}, "parentDataset": {"href": "/mdr/sendig/3-0/datasets/SUPPQUAL", "title": "Supplemental Qualifiers for (domain name)", "type": "SDTM Dataset"}, "parentProduct": {"href": "/mdr/sendig/3-0", "title": "Standard for Exchange of Nonclinical Data Implementation Guide: Nonclinical Studies Version 3.0 (Final)", "type": "Implementation Guide"}, "rootItem": {"href": "/mdr/root/sendig/datasets/SUPPQUAL/variables/QNAM", "title": "Version-agnostic anchor resource for SENDIG variable SUPPQUAL.QNAM", "type": "Root Data Element"}, "self": {"href": "/mdr/sendig/3-0/datasets/SUPPQUAL/variables/QNAM", "title": "Qualifier Variable Name", "type": "SDTM Dataset Variable"}}, "core": "Req", "description": "The short name of the Qualifier variable, which is used as a column name in a domain view with data from the parent domain. The value in QNAM cannot be longer than 8 characters nor can it start with a number (e.g., \"1TEST\" is not valid). QNAM cannot contain characters other than letters, numbers, or underscores. This will often be the column name in the sponsor's operational dataset. The value in QNAM may not be the same as any variable name defined in another domain or the SDTM. The QNAM should uniquely correspond to a QLABEL within a single domain.", "label": "Qualifier Variable Name", "name": "QNAM", "ordinal": "7", "simpleDatatype": "Char"}, {"_links": {"modelDatasetVariable": {"href": "/mdr/sdtm/1-2/datasets/SUPPQUAL/variables/QLABEL", "title": "Qualifier Variable Label", "type": "SDTM Dataset Variable"}, "parentDataset": {"href": "/mdr/sendig/3-0/datasets/SUPPQUAL", "title": "Supplemental Qualifiers for (domain name)", "type": "SDTM Dataset"}, "parentProduct": {"href": "/mdr/sendig/3-0", "title": "Standard for Exchange of Nonclinical Data Implementation Guide: Nonclinical Studies Version 3.0 (Final)", "type": "Implementation Guide"}, "rootItem": {"href": "/mdr/root/sendig/datasets/SUPPQUAL/variables/QLABEL", "title": "Version-agnostic anchor resource for SENDIG variable SUPPQUAL.QLABEL", "type": "Root Data Element"}, "self": {"href": "/mdr/sendig/3-0/datasets/SUPPQUAL/variables/QLABEL", "title": "Qualifier Variable Label", "type": "SDTM Dataset Variable"}}, "core": "Req", "description": "This is the long name or label associated with QNAM. The value in QLABEL cannot be longer than 40 characters. This will often be the column label in the sponsor's original dataset.", "label": "Qualifier Variable Label", "name": "QLABEL", "ordinal": "8", "simpleDatatype": "Char"}, {"_links": {"modelDatasetVariable": {"href": "/mdr/sdtm/1-2/datasets/SUPPQUAL/variables/QVAL", "title": "Data Value", "type": "SDTM Dataset Variable"}, "parentDataset": {"href": "/mdr/sendig/3-0/datasets/SUPPQUAL", "title": "Supplemental Qualifiers for (domain name)", "type": "SDTM Dataset"}, "parentProduct": {"href": "/mdr/sendig/3-0", "title": "Standard for Exchange of Nonclinical Data Implementation Guide: Nonclinical Studies Version 3.0 (Final)", "type": "Implementation Guide"}, "rootItem": {"href": "/mdr/root/sendig/datasets/SUPPQUAL/variables/QVAL", "title": "Version-agnostic anchor resource for SENDIG variable SUPPQUAL.QVAL", "type": "Root Data Element"}, "self": {"href": "/mdr/sendig/3-0/datasets/SUPPQUAL/variables/QVAL", "title": "Data Value", "type": "SDTM Dataset Variable"}}, "core": "Req", "description": "Result of, response to, or value associated with QNAM. A value for this column is required; no records can be in SUPP-- with a null value for QVAL.", "label": "Data Value", "name": "QVAL", "ordinal": "9", "simpleDatatype": "Char"}, {"_links": {"modelDatasetVariable": {"href": "/mdr/sdtm/1-2/datasets/SUPPQUAL/variables/QORIG", "title": "Origin", "type": "SDTM Dataset Variable"}, "parentDataset": {"href": "/mdr/sendig/3-0/datasets/SUPPQUAL", "title": "Supplemental Qualifiers for (domain name)", "type": "SDTM Dataset"}, "parentProduct": {"href": "/mdr/sendig/3-0", "title": "Standard for Exchange of Nonclinical Data Implementation Guide: Nonclinical Studies Version 3.0 (Final)", "type": "Implementation Guide"}, "rootItem": {"href": "/mdr/root/sendig/datasets/SUPPQUAL/variables/QORIG", "title": "Version-agnostic anchor resource for SENDIG variable SUPPQUAL.QORIG", "type": "Root Data Element"}, "self": {"href": "/mdr/sendig/3-0/datasets/SUPPQUAL/variables/QORIG", "title": "Origin", "type": "SDTM Dataset Variable"}}, "core": "Exp", "description": "QORIG is used to indicate the origin of the data. Possible values are COLLECTED, DERIVED, OTHER, and NOT AVAILABLE. See Section 3.2.2.1.", "label": "Origin", "name": "QORIG", "ordinal": "10", "simpleDatatype": "Char"}, {"_links": {"modelDatasetVariable": {"href": "/mdr/sdtm/1-2/datasets/SUPPQUAL/variables/QEVAL", "title": "Evaluator", "type": "SDTM Dataset Variable"}, "parentDataset": {"href": "/mdr/sendig/3-0/datasets/SUPPQUAL", "title": "Supplemental Qualifiers for (domain name)", "type": "SDTM Dataset"}, "parentProduct": {"href": "/mdr/sendig/3-0", "title": "Standard for Exchange of Nonclinical Data Implementation Guide: Nonclinical Studies Version 3.0 (Final)", "type": "Implementation Guide"}, "rootItem": {"href": "/mdr/root/sendig/datasets/SUPPQUAL/variables/QEVAL", "title": "Version-agnostic anchor resource for SENDIG variable SUPPQUAL.QEVAL", "type": "Root Data Element"}, "self": {"href": "/mdr/sendig/3-0/datasets/SUPPQUAL/variables/QEVAL", "title": "Evaluator", "type": "SDTM Dataset Variable"}}, "core": "Exp", "description": "Used only for results that are subjective (i.e., assigned by a person or a group). Should be null for records that contain objectively collected or derived data. Some examples include PATHOLOGIST or VETERINARIAN, etc.", "label": "Evaluator", "name": "QEVAL", "ordinal": "11", "simpleDatatype": "Char"}], "label": "Supplemental Qualifiers for (domain name)", "name": "SUPPQUAL", "ordinal": "27"}
