{"_links": {"parentClass": {"href": "/mdr/sdtmig/md-1-1/classes/Events", "title": "Events Observation Class", "type": "Class"}, "parentProduct": {"href": "/mdr/sdtmig/md-1-1", "title": "Study Data Tabulation Model Implementation Guide for Medical Devices (SDTMIG-MD) Version 1.1", "type": "Implementation Guide"}, "priorVersion": {"href": "/mdr/sdtmig/md-1-0/datasets/DE", "title": "Device Events", "type": "SDTM Dataset"}, "self": {"href": "/mdr/sdtmig/md-1-1/datasets/DE", "title": "Device Events", "type": "SDTM Dataset"}}, "datasetStructure": "One record per event per device", "datasetVariables": [{"_links": {"modelClassVariable": {"href": "/mdr/sdtm/1-7/classes/GeneralObservations/variables/STUDYID", "title": "Study Identifier", "type": "Class Variable"}, "parentDataset": {"href": "/mdr/sdtmig/md-1-1/datasets/DE", "title": "Device Events", "type": "SDTM Dataset"}, "parentProduct": {"href": "/mdr/sdtmig/md-1-1", "title": "Study Data Tabulation Model Implementation Guide for Medical Devices (SDTMIG-MD) Version 1.1", "type": "Implementation Guide"}, "priorVersion": {"href": "/mdr/sdtmig/md-1-0/datasets/DE/variables/STUDYID", "title": "Study Identifier", "type": "SDTM Dataset Variable"}, "rootItem": {"href": "/mdr/root/sdtmig/datasets/DE/variables/STUDYID", "title": "Version-agnostic anchor resource for SDTMIG variable DE.STUDYID", "type": "Root Data Element"}, "self": {"href": "/mdr/sdtmig/md-1-1/datasets/DE/variables/STUDYID", "title": "Study Identifier", "type": "SDTM Dataset Variable"}}, "core": "Req", "description": "Unique identifier for a study.", "label": "Study Identifier", "name": "STUDYID", "ordinal": "1", "role": "Identifier", "simpleDatatype": "Char"}, {"_links": {"modelClassVariable": {"href": "/mdr/sdtm/1-7/classes/GeneralObservations/variables/DOMAIN", "title": "Domain Abbreviation", "type": "Class Variable"}, "parentDataset": {"href": "/mdr/sdtmig/md-1-1/datasets/DE", "title": "Device Events", "type": "SDTM Dataset"}, "parentProduct": {"href": "/mdr/sdtmig/md-1-1", "title": "Study Data Tabulation Model Implementation Guide for Medical Devices (SDTMIG-MD) Version 1.1", "type": "Implementation Guide"}, "priorVersion": {"href": "/mdr/sdtmig/md-1-0/datasets/DE/variables/DOMAIN", "title": "Domain Abbreviation", "type": "SDTM Dataset Variable"}, "rootItem": {"href": "/mdr/root/sdtmig/datasets/DE/variables/DOMAIN", "title": "Version-agnostic anchor resource for SDTMIG variable DE.DOMAIN", "type": "Root Data Element"}, "self": {"href": "/mdr/sdtmig/md-1-1/datasets/DE/variables/DOMAIN", "title": "Domain Abbreviation", "type": "SDTM Dataset Variable"}}, "core": "Req", "description": "Two-character abbreviation for the domain.", "label": "Domain Abbreviation", "name": "DOMAIN", "ordinal": "2", "role": "Identifier", "simpleDatatype": "Char", "valueList": ["DE"]}, {"_links": {"modelClassVariable": {"href": "/mdr/sdtm/1-7/classes/GeneralObservations/variables/USUBJID", "title": "Unique Subject Identifier", "type": "Class Variable"}, "parentDataset": {"href": "/mdr/sdtmig/md-1-1/datasets/DE", "title": "Device Events", "type": "SDTM Dataset"}, "parentProduct": {"href": "/mdr/sdtmig/md-1-1", "title": "Study Data Tabulation Model Implementation Guide for Medical Devices (SDTMIG-MD) Version 1.1", "type": "Implementation Guide"}, "priorVersion": {"href": "/mdr/sdtmig/md-1-0/datasets/DE/variables/USUBJID", "title": "Unique Subject Identifier", "type": "SDTM Dataset Variable"}, "rootItem": {"href": "/mdr/root/sdtmig/datasets/DE/variables/USUBJID", "title": "Version-agnostic anchor resource for SDTMIG variable DE.USUBJID", "type": "Root Data Element"}, "self": {"href": "/mdr/sdtmig/md-1-1/datasets/DE/variables/USUBJID", "title": "Unique Subject Identifier", "type": "SDTM Dataset Variable"}}, "core": "Exp", "description": "Identifier used to uniquely identify a subject across all studies for all applications or submissions involving the product. Expected rather than required because events may happen to or with a device that do not involved subjects, and may even be before the device was in contact with a subject. In these cases there may not be a value for USUBJID.", "label": "Unique Subject Identifier", "name": "USUBJID", "ordinal": "3", "role": "Identifier", "simpleDatatype": "Char"}, {"_links": {"modelClassVariable": {"href": "/mdr/sdtm/1-7/classes/GeneralObservations/variables/SPDEVID", "title": "Sponsor Device Identifier", "type": "Class Variable"}, "parentDataset": {"href": "/mdr/sdtmig/md-1-1/datasets/DE", "title": "Device Events", "type": "SDTM Dataset"}, "parentProduct": {"href": "/mdr/sdtmig/md-1-1", "title": "Study Data Tabulation Model Implementation Guide for Medical Devices (SDTMIG-MD) Version 1.1", "type": "Implementation Guide"}, "priorVersion": {"href": "/mdr/sdtmig/md-1-0/datasets/DE/variables/SPDEVID", "title": "Sponsor Device Identifier", "type": "SDTM Dataset Variable"}, "rootItem": {"href": "/mdr/root/sdtmig/datasets/DE/variables/SPDEVID", "title": "Version-agnostic anchor resource for SDTMIG variable DE.SPDEVID", "type": "Root Data Element"}, "self": {"href": "/mdr/sdtmig/md-1-1/datasets/DE/variables/SPDEVID", "title": "Sponsor Device Identifier", "type": "SDTM Dataset Variable"}}, "core": "Req", "description": "Sponsor-defined identifier for the device. It must be unique for each tracked unit of the device under study, and can be at whatever level of granularity the device should be identified (e.g., model or serial number, combination of identifiers).", "label": "Sponsor Device Identifier", "name": "SPDEVID", "ordinal": "4", "role": "Identifier", "simpleDatatype": "Char"}, {"_links": {"modelClassVariable": {"href": "/mdr/sdtm/1-7/classes/GeneralObservations/variables/--SEQ", "title": "Sequence Number", "type": "Class Variable"}, "parentDataset": {"href": "/mdr/sdtmig/md-1-1/datasets/DE", "title": "Device Events", "type": "SDTM Dataset"}, "parentProduct": {"href": "/mdr/sdtmig/md-1-1", "title": "Study Data Tabulation Model Implementation Guide for Medical Devices (SDTMIG-MD) Version 1.1", "type": "Implementation Guide"}, "priorVersion": {"href": "/mdr/sdtmig/md-1-0/datasets/DE/variables/DESEQ", "title": "Device Events Sequence Number", "type": "SDTM Dataset Variable"}, "rootItem": {"href": "/mdr/root/sdtmig/datasets/DE/variables/DESEQ", "title": "Version-agnostic anchor resource for SDTMIG variable DE.DESEQ", "type": "Root Data Element"}, "self": {"href": "/mdr/sdtmig/md-1-1/datasets/DE/variables/DESEQ", "title": "Device Events Sequence Number", "type": "SDTM Dataset Variable"}}, "core": "Req", "description": "Sequence Number given to ensure uniqueness of device records within subject records within a domain. May be any valid number. It should be unique within every subject/device combination. If there is no USUBJID associated with the event, DESEQ should be unique within each SPDEVID.", "label": "Device Events Sequence Number", "name": "DESEQ", "ordinal": "5", "role": "Identifier", "simpleDatatype": "Num"}, {"_links": {"modelClassVariable": {"href": "/mdr/sdtm/1-7/classes/GeneralObservations/variables/--SPID", "title": "Sponsor-Defined Identifier", "type": "Class Variable"}, "parentDataset": {"href": "/mdr/sdtmig/md-1-1/datasets/DE", "title": "Device Events", "type": "SDTM Dataset"}, "parentProduct": {"href": "/mdr/sdtmig/md-1-1", "title": "Study Data Tabulation Model Implementation Guide for Medical Devices (SDTMIG-MD) Version 1.1", "type": "Implementation Guide"}, "priorVersion": {"href": "/mdr/sdtmig/md-1-0/datasets/DE/variables/DESPID", "title": "Sponsor-Defined Identifier", "type": "SDTM Dataset Variable"}, "rootItem": {"href": "/mdr/root/sdtmig/datasets/DE/variables/DESPID", "title": "Version-agnostic anchor resource for SDTMIG variable DE.DESPID", "type": "Root Data Element"}, "self": {"href": "/mdr/sdtmig/md-1-1/datasets/DE/variables/DESPID", "title": "Sponsor-Defined Identifier", "type": "SDTM Dataset Variable"}}, "core": "Perm", "description": "Sponsor-defined reference number. Perhaps pre-printed on the CRF as an explicit line identifier or defined in the sponsor's operational database. Note that it does not have to be numeric.", "label": "Sponsor-Defined Identifier", "name": "DESPID", "ordinal": "6", "role": "Identifier", "simpleDatatype": "Char"}, {"_links": {"modelClassVariable": {"href": "/mdr/sdtm/1-7/classes/Events/variables/--TERM", "title": "Reported Term", "type": "Class Variable"}, "parentDataset": {"href": "/mdr/sdtmig/md-1-1/datasets/DE", "title": "Device Events", "type": "SDTM Dataset"}, "parentProduct": {"href": "/mdr/sdtmig/md-1-1", "title": "Study Data Tabulation Model Implementation Guide for Medical Devices (SDTMIG-MD) Version 1.1", "type": "Implementation Guide"}, "priorVersion": {"href": "/mdr/sdtmig/md-1-0/datasets/DE/variables/DETERM", "title": "Reported Term for Device Event", "type": "SDTM Dataset Variable"}, "rootItem": {"href": "/mdr/root/sdtmig/datasets/DE/variables/DETERM", "title": "Version-agnostic anchor resource for SDTMIG variable DE.DETERM", "type": "Root Data Element"}, "self": {"href": "/mdr/sdtmig/md-1-1/datasets/DE/variables/DETERM", "title": "Reported Term for Device Event", "type": "SDTM Dataset Variable"}}, "core": "Req", "description": "Verbatim name of the observed event. Examples: \"Screw Breakage\", \"Fissure Formation\", \"Battery Issue\".", "label": "Reported Term for Device Event", "name": "DETERM", "ordinal": "7", "role": "Topic", "simpleDatatype": "Char"}, {"_links": {"modelClassVariable": {"href": "/mdr/sdtm/1-7/classes/Events/variables/--MODIFY", "title": "Modified Reported Term", "type": "Class Variable"}, "parentDataset": {"href": "/mdr/sdtmig/md-1-1/datasets/DE", "title": "Device Events", "type": "SDTM Dataset"}, "parentProduct": {"href": "/mdr/sdtmig/md-1-1", "title": "Study Data Tabulation Model Implementation Guide for Medical Devices (SDTMIG-MD) Version 1.1", "type": "Implementation Guide"}, "priorVersion": {"href": "/mdr/sdtmig/md-1-0/datasets/DE/variables/DEMODIFY", "title": "Modified Device Event Name", "type": "SDTM Dataset Variable"}, "rootItem": {"href": "/mdr/root/sdtmig/datasets/DE/variables/DEMODIFY", "title": "Version-agnostic anchor resource for SDTMIG variable DE.DEMODIFY", "type": "Root Data Element"}, "self": {"href": "/mdr/sdtmig/md-1-1/datasets/DE/variables/DEMODIFY", "title": "Modified Device Event Name", "type": "SDTM Dataset Variable"}}, "core": "Perm", "description": "The modified text for DETERM. If DETERM is modified, then the modified text is placed here.", "label": "Modified Device Event Name", "name": "DEMODIFY", "ordinal": "8", "role": "Synonym Qualifier", "simpleDatatype": "Char"}, {"_links": {"modelClassVariable": {"href": "/mdr/sdtm/1-7/classes/Events/variables/--DECOD", "title": "Dictionary-Derived Term", "type": "Class Variable"}, "parentDataset": {"href": "/mdr/sdtmig/md-1-1/datasets/DE", "title": "Device Events", "type": "SDTM Dataset"}, "parentProduct": {"href": "/mdr/sdtmig/md-1-1", "title": "Study Data Tabulation Model Implementation Guide for Medical Devices (SDTMIG-MD) Version 1.1", "type": "Implementation Guide"}, "priorVersion": {"href": "/mdr/sdtmig/md-1-0/datasets/DE/variables/DEDECOD", "title": "Device Events Dictionary-Derived Term", "type": "SDTM Dataset Variable"}, "rootItem": {"href": "/mdr/root/sdtmig/datasets/DE/variables/DEDECOD", "title": "Version-agnostic anchor resource for SDTMIG variable DE.DEDECOD", "type": "Root Data Element"}, "self": {"href": "/mdr/sdtmig/md-1-1/datasets/DE/variables/DEDECOD", "title": "Device Events Dictionary-Derived Term", "type": "SDTM Dataset Variable"}}, "core": "Req", "description": "Dictionary-derived form of the event described in DETERM. Dictionary-derived text description of DETERM or DEMODIFY. The name and version of the dictionary used to map terms must be provided in a Define.XML ExternalCodeList element.", "label": "Device Events Dictionary-Derived Term", "name": "DEDECOD", "ordinal": "9", "role": "Synonym Qualifier", "simpleDatatype": "Char"}, {"_links": {"modelClassVariable": {"href": "/mdr/sdtm/1-7/classes/Events/variables/--CAT", "title": "Category", "type": "Class Variable"}, "parentDataset": {"href": "/mdr/sdtmig/md-1-1/datasets/DE", "title": "Device Events", "type": "SDTM Dataset"}, "parentProduct": {"href": "/mdr/sdtmig/md-1-1", "title": "Study Data Tabulation Model Implementation Guide for Medical Devices (SDTMIG-MD) Version 1.1", "type": "Implementation Guide"}, "priorVersion": {"href": "/mdr/sdtmig/md-1-0/datasets/DE/variables/DECAT", "title": "Category of Device Event", "type": "SDTM Dataset Variable"}, "rootItem": {"href": "/mdr/root/sdtmig/datasets/DE/variables/DECAT", "title": "Version-agnostic anchor resource for SDTMIG variable DE.DECAT", "type": "Root Data Element"}, "self": {"href": "/mdr/sdtmig/md-1-1/datasets/DE/variables/DECAT", "title": "Category of Device Event", "type": "SDTM Dataset Variable"}}, "core": "Perm", "description": "Used to define a categorization level for events. For example, \"MALFUNCTION\" vs. \"CALIBRATION\".", "label": "Category of Device Event", "name": "DECAT", "ordinal": "10", "role": "Grouping Qualifier", "simpleDatatype": "Char"}, {"_links": {"modelClassVariable": {"href": "/mdr/sdtm/1-7/classes/Events/variables/--SCAT", "title": "Subcategory", "type": "Class Variable"}, "parentDataset": {"href": "/mdr/sdtmig/md-1-1/datasets/DE", "title": "Device Events", "type": "SDTM Dataset"}, "parentProduct": {"href": "/mdr/sdtmig/md-1-1", "title": "Study Data Tabulation Model Implementation Guide for Medical Devices (SDTMIG-MD) Version 1.1", "type": "Implementation Guide"}, "priorVersion": {"href": "/mdr/sdtmig/md-1-0/datasets/DE/variables/DESCAT", "title": "Subcategory of  Device Event", "type": "SDTM Dataset Variable"}, "rootItem": {"href": "/mdr/root/sdtmig/datasets/DE/variables/DESCAT", "title": "Version-agnostic anchor resource for SDTMIG variable DE.DESCAT", "type": "Root Data Element"}, "self": {"href": "/mdr/sdtmig/md-1-1/datasets/DE/variables/DESCAT", "title": "Subcategory of Device Event", "type": "SDTM Dataset Variable"}}, "core": "Perm", "description": "Used to define a further category level for events. For example, \"EXTERNAL\" vs. \"INTERNAL\".", "label": "Subcategory of Device Event", "name": "DESCAT", "ordinal": "11", "role": "Grouping Qualifier", "simpleDatatype": "Char"}, {"_links": {"codelist": [{"href": "/mdr/root/ct/sdtmct/codelists/C66742", "title": "Version-agnostic anchor resource for codelist C66742", "type": "Root Value Domain"}], "modelClassVariable": {"href": "/mdr/sdtm/1-7/classes/Events/variables/--PRESP", "title": "Pre-Specified", "type": "Class Variable"}, "parentDataset": {"href": "/mdr/sdtmig/md-1-1/datasets/DE", "title": "Device Events", "type": "SDTM Dataset"}, "parentProduct": {"href": "/mdr/sdtmig/md-1-1", "title": "Study Data Tabulation Model Implementation Guide for Medical Devices (SDTMIG-MD) Version 1.1", "type": "Implementation Guide"}, "priorVersion": {"href": "/mdr/sdtmig/md-1-0/datasets/DE/variables/DEPRESP", "title": "Pre-Specified Device Event", "type": "SDTM Dataset Variable"}, "rootItem": {"href": "/mdr/root/sdtmig/datasets/DE/variables/DEPRESP", "title": "Version-agnostic anchor resource for SDTMIG variable DE.DEPRESP", "type": "Root Data Element"}, "self": {"href": "/mdr/sdtmig/md-1-1/datasets/DE/variables/DEPRESP", "title": "Pre-Specified Device Event", "type": "SDTM Dataset Variable"}}, "core": "Perm", "description": "Used to indicate whether (Y/null) information about a specific event was solicited on the CRF. For example, DETERM could contain a list of malfunctions that are being specifically evaluated. DEPRESP would identify those (Y), whereas any spontaneous events would have DEPREST null.", "label": "Pre-Specified Device Event", "name": "DEPRESP", "ordinal": "12", "role": "Record Qualifier", "simpleDatatype": "Char"}, {"_links": {"codelist": [{"href": "/mdr/root/ct/sdtmct/codelists/C66742", "title": "Version-agnostic anchor resource for codelist C66742", "type": "Root Value Domain"}], "modelClassVariable": {"href": "/mdr/sdtm/1-7/classes/Events/variables/--OCCUR", "title": "Occurrence Indicator", "type": "Class Variable"}, "parentDataset": {"href": "/mdr/sdtmig/md-1-1/datasets/DE", "title": "Device Events", "type": "SDTM Dataset"}, "parentProduct": {"href": "/mdr/sdtmig/md-1-1", "title": "Study Data Tabulation Model Implementation Guide for Medical Devices (SDTMIG-MD) Version 1.1", "type": "Implementation Guide"}, "priorVersion": {"href": "/mdr/sdtmig/md-1-0/datasets/DE/variables/DEOCCUR", "title": "Device Event Occurrence", "type": "SDTM Dataset Variable"}, "rootItem": {"href": "/mdr/root/sdtmig/datasets/DE/variables/DEOCCUR", "title": "Version-agnostic anchor resource for SDTMIG variable DE.DEOCCUR", "type": "Root Data Element"}, "self": {"href": "/mdr/sdtmig/md-1-1/datasets/DE/variables/DEOCCUR", "title": "Device Event Occurrence", "type": "SDTM Dataset Variable"}}, "core": "Perm", "description": "When information about specific events is solicited, DEOCCUR is used to indicate whether or not (Y/N) a particular pre-specified event occurred. Values are null for events not specifically solicited.", "label": "Device Event Occurrence", "name": "DEOCCUR", "ordinal": "13", "role": "Record Qualifier", "simpleDatatype": "Char"}, {"_links": {"codelist": [{"href": "/mdr/root/ct/sdtmct/codelists/C66789", "title": "Version-agnostic anchor resource for codelist C66789", "type": "Root Value Domain"}], "modelClassVariable": {"href": "/mdr/sdtm/1-7/classes/Events/variables/--STAT", "title": "Completion Status", "type": "Class Variable"}, "parentDataset": {"href": "/mdr/sdtmig/md-1-1/datasets/DE", "title": "Device Events", "type": "SDTM Dataset"}, "parentProduct": {"href": "/mdr/sdtmig/md-1-1", "title": "Study Data Tabulation Model Implementation Guide for Medical Devices (SDTMIG-MD) Version 1.1", "type": "Implementation Guide"}, "priorVersion": {"href": "/mdr/sdtmig/md-1-0/datasets/DE/variables/DESTAT", "title": "Device Event Collection Status", "type": "SDTM Dataset Variable"}, "rootItem": {"href": "/mdr/root/sdtmig/datasets/DE/variables/DESTAT", "title": "Version-agnostic anchor resource for SDTMIG variable DE.DESTAT", "type": "Root Data Element"}, "self": {"href": "/mdr/sdtmig/md-1-1/datasets/DE/variables/DESTAT", "title": "Device Event Collection Status", "type": "SDTM Dataset Variable"}}, "core": "Perm", "description": "The status indicates that the pre-specified question was not answered. For example, if equipment operation requires checking, such as checking an event log to detect events. Capturing that the checks were not completed may be relevant to interpreting the study data.", "label": "Device Event Collection Status", "name": "DESTAT", "ordinal": "14", "role": "Record Qualifier", "simpleDatatype": "Char"}, {"_links": {"modelClassVariable": {"href": "/mdr/sdtm/1-7/classes/Events/variables/--REASND", "title": "Reason Not Done", "type": "Class Variable"}, "parentDataset": {"href": "/mdr/sdtmig/md-1-1/datasets/DE", "title": "Device Events", "type": "SDTM Dataset"}, "parentProduct": {"href": "/mdr/sdtmig/md-1-1", "title": "Study Data Tabulation Model Implementation Guide for Medical Devices (SDTMIG-MD) Version 1.1", "type": "Implementation Guide"}, "priorVersion": {"href": "/mdr/sdtmig/md-1-0/datasets/DE/variables/DEREASND", "title": "Reason Device Event Not Collected", "type": "SDTM Dataset Variable"}, "rootItem": {"href": "/mdr/root/sdtmig/datasets/DE/variables/DEREASND", "title": "Version-agnostic anchor resource for SDTMIG variable DE.DEREASND", "type": "Root Data Element"}, "self": {"href": "/mdr/sdtmig/md-1-1/datasets/DE/variables/DEREASND", "title": "Reason Device Event Not Collected", "type": "SDTM Dataset Variable"}}, "core": "Perm", "description": "Reason DESTAT was \"NOT DONE\". This variable should only be used if there are pre-specified events.", "label": "Reason Device Event Not Collected", "name": "DEREASND", "ordinal": "15", "role": "Record Qualifier", "simpleDatatype": "Char"}, {"_links": {"modelClassVariable": {"href": "/mdr/sdtm/1-7/classes/Events/variables/--SEV", "title": "Severity/Intensity", "type": "Class Variable"}, "parentDataset": {"href": "/mdr/sdtmig/md-1-1/datasets/DE", "title": "Device Events", "type": "SDTM Dataset"}, "parentProduct": {"href": "/mdr/sdtmig/md-1-1", "title": "Study Data Tabulation Model Implementation Guide for Medical Devices (SDTMIG-MD) Version 1.1", "type": "Implementation Guide"}, "priorVersion": {"href": "/mdr/sdtmig/md-1-0/datasets/DE/variables/DESEV", "title": "Device Event Severity", "type": "SDTM Dataset Variable"}, "rootItem": {"href": "/mdr/root/sdtmig/datasets/DE/variables/DESEV", "title": "Version-agnostic anchor resource for SDTMIG variable DE.DESEV", "type": "Root Data Element"}, "self": {"href": "/mdr/sdtmig/md-1-1/datasets/DE/variables/DESEV", "title": "Device Event Severity", "type": "SDTM Dataset Variable"}}, "core": "Perm", "description": "Describes the severity of the event, (e.g, the severity of a malfunction).", "label": "Device Event Severity", "name": "DESEV", "ordinal": "16", "role": "Record Qualifier", "simpleDatatype": "Char"}, {"_links": {"modelClassVariable": {"href": "/mdr/sdtm/1-7/classes/Events/variables/--ACNDEV", "title": "Action Taken with Device", "type": "Class Variable"}, "parentDataset": {"href": "/mdr/sdtmig/md-1-1/datasets/DE", "title": "Device Events", "type": "SDTM Dataset"}, "parentProduct": {"href": "/mdr/sdtmig/md-1-1", "title": "Study Data Tabulation Model Implementation Guide for Medical Devices (SDTMIG-MD) Version 1.1", "type": "Implementation Guide"}, "priorVersion": {"href": "/mdr/sdtmig/md-1-0/datasets/DE/variables/DEACNDEV", "title": "Action Taken with Device", "type": "SDTM Dataset Variable"}, "rootItem": {"href": "/mdr/root/sdtmig/datasets/DE/variables/DEACNDEV", "title": "Version-agnostic anchor resource for SDTMIG variable DE.DEACNDEV", "type": "Root Data Element"}, "self": {"href": "/mdr/sdtmig/md-1-1/datasets/DE/variables/DEACNDEV", "title": "Action Taken with Device", "type": "SDTM Dataset Variable"}}, "core": "Perm", "description": "Describes Action Taken with respect to the device. Action Taken may include removal, calibration, reprogramming, and so on. Action is usually in response to some event, for example, a subject's adverse event.", "label": "Action Taken with Device", "name": "DEACNDEV", "ordinal": "17", "role": "Record Qualifier", "simpleDatatype": "Char"}, {"_links": {"modelClassVariable": {"href": "/mdr/sdtm/1-7/classes/GeneralObservations/variables/VISITNUM", "title": "Visit Number", "type": "Class Variable"}, "parentDataset": {"href": "/mdr/sdtmig/md-1-1/datasets/DE", "title": "Device Events", "type": "SDTM Dataset"}, "parentProduct": {"href": "/mdr/sdtmig/md-1-1", "title": "Study Data Tabulation Model Implementation Guide for Medical Devices (SDTMIG-MD) Version 1.1", "type": "Implementation Guide"}, "priorVersion": {"href": "/mdr/sdtmig/md-1-0/datasets/DE/variables/VISITNUM", "title": "Visit Number", "type": "SDTM Dataset Variable"}, "rootItem": {"href": "/mdr/root/sdtmig/datasets/DE/variables/VISITNUM", "title": "Version-agnostic anchor resource for SDTMIG variable DE.VISITNUM", "type": "Root Data Element"}, "self": {"href": "/mdr/sdtmig/md-1-1/datasets/DE/variables/VISITNUM", "title": "Visit Number", "type": "SDTM Dataset Variable"}}, "core": "Exp", "description": "Clinical encounter number. Numeric version of VISIT, used for sorting.", "label": "Visit Number", "name": "VISITNUM", "ordinal": "18", "role": "Timing", "simpleDatatype": "Num"}, {"_links": {"modelClassVariable": {"href": "/mdr/sdtm/1-7/classes/GeneralObservations/variables/VISIT", "title": "Visit Name", "type": "Class Variable"}, "parentDataset": {"href": "/mdr/sdtmig/md-1-1/datasets/DE", "title": "Device Events", "type": "SDTM Dataset"}, "parentProduct": {"href": "/mdr/sdtmig/md-1-1", "title": "Study Data Tabulation Model Implementation Guide for Medical Devices (SDTMIG-MD) Version 1.1", "type": "Implementation Guide"}, "priorVersion": {"href": "/mdr/sdtmig/md-1-0/datasets/DE/variables/VISIT", "title": "Visit Name", "type": "SDTM Dataset Variable"}, "rootItem": {"href": "/mdr/root/sdtmig/datasets/DE/variables/VISIT", "title": "Version-agnostic anchor resource for SDTMIG variable DE.VISIT", "type": "Root Data Element"}, "self": {"href": "/mdr/sdtmig/md-1-1/datasets/DE/variables/VISIT", "title": "Visit Name", "type": "SDTM Dataset Variable"}}, "core": "Perm", "description": "Protocol-defined description of clinical encounter. May be used in addition to VISITNUM and/or VISITDY.", "label": "Visit Name", "name": "VISIT", "ordinal": "19", "role": "Timing", "simpleDatatype": "Char"}, {"_links": {"modelClassVariable": {"href": "/mdr/sdtm/1-7/classes/GeneralObservations/variables/VISITDY", "title": "Planned Study Day of Visit", "type": "Class Variable"}, "parentDataset": {"href": "/mdr/sdtmig/md-1-1/datasets/DE", "title": "Device Events", "type": "SDTM Dataset"}, "parentProduct": {"href": "/mdr/sdtmig/md-1-1", "title": "Study Data Tabulation Model Implementation Guide for Medical Devices (SDTMIG-MD) Version 1.1", "type": "Implementation Guide"}, "priorVersion": {"href": "/mdr/sdtmig/md-1-0/datasets/DE/variables/VISITDY", "title": "Planned Study Day of Visit", "type": "SDTM Dataset Variable"}, "rootItem": {"href": "/mdr/root/sdtmig/datasets/DE/variables/VISITDY", "title": "Version-agnostic anchor resource for SDTMIG variable DE.VISITDY", "type": "Root Data Element"}, "self": {"href": "/mdr/sdtmig/md-1-1/datasets/DE/variables/VISITDY", "title": "Planned Study Day of Visit", "type": "SDTM Dataset Variable"}}, "core": "Perm", "description": "Planned study day of the visit based upon RFSTDTC in Demographics. This value is usually derived.", "label": "Planned Study Day of Visit", "name": "VISITDY", "ordinal": "20", "role": "Timing", "simpleDatatype": "Num"}, {"_links": {"modelClassVariable": {"href": "/mdr/sdtm/1-7/classes/GeneralObservations/variables/--DTC", "title": "Date/Time of Collection", "type": "Class Variable"}, "parentDataset": {"href": "/mdr/sdtmig/md-1-1/datasets/DE", "title": "Device Events", "type": "SDTM Dataset"}, "parentProduct": {"href": "/mdr/sdtmig/md-1-1", "title": "Study Data Tabulation Model Implementation Guide for Medical Devices (SDTMIG-MD) Version 1.1", "type": "Implementation Guide"}, "priorVersion": {"href": "/mdr/sdtmig/md-1-0/datasets/DE/variables/DEDTC", "title": "Date of Device Event Data Collection", "type": "SDTM Dataset Variable"}, "rootItem": {"href": "/mdr/root/sdtmig/datasets/DE/variables/DEDTC", "title": "Version-agnostic anchor resource for SDTMIG variable DE.DEDTC", "type": "Root Data Element"}, "self": {"href": "/mdr/sdtmig/md-1-1/datasets/DE/variables/DEDTC", "title": "Date of Device Event Data Collection", "type": "SDTM Dataset Variable"}}, "core": "Perm", "describedValueDomain": "ISO 8601", "description": "Date the device event information was collected. This may be reported if the event (e.g., malfunction) is discovered on a different date from the event.", "label": "Date of Device Event Data Collection", "name": "DEDTC", "ordinal": "21", "role": "Timing", "simpleDatatype": "Char"}, {"_links": {"modelClassVariable": {"href": "/mdr/sdtm/1-7/classes/GeneralObservations/variables/--STDTC", "title": "Start Date/Time of Observation", "type": "Class Variable"}, "parentDataset": {"href": "/mdr/sdtmig/md-1-1/datasets/DE", "title": "Device Events", "type": "SDTM Dataset"}, "parentProduct": {"href": "/mdr/sdtmig/md-1-1", "title": "Study Data Tabulation Model Implementation Guide for Medical Devices (SDTMIG-MD) Version 1.1", "type": "Implementation Guide"}, "priorVersion": {"href": "/mdr/sdtmig/md-1-0/datasets/DE/variables/DESTDTC", "title": "Start Date/Time of Device Event", "type": "SDTM Dataset Variable"}, "rootItem": {"href": "/mdr/root/sdtmig/datasets/DE/variables/DESTDTC", "title": "Version-agnostic anchor resource for SDTMIG variable DE.DESTDTC", "type": "Root Data Element"}, "self": {"href": "/mdr/sdtmig/md-1-1/datasets/DE/variables/DESTDTC", "title": "Start Date/Time of Device Event", "type": "SDTM Dataset Variable"}}, "core": "Perm", "describedValueDomain": "ISO 8601", "description": "Start date/time of the device event. If the event happened at a single point in time, DESTDTC is used.", "label": "Start Date/Time of Device Event", "name": "DESTDTC", "ordinal": "22", "role": "Timing", "simpleDatatype": "Char"}, {"_links": {"modelClassVariable": {"href": "/mdr/sdtm/1-7/classes/GeneralObservations/variables/--ENDTC", "title": "End Date/Time of Observation", "type": "Class Variable"}, "parentDataset": {"href": "/mdr/sdtmig/md-1-1/datasets/DE", "title": "Device Events", "type": "SDTM Dataset"}, "parentProduct": {"href": "/mdr/sdtmig/md-1-1", "title": "Study Data Tabulation Model Implementation Guide for Medical Devices (SDTMIG-MD) Version 1.1", "type": "Implementation Guide"}, "priorVersion": {"href": "/mdr/sdtmig/md-1-0/datasets/DE/variables/DEENDTC", "title": "End Date/Time of Device Event", "type": "SDTM Dataset Variable"}, "rootItem": {"href": "/mdr/root/sdtmig/datasets/DE/variables/DEENDTC", "title": "Version-agnostic anchor resource for SDTMIG variable DE.DEENDTC", "type": "Root Data Element"}, "self": {"href": "/mdr/sdtmig/md-1-1/datasets/DE/variables/DEENDTC", "title": "End Date/Time of Device Event", "type": "SDTM Dataset Variable"}}, "core": "Perm", "describedValueDomain": "ISO 8601", "description": "End date/time of the device event. If an event lasted over a period of time, DEENDTC can be used to capture the end date/time.", "label": "End Date/Time of Device Event", "name": "DEENDTC", "ordinal": "23", "role": "Timing", "simpleDatatype": "Char"}, {"_links": {"modelClassVariable": {"href": "/mdr/sdtm/1-7/classes/GeneralObservations/variables/--DY", "title": "Study Day of Visit/Collection/Exam", "type": "Class Variable"}, "parentDataset": {"href": "/mdr/sdtmig/md-1-1/datasets/DE", "title": "Device Events", "type": "SDTM Dataset"}, "parentProduct": {"href": "/mdr/sdtmig/md-1-1", "title": "Study Data Tabulation Model Implementation Guide for Medical Devices (SDTMIG-MD) Version 1.1", "type": "Implementation Guide"}, "priorVersion": {"href": "/mdr/sdtmig/md-1-0/datasets/DE/variables/DEDY", "title": "Study Day of Device Event Data Collection", "type": "SDTM Dataset Variable"}, "rootItem": {"href": "/mdr/root/sdtmig/datasets/DE/variables/DEDY", "title": "Version-agnostic anchor resource for SDTMIG variable DE.DEDY", "type": "Root Data Element"}, "self": {"href": "/mdr/sdtmig/md-1-1/datasets/DE/variables/DEDY", "title": "Study Day of Start of Tracking Event", "type": "SDTM Dataset Variable"}}, "core": "Perm", "description": "Study day of Device Event observation, measured as integer days. Algorithm for calculations must be relative to the sponsor-defined RFSTDTC variable in Demographics.", "label": "Study Day of Start of Tracking Event", "name": "DEDY", "ordinal": "24", "role": "Timing", "simpleDatatype": "Num"}, {"_links": {"modelClassVariable": {"href": "/mdr/sdtm/1-7/classes/GeneralObservations/variables/--STDY", "title": "Study Day of Start of Observation", "type": "Class Variable"}, "parentDataset": {"href": "/mdr/sdtmig/md-1-1/datasets/DE", "title": "Device Events", "type": "SDTM Dataset"}, "parentProduct": {"href": "/mdr/sdtmig/md-1-1", "title": "Study Data Tabulation Model Implementation Guide for Medical Devices (SDTMIG-MD) Version 1.1", "type": "Implementation Guide"}, "priorVersion": {"href": "/mdr/sdtmig/md-1-0/datasets/DE/variables/DESTDY", "title": "Study Day of Device Event Start Date/Time", "type": "SDTM Dataset Variable"}, "rootItem": {"href": "/mdr/root/sdtmig/datasets/DE/variables/DESTDY", "title": "Version-agnostic anchor resource for SDTMIG variable DE.DESTDY", "type": "Root Data Element"}, "self": {"href": "/mdr/sdtmig/md-1-1/datasets/DE/variables/DESTDY", "title": "Study Day of Device Event Start", "type": "SDTM Dataset Variable"}}, "core": "Perm", "description": "Study day of start of Device Event, measured as integer days. Algorithm for calculations must be relative to the sponsor-defined RFSTDTC variable in Demographics.", "label": "Study Day of Device Event Start", "name": "DESTDY", "ordinal": "25", "role": "Timing", "simpleDatatype": "Num"}, {"_links": {"modelClassVariable": {"href": "/mdr/sdtm/1-7/classes/GeneralObservations/variables/--ENDY", "title": "Study Day of End of Observation", "type": "Class Variable"}, "parentDataset": {"href": "/mdr/sdtmig/md-1-1/datasets/DE", "title": "Device Events", "type": "SDTM Dataset"}, "parentProduct": {"href": "/mdr/sdtmig/md-1-1", "title": "Study Data Tabulation Model Implementation Guide for Medical Devices (SDTMIG-MD) Version 1.1", "type": "Implementation Guide"}, "priorVersion": {"href": "/mdr/sdtmig/md-1-0/datasets/DE/variables/DEENDY", "title": "Study Day of Device Event End Date/Time", "type": "SDTM Dataset Variable"}, "rootItem": {"href": "/mdr/root/sdtmig/datasets/DE/variables/DEENDY", "title": "Version-agnostic anchor resource for SDTMIG variable DE.DEENDY", "type": "Root Data Element"}, "self": {"href": "/mdr/sdtmig/md-1-1/datasets/DE/variables/DEENDY", "title": "Study Day of Device Event End", "type": "SDTM Dataset Variable"}}, "core": "Perm", "description": "Study day of end of Device Event, measured as integer days. Algorithm for calculations must be relative to the sponsor-defined RFENDTC variable in Demographics.", "label": "Study Day of Device Event End", "name": "DEENDY", "ordinal": "26", "role": "Timing", "simpleDatatype": "Num"}], "description": "An events domain that contains data for device-related events. (Source: CDISC Controlled Terminology, DOMAIN, C102616, 2018-06-29)", "label": "Device Events", "name": "DE", "ordinal": "4"}
