{"_links": {"parentClass": {"href": "/mdr/sdtmig/md-1-1/classes/Findings", "title": "Findings Observation Class", "type": "Class"}, "parentProduct": {"href": "/mdr/sdtmig/md-1-1", "title": "Study Data Tabulation Model Implementation Guide for Medical Devices (SDTMIG-MD) Version 1.1", "type": "Implementation Guide"}, "priorVersion": {"href": "/mdr/sdtmig/md-1-0/datasets/DO", "title": "Device Properties", "type": "SDTM Dataset"}, "self": {"href": "/mdr/sdtmig/md-1-1/datasets/DO", "title": "Device Properties", "type": "SDTM Dataset"}}, "datasetStructure": "One record per property per device", "datasetVariables": [{"_links": {"modelClassVariable": {"href": "/mdr/sdtm/1-7/classes/GeneralObservations/variables/STUDYID", "title": "Study Identifier", "type": "Class Variable"}, "parentDataset": {"href": "/mdr/sdtmig/md-1-1/datasets/DO", "title": "Device Properties", "type": "SDTM Dataset"}, "parentProduct": {"href": "/mdr/sdtmig/md-1-1", "title": "Study Data Tabulation Model Implementation Guide for Medical Devices (SDTMIG-MD) Version 1.1", "type": "Implementation Guide"}, "priorVersion": {"href": "/mdr/sdtmig/md-1-0/datasets/DO/variables/STUDYID", "title": "Study Identifier", "type": "SDTM Dataset Variable"}, "rootItem": {"href": "/mdr/root/sdtmig/datasets/DO/variables/STUDYID", "title": "Version-agnostic anchor resource for SDTMIG variable DO.STUDYID", "type": "Root Data Element"}, "self": {"href": "/mdr/sdtmig/md-1-1/datasets/DO/variables/STUDYID", "title": "Study Identifier", "type": "SDTM Dataset Variable"}}, "core": "Req", "description": "Unique identifier for a study.", "label": "Study Identifier", "name": "STUDYID", "ordinal": "1", "role": "Identifier", "simpleDatatype": "Char"}, {"_links": {"modelClassVariable": {"href": "/mdr/sdtm/1-7/classes/GeneralObservations/variables/DOMAIN", "title": "Domain Abbreviation", "type": "Class Variable"}, "parentDataset": {"href": "/mdr/sdtmig/md-1-1/datasets/DO", "title": "Device Properties", "type": "SDTM Dataset"}, "parentProduct": {"href": "/mdr/sdtmig/md-1-1", "title": "Study Data Tabulation Model Implementation Guide for Medical Devices (SDTMIG-MD) Version 1.1", "type": "Implementation Guide"}, "priorVersion": {"href": "/mdr/sdtmig/md-1-0/datasets/DO/variables/DOMAIN", "title": "Domain Abbreviation", "type": "SDTM Dataset Variable"}, "rootItem": {"href": "/mdr/root/sdtmig/datasets/DO/variables/DOMAIN", "title": "Version-agnostic anchor resource for SDTMIG variable DO.DOMAIN", "type": "Root Data Element"}, "self": {"href": "/mdr/sdtmig/md-1-1/datasets/DO/variables/DOMAIN", "title": "Domain Abbreviation", "type": "SDTM Dataset Variable"}}, "core": "Req", "description": "Two-character abbreviation for the domain.", "label": "Domain Abbreviation", "name": "DOMAIN", "ordinal": "2", "role": "Identifier", "simpleDatatype": "Char", "valueList": ["DO"]}, {"_links": {"modelClassVariable": {"href": "/mdr/sdtm/1-7/classes/GeneralObservations/variables/SPDEVID", "title": "Sponsor Device Identifier", "type": "Class Variable"}, "parentDataset": {"href": "/mdr/sdtmig/md-1-1/datasets/DO", "title": "Device Properties", "type": "SDTM Dataset"}, "parentProduct": {"href": "/mdr/sdtmig/md-1-1", "title": "Study Data Tabulation Model Implementation Guide for Medical Devices (SDTMIG-MD) Version 1.1", "type": "Implementation Guide"}, "priorVersion": {"href": "/mdr/sdtmig/md-1-0/datasets/DO/variables/SPDEVID", "title": "Sponsor Device Identifier", "type": "SDTM Dataset Variable"}, "rootItem": {"href": "/mdr/root/sdtmig/datasets/DO/variables/SPDEVID", "title": "Version-agnostic anchor resource for SDTMIG variable DO.SPDEVID", "type": "Root Data Element"}, "self": {"href": "/mdr/sdtmig/md-1-1/datasets/DO/variables/SPDEVID", "title": "Sponsor Device Identifier", "type": "SDTM Dataset Variable"}}, "core": "Req", "description": "Sponsor-defined identifier for the device. It must be unique for each tracked unit of the device under study, and can be at whatever level of granularity the device should be identified (e.g., model or serial number, combination of identifiers).", "label": "Sponsor Device Identifier", "name": "SPDEVID", "ordinal": "3", "role": "Identifier", "simpleDatatype": "Char"}, {"_links": {"modelClassVariable": {"href": "/mdr/sdtm/1-7/classes/GeneralObservations/variables/--SEQ", "title": "Sequence Number", "type": "Class Variable"}, "parentDataset": {"href": "/mdr/sdtmig/md-1-1/datasets/DO", "title": "Device Properties", "type": "SDTM Dataset"}, "parentProduct": {"href": "/mdr/sdtmig/md-1-1", "title": "Study Data Tabulation Model Implementation Guide for Medical Devices (SDTMIG-MD) Version 1.1", "type": "Implementation Guide"}, "priorVersion": {"href": "/mdr/sdtmig/md-1-0/datasets/DO/variables/DOSEQ", "title": "Sequence Number", "type": "SDTM Dataset Variable"}, "rootItem": {"href": "/mdr/root/sdtmig/datasets/DO/variables/DOSEQ", "title": "Version-agnostic anchor resource for SDTMIG variable DO.DOSEQ", "type": "Root Data Element"}, "self": {"href": "/mdr/sdtmig/md-1-1/datasets/DO/variables/DOSEQ", "title": "Sequence Number", "type": "SDTM Dataset Variable"}}, "core": "Req", "description": "Sequence Number given to ensure uniqueness of device records within subject records within a domain. May be any valid number. It should be unique within every subject/device combination.", "label": "Sequence Number", "name": "DOSEQ", "ordinal": "4", "role": "Identifier", "simpleDatatype": "Num"}, {"_links": {"modelClassVariable": {"href": "/mdr/sdtm/1-7/classes/GeneralObservations/variables/--GRPID", "title": "Group ID", "type": "Class Variable"}, "parentDataset": {"href": "/mdr/sdtmig/md-1-1/datasets/DO", "title": "Device Properties", "type": "SDTM Dataset"}, "parentProduct": {"href": "/mdr/sdtmig/md-1-1", "title": "Study Data Tabulation Model Implementation Guide for Medical Devices (SDTMIG-MD) Version 1.1", "type": "Implementation Guide"}, "priorVersion": {"href": "/mdr/sdtmig/md-1-0/datasets/DO/variables/DOGRPID", "title": "Group ID", "type": "SDTM Dataset Variable"}, "rootItem": {"href": "/mdr/root/sdtmig/datasets/DO/variables/DOGRPID", "title": "Version-agnostic anchor resource for SDTMIG variable DO.DOGRPID", "type": "Root Data Element"}, "self": {"href": "/mdr/sdtmig/md-1-1/datasets/DO/variables/DOGRPID", "title": "Group ID", "type": "SDTM Dataset Variable"}}, "core": "Perm", "description": "Used to tie together a block of related records in a single domain for a device.", "label": "Group ID", "name": "DOGRPID", "ordinal": "5", "role": "Identifier", "simpleDatatype": "Char"}, {"_links": {"modelClassVariable": {"href": "/mdr/sdtm/1-7/classes/GeneralObservations/variables/--REFID", "title": "Reference ID", "type": "Class Variable"}, "parentDataset": {"href": "/mdr/sdtmig/md-1-1/datasets/DO", "title": "Device Properties", "type": "SDTM Dataset"}, "parentProduct": {"href": "/mdr/sdtmig/md-1-1", "title": "Study Data Tabulation Model Implementation Guide for Medical Devices (SDTMIG-MD) Version 1.1", "type": "Implementation Guide"}, "priorVersion": {"href": "/mdr/sdtmig/md-1-0/datasets/DO/variables/DOREFID", "title": "Reference ID", "type": "SDTM Dataset Variable"}, "rootItem": {"href": "/mdr/root/sdtmig/datasets/DO/variables/DOREFID", "title": "Version-agnostic anchor resource for SDTMIG variable DO.DOREFID", "type": "Root Data Element"}, "self": {"href": "/mdr/sdtmig/md-1-1/datasets/DO/variables/DOREFID", "title": "Reference ID", "type": "SDTM Dataset Variable"}}, "core": "Perm", "description": "Internal or external identifier. This could be a scan code or equivalent.", "label": "Reference ID", "name": "DOREFID", "ordinal": "6", "role": "Identifier", "simpleDatatype": "Char"}, {"_links": {"modelClassVariable": {"href": "/mdr/sdtm/1-7/classes/GeneralObservations/variables/--SPID", "title": "Sponsor-Defined Identifier", "type": "Class Variable"}, "parentDataset": {"href": "/mdr/sdtmig/md-1-1/datasets/DO", "title": "Device Properties", "type": "SDTM Dataset"}, "parentProduct": {"href": "/mdr/sdtmig/md-1-1", "title": "Study Data Tabulation Model Implementation Guide for Medical Devices (SDTMIG-MD) Version 1.1", "type": "Implementation Guide"}, "priorVersion": {"href": "/mdr/sdtmig/md-1-0/datasets/DO/variables/DOSPID", "title": "Sponsor-Defined Identifier", "type": "SDTM Dataset Variable"}, "rootItem": {"href": "/mdr/root/sdtmig/datasets/DO/variables/DOSPID", "title": "Version-agnostic anchor resource for SDTMIG variable DO.DOSPID", "type": "Root Data Element"}, "self": {"href": "/mdr/sdtmig/md-1-1/datasets/DO/variables/DOSPID", "title": "Sponsor-Defined Identifier", "type": "SDTM Dataset Variable"}}, "core": "Perm", "description": "Sponsor-defined reference number.", "label": "Sponsor-Defined Identifier", "name": "DOSPID", "ordinal": "7", "role": "Identifier", "simpleDatatype": "Char"}, {"_links": {"codelist": [{"href": "/mdr/root/ct/sdtmct/codelists/C111111", "title": "Version-agnostic anchor resource for codelist C111111", "type": "Root Value Domain"}], "modelClassVariable": {"href": "/mdr/sdtm/1-7/classes/Findings/variables/--TESTCD", "title": "Short Name of Measurement, Test, or Exam", "type": "Class Variable"}, "parentDataset": {"href": "/mdr/sdtmig/md-1-1/datasets/DO", "title": "Device Properties", "type": "SDTM Dataset"}, "parentProduct": {"href": "/mdr/sdtmig/md-1-1", "title": "Study Data Tabulation Model Implementation Guide for Medical Devices (SDTMIG-MD) Version 1.1", "type": "Implementation Guide"}, "priorVersion": {"href": "/mdr/sdtmig/md-1-0/datasets/DO/variables/DOTESTCD", "title": "Device Property  Short Name", "type": "SDTM Dataset Variable"}, "rootItem": {"href": "/mdr/root/sdtmig/datasets/DO/variables/DOTESTCD", "title": "Version-agnostic anchor resource for SDTMIG variable DO.DOTESTCD", "type": "Root Data Element"}, "self": {"href": "/mdr/sdtmig/md-1-1/datasets/DO/variables/DOTESTCD", "title": "Device Property Short Name", "type": "SDTM Dataset Variable"}}, "core": "Req", "description": "Short name of the measurement, test, or examination described in DOTEST. It can be used as a column name when converting a dataset from a vertical to a horizontal format. The value in DOTESTCD cannot be longer than 8 characters, nor can it start with a number (e.g., \"1TEST\"). DOTESTCD cannot contain characters other than letters, numbers, or underscores. Examples: \"SHLFLIFE\", \"INDC\", \"COMPOS\".", "label": "Device Property Short Name", "name": "DOTESTCD", "ordinal": "8", "role": "Topic", "simpleDatatype": "Char"}, {"_links": {"codelist": [{"href": "/mdr/root/ct/sdtmct/codelists/C111112", "title": "Version-agnostic anchor resource for codelist C111112", "type": "Root Value Domain"}], "modelClassVariable": {"href": "/mdr/sdtm/1-7/classes/Findings/variables/--TEST", "title": "Name of Measurement, Test, or Exam", "type": "Class Variable"}, "parentDataset": {"href": "/mdr/sdtmig/md-1-1/datasets/DO", "title": "Device Properties", "type": "SDTM Dataset"}, "parentProduct": {"href": "/mdr/sdtmig/md-1-1", "title": "Study Data Tabulation Model Implementation Guide for Medical Devices (SDTMIG-MD) Version 1.1", "type": "Implementation Guide"}, "priorVersion": {"href": "/mdr/sdtmig/md-1-0/datasets/DO/variables/DOTEST", "title": "Device Property  Test Name", "type": "SDTM Dataset Variable"}, "rootItem": {"href": "/mdr/root/sdtmig/datasets/DO/variables/DOTEST", "title": "Version-agnostic anchor resource for SDTMIG variable DO.DOTEST", "type": "Root Data Element"}, "self": {"href": "/mdr/sdtmig/md-1-1/datasets/DO/variables/DOTEST", "title": "Device Property Test Name", "type": "SDTM Dataset Variable"}}, "core": "Req", "description": "Verbatim name of the test or examination used to obtain the measurement or finding. The value in DOTEST cannot be longer than 40 characters. Examples: \"Shelf Life\", \"Indication for use\", \"Composition\" (of device).", "label": "Device Property Test Name", "name": "DOTEST", "ordinal": "9", "role": "Synonym Qualifier", "simpleDatatype": "Char"}, {"_links": {"modelClassVariable": {"href": "/mdr/sdtm/1-7/classes/Findings/variables/--CAT", "title": "Category", "type": "Class Variable"}, "parentDataset": {"href": "/mdr/sdtmig/md-1-1/datasets/DO", "title": "Device Properties", "type": "SDTM Dataset"}, "parentProduct": {"href": "/mdr/sdtmig/md-1-1", "title": "Study Data Tabulation Model Implementation Guide for Medical Devices (SDTMIG-MD) Version 1.1", "type": "Implementation Guide"}, "priorVersion": {"href": "/mdr/sdtmig/md-1-0/datasets/DO/variables/DOCAT", "title": "Category for Device In-Use", "type": "SDTM Dataset Variable"}, "rootItem": {"href": "/mdr/root/sdtmig/datasets/DO/variables/DOCAT", "title": "Version-agnostic anchor resource for SDTMIG variable DO.DOCAT", "type": "Root Data Element"}, "self": {"href": "/mdr/sdtmig/md-1-1/datasets/DO/variables/DOCAT", "title": "Category for Device In-Use", "type": "SDTM Dataset Variable"}}, "core": "Perm", "description": "Defines a category of related records. For example, it can be used to define the type of property being defined, such as \"DIMENSIONS\" versus \"MATERIAL\".", "label": "Category for Device In-Use", "name": "DOCAT", "ordinal": "10", "role": "Grouping Qualifier", "simpleDatatype": "Char"}, {"_links": {"modelClassVariable": {"href": "/mdr/sdtm/1-7/classes/Findings/variables/--SCAT", "title": "Subcategory", "type": "Class Variable"}, "parentDataset": {"href": "/mdr/sdtmig/md-1-1/datasets/DO", "title": "Device Properties", "type": "SDTM Dataset"}, "parentProduct": {"href": "/mdr/sdtmig/md-1-1", "title": "Study Data Tabulation Model Implementation Guide for Medical Devices (SDTMIG-MD) Version 1.1", "type": "Implementation Guide"}, "priorVersion": {"href": "/mdr/sdtmig/md-1-0/datasets/DO/variables/DOSCAT", "title": "Subcategory for Device In-Use", "type": "SDTM Dataset Variable"}, "rootItem": {"href": "/mdr/root/sdtmig/datasets/DO/variables/DOSCAT", "title": "Version-agnostic anchor resource for SDTMIG variable DO.DOSCAT", "type": "Root Data Element"}, "self": {"href": "/mdr/sdtmig/md-1-1/datasets/DO/variables/DOSCAT", "title": "Subcategory for Device In-Use", "type": "SDTM Dataset Variable"}}, "core": "Perm", "description": "A further categorization of a measurement or examination. For example, if DOCAT = \"DIMENSION\", DOSCAT might be \"LENGTH\" or \"WIDTH\" or \"THICKNESS\".", "label": "Subcategory for Device In-Use", "name": "DOSCAT", "ordinal": "11", "role": "Grouping Qualifier", "simpleDatatype": "Char"}, {"_links": {"modelClassVariable": {"href": "/mdr/sdtm/1-7/classes/Findings/variables/--ORRES", "title": "Result or Finding in Original Units", "type": "Class Variable"}, "parentDataset": {"href": "/mdr/sdtmig/md-1-1/datasets/DO", "title": "Device Properties", "type": "SDTM Dataset"}, "parentProduct": {"href": "/mdr/sdtmig/md-1-1", "title": "Study Data Tabulation Model Implementation Guide for Medical Devices (SDTMIG-MD) Version 1.1", "type": "Implementation Guide"}, "priorVersion": {"href": "/mdr/sdtmig/md-1-0/datasets/DO/variables/DOORRES", "title": "Result or Finding in Original Units", "type": "SDTM Dataset Variable"}, "rootItem": {"href": "/mdr/root/sdtmig/datasets/DO/variables/DOORRES", "title": "Version-agnostic anchor resource for SDTMIG variable DO.DOORRES", "type": "Root Data Element"}, "self": {"href": "/mdr/sdtmig/md-1-1/datasets/DO/variables/DOORRES", "title": "Result or Finding in Original Units", "type": "SDTM Dataset Variable"}}, "core": "Exp", "description": "Result of the Device Property as originally observed or collected. DOORRES should contain the result or value of the property defined in DOTEST. For example, if DOTEST is LIFE (shelf life), then DOORRES might be 6 (months).", "label": "Result or Finding in Original Units", "name": "DOORRES", "ordinal": "12", "role": "Result Qualifier", "simpleDatatype": "Char"}, {"_links": {"codelist": [{"href": "/mdr/root/ct/sdtmct/codelists/C71620", "title": "Version-agnostic anchor resource for codelist C71620", "type": "Root Value Domain"}], "modelClassVariable": {"href": "/mdr/sdtm/1-7/classes/Findings/variables/--ORRESU", "title": "Original Units", "type": "Class Variable"}, "parentDataset": {"href": "/mdr/sdtmig/md-1-1/datasets/DO", "title": "Device Properties", "type": "SDTM Dataset"}, "parentProduct": {"href": "/mdr/sdtmig/md-1-1", "title": "Study Data Tabulation Model Implementation Guide for Medical Devices (SDTMIG-MD) Version 1.1", "type": "Implementation Guide"}, "priorVersion": {"href": "/mdr/sdtmig/md-1-0/datasets/DO/variables/DOORRESU", "title": "Original Units", "type": "SDTM Dataset Variable"}, "rootItem": {"href": "/mdr/root/sdtmig/datasets/DO/variables/DOORRESU", "title": "Version-agnostic anchor resource for SDTMIG variable DO.DOORRESU", "type": "Root Data Element"}, "self": {"href": "/mdr/sdtmig/md-1-1/datasets/DO/variables/DOORRESU", "title": "Original Units", "type": "SDTM Dataset Variable"}}, "core": "Exp", "description": "Original units in which the data were collected. The unit for DOORRES. Examples: \"MONTHS\", \"cm\".", "label": "Original Units", "name": "DOORRESU", "ordinal": "13", "role": "Variable Qualifier", "simpleDatatype": "Char"}], "description": "A findings domain that contains the device characteristics that do not vary over the course of the study. (Source: CDISC Controlled Terminology, DOMAIN, C102619, 2018-06-29)", "label": "Device Properties", "name": "DO", "ordinal": "7"}
