{"_links": {"parentClass": {"href": "/mdr/sdtmig/md-1-1/classes/Interventions", "title": "Interventions Observation Class", "type": "Class"}, "parentProduct": {"href": "/mdr/sdtmig/md-1-1", "title": "Study Data Tabulation Model Implementation Guide for Medical Devices (SDTMIG-MD) Version 1.1", "type": "Implementation Guide"}, "priorVersion": {"href": "/mdr/sdtmig/md-1-0/datasets/DX", "title": "Device Exposure", "type": "SDTM Dataset"}, "self": {"href": "/mdr/sdtmig/md-1-1/datasets/DX", "title": "Device Exposure", "type": "SDTM Dataset"}}, "datasetStructure": "One record per recorded intervention occurrence or constant treatment interval per subject", "datasetVariables": [{"_links": {"modelClassVariable": {"href": "/mdr/sdtm/1-7/classes/GeneralObservations/variables/STUDYID", "title": "Study Identifier", "type": "Class Variable"}, "parentDataset": {"href": "/mdr/sdtmig/md-1-1/datasets/DX", "title": "Device Exposure", "type": "SDTM Dataset"}, "parentProduct": {"href": "/mdr/sdtmig/md-1-1", "title": "Study Data Tabulation Model Implementation Guide for Medical Devices (SDTMIG-MD) Version 1.1", "type": "Implementation Guide"}, "priorVersion": {"href": "/mdr/sdtmig/md-1-0/datasets/DX/variables/STUDYID", "title": "Study Identifier", "type": "SDTM Dataset Variable"}, "rootItem": {"href": "/mdr/root/sdtmig/datasets/DX/variables/STUDYID", "title": "Version-agnostic anchor resource for SDTMIG variable DX.STUDYID", "type": "Root Data Element"}, "self": {"href": "/mdr/sdtmig/md-1-1/datasets/DX/variables/STUDYID", "title": "Study Identifier", "type": "SDTM Dataset Variable"}}, "core": "Req", "description": "Unique identifier for a study.", "label": "Study Identifier", "name": "STUDYID", "ordinal": "1", "role": "Identifier", "simpleDatatype": "Char"}, {"_links": {"modelClassVariable": {"href": "/mdr/sdtm/1-7/classes/GeneralObservations/variables/DOMAIN", "title": "Domain Abbreviation", "type": "Class Variable"}, "parentDataset": {"href": "/mdr/sdtmig/md-1-1/datasets/DX", "title": "Device Exposure", "type": "SDTM Dataset"}, "parentProduct": {"href": "/mdr/sdtmig/md-1-1", "title": "Study Data Tabulation Model Implementation Guide for Medical Devices (SDTMIG-MD) Version 1.1", "type": "Implementation Guide"}, "priorVersion": {"href": "/mdr/sdtmig/md-1-0/datasets/DX/variables/DOMAIN", "title": "Domain Abbreviation", "type": "SDTM Dataset Variable"}, "rootItem": {"href": "/mdr/root/sdtmig/datasets/DX/variables/DOMAIN", "title": "Version-agnostic anchor resource for SDTMIG variable DX.DOMAIN", "type": "Root Data Element"}, "self": {"href": "/mdr/sdtmig/md-1-1/datasets/DX/variables/DOMAIN", "title": "Domain Abbreviation", "type": "SDTM Dataset Variable"}}, "core": "Req", "description": "Two-character abbreviation for the domain.", "label": "Domain Abbreviation", "name": "DOMAIN", "ordinal": "2", "role": "Identifier", "simpleDatatype": "Char", "valueList": ["DX"]}, {"_links": {"modelClassVariable": {"href": "/mdr/sdtm/1-7/classes/GeneralObservations/variables/USUBJID", "title": "Unique Subject Identifier", "type": "Class Variable"}, "parentDataset": {"href": "/mdr/sdtmig/md-1-1/datasets/DX", "title": "Device Exposure", "type": "SDTM Dataset"}, "parentProduct": {"href": "/mdr/sdtmig/md-1-1", "title": "Study Data Tabulation Model Implementation Guide for Medical Devices (SDTMIG-MD) Version 1.1", "type": "Implementation Guide"}, "priorVersion": {"href": "/mdr/sdtmig/md-1-0/datasets/DX/variables/USUBJID", "title": "Unique Subject Identifier", "type": "SDTM Dataset Variable"}, "rootItem": {"href": "/mdr/root/sdtmig/datasets/DX/variables/USUBJID", "title": "Version-agnostic anchor resource for SDTMIG variable DX.USUBJID", "type": "Root Data Element"}, "self": {"href": "/mdr/sdtmig/md-1-1/datasets/DX/variables/USUBJID", "title": "Unique Subject Identifier", "type": "SDTM Dataset Variable"}}, "core": "Req", "description": "Identifier used to uniquely identify a subject across all studies for all applications or submissions involving the product.", "label": "Unique Subject Identifier", "name": "USUBJID", "ordinal": "3", "role": "Identifier", "simpleDatatype": "Char"}, {"_links": {"modelClassVariable": {"href": "/mdr/sdtm/1-7/classes/GeneralObservations/variables/SPDEVID", "title": "Sponsor Device Identifier", "type": "Class Variable"}, "parentDataset": {"href": "/mdr/sdtmig/md-1-1/datasets/DX", "title": "Device Exposure", "type": "SDTM Dataset"}, "parentProduct": {"href": "/mdr/sdtmig/md-1-1", "title": "Study Data Tabulation Model Implementation Guide for Medical Devices (SDTMIG-MD) Version 1.1", "type": "Implementation Guide"}, "priorVersion": {"href": "/mdr/sdtmig/md-1-0/datasets/DX/variables/SPDEVID", "title": "Sponsor Device Identifier", "type": "SDTM Dataset Variable"}, "rootItem": {"href": "/mdr/root/sdtmig/datasets/DX/variables/SPDEVID", "title": "Version-agnostic anchor resource for SDTMIG variable DX.SPDEVID", "type": "Root Data Element"}, "self": {"href": "/mdr/sdtmig/md-1-1/datasets/DX/variables/SPDEVID", "title": "Sponsor Device Identifier", "type": "SDTM Dataset Variable"}}, "core": "Req", "description": "Sponsor-defined identifier for the device. It must be unique for each tracked unit of the device under study, and can be at whatever level of granularity the device should be identified (e.g., model or serial number, or combination of identifiers).", "label": "Sponsor Device Identifier", "name": "SPDEVID", "ordinal": "4", "role": "Identifier", "simpleDatatype": "Char"}, {"_links": {"modelClassVariable": {"href": "/mdr/sdtm/1-7/classes/GeneralObservations/variables/--SEQ", "title": "Sequence Number", "type": "Class Variable"}, "parentDataset": {"href": "/mdr/sdtmig/md-1-1/datasets/DX", "title": "Device Exposure", "type": "SDTM Dataset"}, "parentProduct": {"href": "/mdr/sdtmig/md-1-1", "title": "Study Data Tabulation Model Implementation Guide for Medical Devices (SDTMIG-MD) Version 1.1", "type": "Implementation Guide"}, "priorVersion": {"href": "/mdr/sdtmig/md-1-0/datasets/DX/variables/DXSEQ", "title": "Sequence Number", "type": "SDTM Dataset Variable"}, "rootItem": {"href": "/mdr/root/sdtmig/datasets/DX/variables/DXSEQ", "title": "Version-agnostic anchor resource for SDTMIG variable DX.DXSEQ", "type": "Root Data Element"}, "self": {"href": "/mdr/sdtmig/md-1-1/datasets/DX/variables/DXSEQ", "title": "Sequence Number", "type": "SDTM Dataset Variable"}}, "core": "Req", "description": "Sequence Number given to ensure uniqueness of device records within subject records within a domain. May be any valid number. It should be unique within every subject/device combination.", "label": "Sequence Number", "name": "DXSEQ", "ordinal": "5", "role": "Identifier", "simpleDatatype": "Num"}, {"_links": {"modelClassVariable": {"href": "/mdr/sdtm/1-7/classes/GeneralObservations/variables/--GRPID", "title": "Group ID", "type": "Class Variable"}, "parentDataset": {"href": "/mdr/sdtmig/md-1-1/datasets/DX", "title": "Device Exposure", "type": "SDTM Dataset"}, "parentProduct": {"href": "/mdr/sdtmig/md-1-1", "title": "Study Data Tabulation Model Implementation Guide for Medical Devices (SDTMIG-MD) Version 1.1", "type": "Implementation Guide"}, "priorVersion": {"href": "/mdr/sdtmig/md-1-0/datasets/DX/variables/DXGRPID", "title": "Group ID", "type": "SDTM Dataset Variable"}, "rootItem": {"href": "/mdr/root/sdtmig/datasets/DX/variables/DXGRPID", "title": "Version-agnostic anchor resource for SDTMIG variable DX.DXGRPID", "type": "Root Data Element"}, "self": {"href": "/mdr/sdtmig/md-1-1/datasets/DX/variables/DXGRPID", "title": "Group ID", "type": "SDTM Dataset Variable"}}, "core": "Perm", "description": "Identifier that ties together a block of related records in a single domain for a subject. For example, if a device is inserted that delivers radiation, DXGRPID could be used to tie the records for the device and the radiation together for each course of therapy.", "label": "Group ID", "name": "DXGRPID", "ordinal": "6", "role": "Identifier", "simpleDatatype": "Char"}, {"_links": {"modelClassVariable": {"href": "/mdr/sdtm/1-7/classes/GeneralObservations/variables/--SPID", "title": "Sponsor-Defined Identifier", "type": "Class Variable"}, "parentDataset": {"href": "/mdr/sdtmig/md-1-1/datasets/DX", "title": "Device Exposure", "type": "SDTM Dataset"}, "parentProduct": {"href": "/mdr/sdtmig/md-1-1", "title": "Study Data Tabulation Model Implementation Guide for Medical Devices (SDTMIG-MD) Version 1.1", "type": "Implementation Guide"}, "priorVersion": {"href": "/mdr/sdtmig/md-1-0/datasets/DX/variables/DXSPID", "title": "Sponsor-Defined Identifier", "type": "SDTM Dataset Variable"}, "rootItem": {"href": "/mdr/root/sdtmig/datasets/DX/variables/DXSPID", "title": "Version-agnostic anchor resource for SDTMIG variable DX.DXSPID", "type": "Root Data Element"}, "self": {"href": "/mdr/sdtmig/md-1-1/datasets/DX/variables/DXSPID", "title": "Sponsor-Defined Identifier", "type": "SDTM Dataset Variable"}}, "core": "Perm", "description": "Sponsor-defined reference number. Examples: a number pre-printed on the CRF as an explicit line identifier or record identifier defined in the sponsor's operational database.", "label": "Sponsor-Defined Identifier", "name": "DXSPID", "ordinal": "7", "role": "Identifier", "simpleDatatype": "Char"}, {"_links": {"modelClassVariable": {"href": "/mdr/sdtm/1-7/classes/Interventions/variables/--TRT", "title": "Name of Treatment", "type": "Class Variable"}, "parentDataset": {"href": "/mdr/sdtmig/md-1-1/datasets/DX", "title": "Device Exposure", "type": "SDTM Dataset"}, "parentProduct": {"href": "/mdr/sdtmig/md-1-1", "title": "Study Data Tabulation Model Implementation Guide for Medical Devices (SDTMIG-MD) Version 1.1", "type": "Implementation Guide"}, "priorVersion": {"href": "/mdr/sdtmig/md-1-0/datasets/DX/variables/DXTRT", "title": "Name of Device Exposure or Output", "type": "SDTM Dataset Variable"}, "rootItem": {"href": "/mdr/root/sdtmig/datasets/DX/variables/DXTRT", "title": "Version-agnostic anchor resource for SDTMIG variable DX.DXTRT", "type": "Root Data Element"}, "self": {"href": "/mdr/sdtmig/md-1-1/datasets/DX/variables/DXTRT", "title": "Name of Device Exposure or Output", "type": "SDTM Dataset Variable"}}, "core": "Req", "description": "Name of the device or the exposure outputs that are delivered or administered via the device. This should match the definitions as described in the trial summary domain and/or the protocol. Example: \"coronary stent\", \"extracorporeal shock wave treatment\", \"hyaluronic acid\".", "label": "Name of Device Exposure or Output", "name": "DXTRT", "ordinal": "8", "role": "Topic", "simpleDatatype": "Char"}, {"_links": {"modelClassVariable": {"href": "/mdr/sdtm/1-7/classes/Interventions/variables/--CAT", "title": "Category", "type": "Class Variable"}, "parentDataset": {"href": "/mdr/sdtmig/md-1-1/datasets/DX", "title": "Device Exposure", "type": "SDTM Dataset"}, "parentProduct": {"href": "/mdr/sdtmig/md-1-1", "title": "Study Data Tabulation Model Implementation Guide for Medical Devices (SDTMIG-MD) Version 1.1", "type": "Implementation Guide"}, "priorVersion": {"href": "/mdr/sdtmig/md-1-0/datasets/DX/variables/DXCAT", "title": "Category for Device Exposure", "type": "SDTM Dataset Variable"}, "rootItem": {"href": "/mdr/root/sdtmig/datasets/DX/variables/DXCAT", "title": "Version-agnostic anchor resource for SDTMIG variable DX.DXCAT", "type": "Root Data Element"}, "self": {"href": "/mdr/sdtmig/md-1-1/datasets/DX/variables/DXCAT", "title": "Category for Device Exposure", "type": "SDTM Dataset Variable"}}, "core": "Perm", "description": "Used to define a category of device exposures. For example, for a subject who had radiation delivered through an implanted catheter, DXCAT could be used to group the radiation records versus the catheter records.", "label": "Category for Device Exposure", "name": "DXCAT", "ordinal": "9", "role": "Grouping Qualifier", "simpleDatatype": "Char"}, {"_links": {"modelClassVariable": {"href": "/mdr/sdtm/1-7/classes/Interventions/variables/--SCAT", "title": "Subcategory", "type": "Class Variable"}, "parentDataset": {"href": "/mdr/sdtmig/md-1-1/datasets/DX", "title": "Device Exposure", "type": "SDTM Dataset"}, "parentProduct": {"href": "/mdr/sdtmig/md-1-1", "title": "Study Data Tabulation Model Implementation Guide for Medical Devices (SDTMIG-MD) Version 1.1", "type": "Implementation Guide"}, "priorVersion": {"href": "/mdr/sdtmig/md-1-0/datasets/DX/variables/DXSCAT", "title": "Subcategory for Device Exposure", "type": "SDTM Dataset Variable"}, "rootItem": {"href": "/mdr/root/sdtmig/datasets/DX/variables/DXSCAT", "title": "Version-agnostic anchor resource for SDTMIG variable DX.DXSCAT", "type": "Root Data Element"}, "self": {"href": "/mdr/sdtmig/md-1-1/datasets/DX/variables/DXSCAT", "title": "Subcategory for Device Exposure", "type": "SDTM Dataset Variable"}}, "core": "Perm", "description": "A further categorization of device exposures. If DXCAT captures the radiation versus catheter records (see DXCAT), then DXSCAT might capture the type of catheter if more than one was used.", "label": "Subcategory for Device Exposure", "name": "DXSCAT", "ordinal": "10", "role": "Grouping Qualifier", "simpleDatatype": "Char"}, {"_links": {"modelClassVariable": {"href": "/mdr/sdtm/1-7/classes/Interventions/variables/--DOSE", "title": "Dose", "type": "Class Variable"}, "parentDataset": {"href": "/mdr/sdtmig/md-1-1/datasets/DX", "title": "Device Exposure", "type": "SDTM Dataset"}, "parentProduct": {"href": "/mdr/sdtmig/md-1-1", "title": "Study Data Tabulation Model Implementation Guide for Medical Devices (SDTMIG-MD) Version 1.1", "type": "Implementation Guide"}, "priorVersion": {"href": "/mdr/sdtmig/md-1-0/datasets/DX/variables/DXDOSE", "title": "Exposure per Administration", "type": "SDTM Dataset Variable"}, "rootItem": {"href": "/mdr/root/sdtmig/datasets/DX/variables/DXDOSE", "title": "Version-agnostic anchor resource for SDTMIG variable DX.DXDOSE", "type": "Root Data Element"}, "self": {"href": "/mdr/sdtmig/md-1-1/datasets/DX/variables/DXDOSE", "title": "Exposure per Administration", "type": "SDTM Dataset Variable"}}, "core": "Perm", "description": "Amount of DXTRT administered/delivered per administration. Dose if captured as a numeric value. Dose should only appear once in DXDOSE, DXDOSTXT, or DXDOSTOT.", "label": "Exposure per Administration", "name": "DXDOSE", "ordinal": "11", "role": "Record Qualifier", "simpleDatatype": "Num"}, {"_links": {"modelClassVariable": {"href": "/mdr/sdtm/1-7/classes/Interventions/variables/--DOSTXT", "title": "Dose Description", "type": "Class Variable"}, "parentDataset": {"href": "/mdr/sdtmig/md-1-1/datasets/DX", "title": "Device Exposure", "type": "SDTM Dataset"}, "parentProduct": {"href": "/mdr/sdtmig/md-1-1", "title": "Study Data Tabulation Model Implementation Guide for Medical Devices (SDTMIG-MD) Version 1.1", "type": "Implementation Guide"}, "priorVersion": {"href": "/mdr/sdtmig/md-1-0/datasets/DX/variables/DXDOSTXT", "title": "Device Exposure Description", "type": "SDTM Dataset Variable"}, "rootItem": {"href": "/mdr/root/sdtmig/datasets/DX/variables/DXDOSTXT", "title": "Version-agnostic anchor resource for SDTMIG variable DX.DXDOSTXT", "type": "Root Data Element"}, "self": {"href": "/mdr/sdtmig/md-1-1/datasets/DX/variables/DXDOSTXT", "title": "Device Exposure Description", "type": "SDTM Dataset Variable"}}, "core": "Perm", "description": "Exposure amount or a range of exposure information collected in text form. Units may be stored in DXDOSU. Example: 200-400, 15-20. Dose should only appear once in DXDOSE, DXDOSTXT, or DXDOSTOT.", "label": "Device Exposure Description", "name": "DXDOSTXT", "ordinal": "12", "role": "Record Qualifier", "simpleDatatype": "Char"}, {"_links": {"codelist": [{"href": "/mdr/root/ct/sdtmct/codelists/C71620", "title": "Version-agnostic anchor resource for codelist C71620", "type": "Root Value Domain"}], "modelClassVariable": {"href": "/mdr/sdtm/1-7/classes/Interventions/variables/--DOSU", "title": "Dose Units", "type": "Class Variable"}, "parentDataset": {"href": "/mdr/sdtmig/md-1-1/datasets/DX", "title": "Device Exposure", "type": "SDTM Dataset"}, "parentProduct": {"href": "/mdr/sdtmig/md-1-1", "title": "Study Data Tabulation Model Implementation Guide for Medical Devices (SDTMIG-MD) Version 1.1", "type": "Implementation Guide"}, "priorVersion": {"href": "/mdr/sdtmig/md-1-0/datasets/DX/variables/DXDOSU", "title": "Device Exposure Units", "type": "SDTM Dataset Variable"}, "rootItem": {"href": "/mdr/root/sdtmig/datasets/DX/variables/DXDOSU", "title": "Version-agnostic anchor resource for SDTMIG variable DX.DXDOSU", "type": "Root Data Element"}, "self": {"href": "/mdr/sdtmig/md-1-1/datasets/DX/variables/DXDOSU", "title": "Device Exposure Units", "type": "SDTM Dataset Variable"}}, "core": "Perm", "description": "Units for DXDOSE, DXDOSTXT, and DXDOSTOT. Examples: \"pulses\", \"ml\".", "label": "Device Exposure Units", "name": "DXDOSU", "ordinal": "13", "role": "Variable Qualifier", "simpleDatatype": "Char"}, {"_links": {"codelist": [{"href": "/mdr/root/ct/sdtmct/codelists/C71113", "title": "Version-agnostic anchor resource for codelist C71113", "type": "Root Value Domain"}], "modelClassVariable": {"href": "/mdr/sdtm/1-7/classes/Interventions/variables/--DOSFRQ", "title": "Dosing Frequency per Interval", "type": "Class Variable"}, "parentDataset": {"href": "/mdr/sdtmig/md-1-1/datasets/DX", "title": "Device Exposure", "type": "SDTM Dataset"}, "parentProduct": {"href": "/mdr/sdtmig/md-1-1", "title": "Study Data Tabulation Model Implementation Guide for Medical Devices (SDTMIG-MD) Version 1.1", "type": "Implementation Guide"}, "priorVersion": {"href": "/mdr/sdtmig/md-1-0/datasets/DX/variables/DXDOSFRQ", "title": "Device Exposure Frequency per Interval", "type": "SDTM Dataset Variable"}, "rootItem": {"href": "/mdr/root/sdtmig/datasets/DX/variables/DXDOSFRQ", "title": "Version-agnostic anchor resource for SDTMIG variable DX.DXDOSFRQ", "type": "Root Data Element"}, "self": {"href": "/mdr/sdtmig/md-1-1/datasets/DX/variables/DXDOSFRQ", "title": "Device Exposure Frequency per Interval", "type": "SDTM Dataset Variable"}}, "core": "Perm", "description": "Exposure frequency per interval. Usually expressed as the number of repeated administrations of DXDOSE within a specific time period. Examples: \"CONTINUOUS\", \"PRN\", \"Q2M\" (every 2 months).", "label": "Device Exposure Frequency per Interval", "name": "DXDOSFRQ", "ordinal": "14", "role": "Variable Qualifier", "simpleDatatype": "Char"}, {"_links": {"modelClassVariable": {"href": "/mdr/sdtm/1-7/classes/Interventions/variables/--DOSTOT", "title": "Total Daily Dose", "type": "Class Variable"}, "parentDataset": {"href": "/mdr/sdtmig/md-1-1/datasets/DX", "title": "Device Exposure", "type": "SDTM Dataset"}, "parentProduct": {"href": "/mdr/sdtmig/md-1-1", "title": "Study Data Tabulation Model Implementation Guide for Medical Devices (SDTMIG-MD) Version 1.1", "type": "Implementation Guide"}, "priorVersion": {"href": "/mdr/sdtmig/md-1-0/datasets/DX/variables/DXDOSTOT", "title": "Total Daily Device Exposure", "type": "SDTM Dataset Variable"}, "rootItem": {"href": "/mdr/root/sdtmig/datasets/DX/variables/DXDOSTOT", "title": "Version-agnostic anchor resource for SDTMIG variable DX.DXDOSTOT", "type": "Root Data Element"}, "self": {"href": "/mdr/sdtmig/md-1-1/datasets/DX/variables/DXDOSTOT", "title": "Total Daily Device Exposure", "type": "SDTM Dataset Variable"}}, "core": "Perm", "description": "Total daily exposure of DXTRT using the units in DXDOSU. Total exposure over a period other than day could be recorded in a separate Supplemental Qualifier variable.", "label": "Total Daily Device Exposure", "name": "DXDOSTOT", "ordinal": "15", "role": "Record Qualifier", "simpleDatatype": "Num"}, {"_links": {"modelClassVariable": {"href": "/mdr/sdtm/1-7/classes/Interventions/variables/--DOSRGM", "title": "Intended Dose Regimen", "type": "Class Variable"}, "parentDataset": {"href": "/mdr/sdtmig/md-1-1/datasets/DX", "title": "Device Exposure", "type": "SDTM Dataset"}, "parentProduct": {"href": "/mdr/sdtmig/md-1-1", "title": "Study Data Tabulation Model Implementation Guide for Medical Devices (SDTMIG-MD) Version 1.1", "type": "Implementation Guide"}, "priorVersion": {"href": "/mdr/sdtmig/md-1-0/datasets/DX/variables/DXDOSRGM", "title": "Intended Device Exposure Regimen", "type": "SDTM Dataset Variable"}, "rootItem": {"href": "/mdr/root/sdtmig/datasets/DX/variables/DXDOSRGM", "title": "Version-agnostic anchor resource for SDTMIG variable DX.DXDOSRGM", "type": "Root Data Element"}, "self": {"href": "/mdr/sdtmig/md-1-1/datasets/DX/variables/DXDOSRGM", "title": "Intended Device Exposure Regimen", "type": "SDTM Dataset Variable"}}, "core": "Perm", "description": "Text description of the (intended) schedule or regimen for the Intervention. Examples: \"TWO WEEKS ON, TWO WEEKS OFF\".", "label": "Intended Device Exposure Regimen", "name": "DXDOSRGM", "ordinal": "16", "role": "Variable Qualifier", "simpleDatatype": "Char"}, {"_links": {"codelist": [{"href": "/mdr/root/ct/sdtmct/codelists/C66729", "title": "Version-agnostic anchor resource for codelist C66729", "type": "Root Value Domain"}], "modelClassVariable": {"href": "/mdr/sdtm/1-7/classes/Interventions/variables/--ROUTE", "title": "Route of Administration", "type": "Class Variable"}, "parentDataset": {"href": "/mdr/sdtmig/md-1-1/datasets/DX", "title": "Device Exposure", "type": "SDTM Dataset"}, "parentProduct": {"href": "/mdr/sdtmig/md-1-1", "title": "Study Data Tabulation Model Implementation Guide for Medical Devices (SDTMIG-MD) Version 1.1", "type": "Implementation Guide"}, "priorVersion": {"href": "/mdr/sdtmig/md-1-0/datasets/DX/variables/DXROUTE", "title": "Route of Administration", "type": "SDTM Dataset Variable"}, "rootItem": {"href": "/mdr/root/sdtmig/datasets/DX/variables/DXROUTE", "title": "Version-agnostic anchor resource for SDTMIG variable DX.DXROUTE", "type": "Root Data Element"}, "self": {"href": "/mdr/sdtmig/md-1-1/datasets/DX/variables/DXROUTE", "title": "Route of Administration", "type": "SDTM Dataset Variable"}}, "core": "Perm", "description": "Route of administration for DXTRT. Examples: \"EXTRACORPOREAL\", \"INTRA-ARTICULAR, HEMODIALYSIS\".", "label": "Route of Administration", "name": "DXROUTE", "ordinal": "17", "role": "Variable Qualifier", "simpleDatatype": "Char"}, {"_links": {"modelClassVariable": {"href": "/mdr/sdtm/1-7/classes/Interventions/variables/--LOC", "title": "Location of Dose Administration", "type": "Class Variable"}, "parentDataset": {"href": "/mdr/sdtmig/md-1-1/datasets/DX", "title": "Device Exposure", "type": "SDTM Dataset"}, "parentProduct": {"href": "/mdr/sdtmig/md-1-1", "title": "Study Data Tabulation Model Implementation Guide for Medical Devices (SDTMIG-MD) Version 1.1", "type": "Implementation Guide"}, "priorVersion": {"href": "/mdr/sdtmig/md-1-0/datasets/DX/variables/DXLOC", "title": "Location of Device Exposure", "type": "SDTM Dataset Variable"}, "rootItem": {"href": "/mdr/root/sdtmig/datasets/DX/variables/DXLOC", "title": "Version-agnostic anchor resource for SDTMIG variable DX.DXLOC", "type": "Root Data Element"}, "self": {"href": "/mdr/sdtmig/md-1-1/datasets/DX/variables/DXLOC", "title": "Location of Device Exposure", "type": "SDTM Dataset Variable"}}, "core": "Perm", "description": "Anatomic location of exposure. Examples: \"Knee\", \"Eye\".", "label": "Location of Device Exposure", "name": "DXLOC", "ordinal": "18", "role": "Record Qualifier", "simpleDatatype": "Char"}, {"_links": {"modelClassVariable": {"href": "/mdr/sdtm/1-7/classes/Interventions/variables/--LAT", "title": "Laterality", "type": "Class Variable"}, "parentDataset": {"href": "/mdr/sdtmig/md-1-1/datasets/DX", "title": "Device Exposure", "type": "SDTM Dataset"}, "parentProduct": {"href": "/mdr/sdtmig/md-1-1", "title": "Study Data Tabulation Model Implementation Guide for Medical Devices (SDTMIG-MD) Version 1.1", "type": "Implementation Guide"}, "priorVersion": {"href": "/mdr/sdtmig/md-1-0/datasets/DX/variables/DXLAT", "title": "Laterality of Device Exposure", "type": "SDTM Dataset Variable"}, "rootItem": {"href": "/mdr/root/sdtmig/datasets/DX/variables/DXLAT", "title": "Version-agnostic anchor resource for SDTMIG variable DX.DXLAT", "type": "Root Data Element"}, "self": {"href": "/mdr/sdtmig/md-1-1/datasets/DX/variables/DXLAT", "title": "Laterality of Device Exposure", "type": "SDTM Dataset Variable"}}, "core": "Perm", "description": "Qualifier for anatomical location further detailing laterality. Examples: \"RIGHT\", \"LEFT\", \"BILATERAL\".", "label": "Laterality of Device Exposure", "name": "DXLAT", "ordinal": "19", "role": "Variable Qualifier", "simpleDatatype": "Char"}, {"_links": {"modelClassVariable": {"href": "/mdr/sdtm/1-7/classes/Interventions/variables/--ADJ", "title": "Reason for Dose Adjustment", "type": "Class Variable"}, "parentDataset": {"href": "/mdr/sdtmig/md-1-1/datasets/DX", "title": "Device Exposure", "type": "SDTM Dataset"}, "parentProduct": {"href": "/mdr/sdtmig/md-1-1", "title": "Study Data Tabulation Model Implementation Guide for Medical Devices (SDTMIG-MD) Version 1.1", "type": "Implementation Guide"}, "priorVersion": {"href": "/mdr/sdtmig/md-1-0/datasets/DX/variables/DXADJ", "title": "Reason for Exposure Adjustment", "type": "SDTM Dataset Variable"}, "rootItem": {"href": "/mdr/root/sdtmig/datasets/DX/variables/DXADJ", "title": "Version-agnostic anchor resource for SDTMIG variable DX.DXADJ", "type": "Root Data Element"}, "self": {"href": "/mdr/sdtmig/md-1-1/datasets/DX/variables/DXADJ", "title": "Reason for Exposure Adjustment", "type": "SDTM Dataset Variable"}}, "core": "Perm", "description": "Describes reason why the exposure was adjusted from protocol-specified or expected exposure levels. Example: \"PAIN\".", "label": "Reason for Exposure Adjustment", "name": "DXADJ", "ordinal": "20", "role": "Record Qualifier", "simpleDatatype": "Char"}, {"_links": {"modelClassVariable": {"href": "/mdr/sdtm/1-7/classes/GeneralObservations/variables/--STDTC", "title": "Start Date/Time of Observation", "type": "Class Variable"}, "parentDataset": {"href": "/mdr/sdtmig/md-1-1/datasets/DX", "title": "Device Exposure", "type": "SDTM Dataset"}, "parentProduct": {"href": "/mdr/sdtmig/md-1-1", "title": "Study Data Tabulation Model Implementation Guide for Medical Devices (SDTMIG-MD) Version 1.1", "type": "Implementation Guide"}, "priorVersion": {"href": "/mdr/sdtmig/md-1-0/datasets/DX/variables/DXSTDTC", "title": "Start Date/Time of Device Exposure", "type": "SDTM Dataset Variable"}, "rootItem": {"href": "/mdr/root/sdtmig/datasets/DX/variables/DXSTDTC", "title": "Version-agnostic anchor resource for SDTMIG variable DX.DXSTDTC", "type": "Root Data Element"}, "self": {"href": "/mdr/sdtmig/md-1-1/datasets/DX/variables/DXSTDTC", "title": "Start Date/Time of Device Exposure", "type": "SDTM Dataset Variable"}}, "core": "Exp", "describedValueDomain": "ISO 8601", "description": "Start date and time of exposure. Defined by the sponsor.", "label": "Start Date/Time of Device Exposure", "name": "DXSTDTC", "ordinal": "21", "role": "Timing", "simpleDatatype": "Char"}, {"_links": {"modelClassVariable": {"href": "/mdr/sdtm/1-7/classes/GeneralObservations/variables/--ENDTC", "title": "End Date/Time of Observation", "type": "Class Variable"}, "parentDataset": {"href": "/mdr/sdtmig/md-1-1/datasets/DX", "title": "Device Exposure", "type": "SDTM Dataset"}, "parentProduct": {"href": "/mdr/sdtmig/md-1-1", "title": "Study Data Tabulation Model Implementation Guide for Medical Devices (SDTMIG-MD) Version 1.1", "type": "Implementation Guide"}, "priorVersion": {"href": "/mdr/sdtmig/md-1-0/datasets/DX/variables/DXENDTC", "title": "End Date/Time of Device Exposure", "type": "SDTM Dataset Variable"}, "rootItem": {"href": "/mdr/root/sdtmig/datasets/DX/variables/DXENDTC", "title": "Version-agnostic anchor resource for SDTMIG variable DX.DXENDTC", "type": "Root Data Element"}, "self": {"href": "/mdr/sdtmig/md-1-1/datasets/DX/variables/DXENDTC", "title": "End Date/Time of Device Exposure", "type": "SDTM Dataset Variable"}}, "core": "Perm", "describedValueDomain": "ISO 8601", "description": "End date and time of exposure. Defined by the sponsor.", "label": "End Date/Time of Device Exposure", "name": "DXENDTC", "ordinal": "22", "role": "Timing", "simpleDatatype": "Char"}, {"_links": {"modelClassVariable": {"href": "/mdr/sdtm/1-7/classes/GeneralObservations/variables/--STDY", "title": "Study Day of Start of Observation", "type": "Class Variable"}, "parentDataset": {"href": "/mdr/sdtmig/md-1-1/datasets/DX", "title": "Device Exposure", "type": "SDTM Dataset"}, "parentProduct": {"href": "/mdr/sdtmig/md-1-1", "title": "Study Data Tabulation Model Implementation Guide for Medical Devices (SDTMIG-MD) Version 1.1", "type": "Implementation Guide"}, "priorVersion": {"href": "/mdr/sdtmig/md-1-0/datasets/DX/variables/DXSTDY", "title": "Study Day of Start of Device Exposure", "type": "SDTM Dataset Variable"}, "rootItem": {"href": "/mdr/root/sdtmig/datasets/DX/variables/DXSTDY", "title": "Version-agnostic anchor resource for SDTMIG variable DX.DXSTDY", "type": "Root Data Element"}, "self": {"href": "/mdr/sdtmig/md-1-1/datasets/DX/variables/DXSTDY", "title": "Study Day of Start of Device Exposure", "type": "SDTM Dataset Variable"}}, "core": "Perm", "description": "Study day of start of exposure relative to the sponsor-defined RFSTDTC.", "label": "Study Day of Start of Device Exposure", "name": "DXSTDY", "ordinal": "23", "role": "Timing", "simpleDatatype": "Num"}, {"_links": {"modelClassVariable": {"href": "/mdr/sdtm/1-7/classes/GeneralObservations/variables/--ENDY", "title": "Study Day of End of Observation", "type": "Class Variable"}, "parentDataset": {"href": "/mdr/sdtmig/md-1-1/datasets/DX", "title": "Device Exposure", "type": "SDTM Dataset"}, "parentProduct": {"href": "/mdr/sdtmig/md-1-1", "title": "Study Data Tabulation Model Implementation Guide for Medical Devices (SDTMIG-MD) Version 1.1", "type": "Implementation Guide"}, "priorVersion": {"href": "/mdr/sdtmig/md-1-0/datasets/DX/variables/DXENDY", "title": "Study Day of End of Device Exposure", "type": "SDTM Dataset Variable"}, "rootItem": {"href": "/mdr/root/sdtmig/datasets/DX/variables/DXENDY", "title": "Version-agnostic anchor resource for SDTMIG variable DX.DXENDY", "type": "Root Data Element"}, "self": {"href": "/mdr/sdtmig/md-1-1/datasets/DX/variables/DXENDY", "title": "Study Day of End of Device Exposure", "type": "SDTM Dataset Variable"}}, "core": "Perm", "description": "Study day of end of exposure relative to the sponsor-defined RFSTDTC.", "label": "Study Day of End of Device Exposure", "name": "DXENDY", "ordinal": "24", "role": "Timing", "simpleDatatype": "Num"}, {"_links": {"modelClassVariable": {"href": "/mdr/sdtm/1-7/classes/GeneralObservations/variables/--DUR", "title": "Duration", "type": "Class Variable"}, "parentDataset": {"href": "/mdr/sdtmig/md-1-1/datasets/DX", "title": "Device Exposure", "type": "SDTM Dataset"}, "parentProduct": {"href": "/mdr/sdtmig/md-1-1", "title": "Study Data Tabulation Model Implementation Guide for Medical Devices (SDTMIG-MD) Version 1.1", "type": "Implementation Guide"}, "priorVersion": {"href": "/mdr/sdtmig/md-1-0/datasets/DX/variables/DXDUR", "title": "Duration of Device Exposure", "type": "SDTM Dataset Variable"}, "rootItem": {"href": "/mdr/root/sdtmig/datasets/DX/variables/DXDUR", "title": "Version-agnostic anchor resource for SDTMIG variable DX.DXDUR", "type": "Root Data Element"}, "self": {"href": "/mdr/sdtmig/md-1-1/datasets/DX/variables/DXDUR", "title": "Duration of Device Exposure", "type": "SDTM Dataset Variable"}}, "core": "Perm", "describedValueDomain": "ISO 8601", "description": "Collected duration for a treatment episode. Used only if collected on the CRF and not derived from start and end date/times.", "label": "Duration of Device Exposure", "name": "DXDUR", "ordinal": "25", "role": "Timing", "simpleDatatype": "Char"}], "description": "An interventions domain that contains a subject's exposure to a medical device under study. (Source: CDISC Controlled Terminology, DOMAIN, C102617, 2018-06-29)", "label": "Device Exposure", "name": "DX", "ordinal": "3"}
