{"_links": {"parentProduct": {"href": "/mdr/sdtm/1-5", "title": "Study Data Tabulation Model Version 1.5", "type": "Foundational Model"}, "priorVersion": {"href": "/mdr/sdtm/1-4/classes/TrialDesign", "title": "Trial Design Model", "type": "Class"}, "self": {"href": "/mdr/sdtm/1-5/classes/TrialDesign", "title": "Trial Design Model", "type": "Class"}}, "datasets": [{"_links": {"parentClass": {"href": "/mdr/sdtm/1-5/classes/TrialDesign", "title": "Trial Design Model", "type": "Class"}, "parentProduct": {"href": "/mdr/sdtm/1-5", "title": "Study Data Tabulation Model Version 1.5", "type": "Foundational Model"}, "priorVersion": {"href": "/mdr/sdtm/1-4/datasets/TE", "title": "Trial Elements", "type": "SDTM Dataset"}, "self": {"href": "/mdr/sdtm/1-5/datasets/TE", "title": "Trial Elements", "type": "SDTM Dataset"}}, "datasetStructure": "One Record per Trial Element", "datasetVariables": [{"_links": {"parentDataset": {"href": "/mdr/sdtm/1-5/datasets/TE", "title": "Trial Elements", "type": "SDTM Dataset"}, "parentProduct": {"href": "/mdr/sdtm/1-5", "title": "Study Data Tabulation Model Version 1.5", "type": "Foundational Model"}, "priorVersion": {"href": "/mdr/sdtm/1-4/datasets/TE/variables/STUDYID", "title": "Study Identifier", "type": "SDTM Dataset Variable"}, "rootItem": {"href": "/mdr/root/sdtm/datasets/TE/variables/STUDYID", "title": "Version-agnostic anchor resource for SDTM variable TE.STUDYID", "type": "Root Data Element"}, "self": {"href": "/mdr/sdtm/1-5/datasets/TE/variables/STUDYID", "title": "Study Identifier", "type": "SDTM Dataset Variable"}}, "description": "Unique identifier for a study.", "label": "Study Identifier", "name": "STUDYID", "ordinal": "1", "simpleDatatype": "Char"}, {"_links": {"parentDataset": {"href": "/mdr/sdtm/1-5/datasets/TE", "title": "Trial Elements", "type": "SDTM Dataset"}, "parentProduct": {"href": "/mdr/sdtm/1-5", "title": "Study Data Tabulation Model Version 1.5", "type": "Foundational Model"}, "priorVersion": {"href": "/mdr/sdtm/1-4/datasets/TE/variables/DOMAIN", "title": "Domain Abbreviation", "type": "SDTM Dataset Variable"}, "rootItem": {"href": "/mdr/root/sdtm/datasets/TE/variables/DOMAIN", "title": "Version-agnostic anchor resource for SDTM variable TE.DOMAIN", "type": "Root Data Element"}, "self": {"href": "/mdr/sdtm/1-5/datasets/TE/variables/DOMAIN", "title": "Domain Abbreviation", "type": "SDTM Dataset Variable"}}, "description": "Two-character abbreviation for the domain, which must be TE.", "label": "Domain Abbreviation", "name": "DOMAIN", "ordinal": "2", "simpleDatatype": "Char"}, {"_links": {"parentDataset": {"href": "/mdr/sdtm/1-5/datasets/TE", "title": "Trial Elements", "type": "SDTM Dataset"}, "parentProduct": {"href": "/mdr/sdtm/1-5", "title": "Study Data Tabulation Model Version 1.5", "type": "Foundational Model"}, "priorVersion": {"href": "/mdr/sdtm/1-4/datasets/TE/variables/ETCD", "title": "Element Code", "type": "SDTM Dataset Variable"}, "rootItem": {"href": "/mdr/root/sdtm/datasets/TE/variables/ETCD", "title": "Version-agnostic anchor resource for SDTM variable TE.ETCD", "type": "Root Data Element"}, "self": {"href": "/mdr/sdtm/1-5/datasets/TE/variables/ETCD", "title": "Element Code", "type": "SDTM Dataset Variable"}}, "description": "ETCD (the companion to ELEMENT) is limited to 8 characters and does not have special character restrictions. These values should be short for ease of use in programming, but it is not expected that ETCD will need to serve as a variable name.", "label": "Element Code", "name": "ETCD", "ordinal": "3", "simpleDatatype": "Char"}, {"_links": {"parentDataset": {"href": "/mdr/sdtm/1-5/datasets/TE", "title": "Trial Elements", "type": "SDTM Dataset"}, "parentProduct": {"href": "/mdr/sdtm/1-5", "title": "Study Data Tabulation Model Version 1.5", "type": "Foundational Model"}, "priorVersion": {"href": "/mdr/sdtm/1-4/datasets/TE/variables/ELEMENT", "title": "Description of Element", "type": "SDTM Dataset Variable"}, "rootItem": {"href": "/mdr/root/sdtm/datasets/TE/variables/ELEMENT", "title": "Version-agnostic anchor resource for SDTM variable TE.ELEMENT", "type": "Root Data Element"}, "self": {"href": "/mdr/sdtm/1-5/datasets/TE/variables/ELEMENT", "title": "Description of Element", "type": "SDTM Dataset Variable"}}, "description": "The name of the Element.", "label": "Description of Element", "name": "ELEMENT", "ordinal": "4", "simpleDatatype": "Char"}, {"_links": {"parentDataset": {"href": "/mdr/sdtm/1-5/datasets/TE", "title": "Trial Elements", "type": "SDTM Dataset"}, "parentProduct": {"href": "/mdr/sdtm/1-5", "title": "Study Data Tabulation Model Version 1.5", "type": "Foundational Model"}, "priorVersion": {"href": "/mdr/sdtm/1-4/datasets/TE/variables/TESTRL", "title": "Rule for Start of Element", "type": "SDTM Dataset Variable"}, "rootItem": {"href": "/mdr/root/sdtm/datasets/TE/variables/TESTRL", "title": "Version-agnostic anchor resource for SDTM variable TE.TESTRL", "type": "Root Data Element"}, "self": {"href": "/mdr/sdtm/1-5/datasets/TE/variables/TESTRL", "title": "Rule for Start of Element", "type": "SDTM Dataset Variable"}}, "description": "Expresses the rule for beginning the Element.", "label": "Rule for Start of Element", "name": "TESTRL", "ordinal": "5", "simpleDatatype": "Char"}, {"_links": {"parentDataset": {"href": "/mdr/sdtm/1-5/datasets/TE", "title": "Trial Elements", "type": "SDTM Dataset"}, "parentProduct": {"href": "/mdr/sdtm/1-5", "title": "Study Data Tabulation Model Version 1.5", "type": "Foundational Model"}, "priorVersion": {"href": "/mdr/sdtm/1-4/datasets/TE/variables/TEENRL", "title": "Rule for End of Element", "type": "SDTM Dataset Variable"}, "rootItem": {"href": "/mdr/root/sdtm/datasets/TE/variables/TEENRL", "title": "Version-agnostic anchor resource for SDTM variable TE.TEENRL", "type": "Root Data Element"}, "self": {"href": "/mdr/sdtm/1-5/datasets/TE/variables/TEENRL", "title": "Rule for End of Element", "type": "SDTM Dataset Variable"}}, "description": "Expresses the rule for ending the Element. Either TEENRL or TEDUR must be present for each Element.", "label": "Rule for End of Element", "name": "TEENRL", "ordinal": "6", "simpleDatatype": "Char"}, {"_links": {"parentDataset": {"href": "/mdr/sdtm/1-5/datasets/TE", "title": "Trial Elements", "type": "SDTM Dataset"}, "parentProduct": {"href": "/mdr/sdtm/1-5", "title": "Study Data Tabulation Model Version 1.5", "type": "Foundational Model"}, "priorVersion": {"href": "/mdr/sdtm/1-4/datasets/TE/variables/TEDUR", "title": "Planned Duration of Element", "type": "SDTM Dataset Variable"}, "rootItem": {"href": "/mdr/root/sdtm/datasets/TE/variables/TEDUR", "title": "Version-agnostic anchor resource for SDTM variable TE.TEDUR", "type": "Root Data Element"}, "self": {"href": "/mdr/sdtm/1-5/datasets/TE/variables/TEDUR", "title": "Planned Duration of Element", "type": "SDTM Dataset Variable"}}, "description": "Planned Duration of Element in ISO 8601 format. Used when the rule for ending the Element is applied after a fixed duration.", "label": "Planned Duration of Element", "name": "TEDUR", "ordinal": "7", "simpleDatatype": "Char"}], "description": "A trial design domain that contains the element code that is unique for each element, the element description, and the rules for starting and ending an element. (Source: CDISC Controlled Terminology, DOMAIN, C49619, 2018-06-29)", "label": "Trial Elements", "name": "TE", "ordinal": "6"}, {"_links": {"parentClass": {"href": "/mdr/sdtm/1-5/classes/TrialDesign", "title": "Trial Design Model", "type": "Class"}, "parentProduct": {"href": "/mdr/sdtm/1-5", "title": "Study Data Tabulation Model Version 1.5", "type": "Foundational Model"}, "priorVersion": {"href": "/mdr/sdtm/1-4/datasets/TA", "title": "Trial Arms", "type": "SDTM Dataset"}, "self": {"href": "/mdr/sdtm/1-5/datasets/TA", "title": "Trial Arms", "type": "SDTM Dataset"}}, "datasetStructure": "One Record per Planned Element per Arm", "datasetVariables": [{"_links": {"parentDataset": {"href": "/mdr/sdtm/1-5/datasets/TA", "title": "Trial Arms", "type": "SDTM Dataset"}, "parentProduct": {"href": "/mdr/sdtm/1-5", "title": "Study Data Tabulation Model Version 1.5", "type": "Foundational Model"}, "priorVersion": {"href": "/mdr/sdtm/1-4/datasets/TA/variables/STUDYID", "title": "Study Identifier", "type": "SDTM Dataset Variable"}, "rootItem": {"href": "/mdr/root/sdtm/datasets/TA/variables/STUDYID", "title": "Version-agnostic anchor resource for SDTM variable TA.STUDYID", "type": "Root Data Element"}, "self": {"href": "/mdr/sdtm/1-5/datasets/TA/variables/STUDYID", "title": "Study Identifier", "type": "SDTM Dataset Variable"}}, "description": "Unique identifier for a study.", "label": "Study Identifier", "name": "STUDYID", "ordinal": "1", "simpleDatatype": "Char"}, {"_links": {"parentDataset": {"href": "/mdr/sdtm/1-5/datasets/TA", "title": "Trial Arms", "type": "SDTM Dataset"}, "parentProduct": {"href": "/mdr/sdtm/1-5", "title": "Study Data Tabulation Model Version 1.5", "type": "Foundational Model"}, "priorVersion": {"href": "/mdr/sdtm/1-4/datasets/TA/variables/DOMAIN", "title": "Domain Abbreviation", "type": "SDTM Dataset Variable"}, "rootItem": {"href": "/mdr/root/sdtm/datasets/TA/variables/DOMAIN", "title": "Version-agnostic anchor resource for SDTM variable TA.DOMAIN", "type": "Root Data Element"}, "self": {"href": "/mdr/sdtm/1-5/datasets/TA/variables/DOMAIN", "title": "Domain Abbreviation", "type": "SDTM Dataset Variable"}}, "description": "Two-character abbreviation for the domain, which must be TA.", "label": "Domain Abbreviation", "name": "DOMAIN", "ordinal": "2", "simpleDatatype": "Char"}, {"_links": {"parentDataset": {"href": "/mdr/sdtm/1-5/datasets/TA", "title": "Trial Arms", "type": "SDTM Dataset"}, "parentProduct": {"href": "/mdr/sdtm/1-5", "title": "Study Data Tabulation Model Version 1.5", "type": "Foundational Model"}, "priorVersion": {"href": "/mdr/sdtm/1-4/datasets/TA/variables/ARMCD", "title": "Planned Arm Code", "type": "SDTM Dataset Variable"}, "rootItem": {"href": "/mdr/root/sdtm/datasets/TA/variables/ARMCD", "title": "Version-agnostic anchor resource for SDTM variable TA.ARMCD", "type": "Root Data Element"}, "self": {"href": "/mdr/sdtm/1-5/datasets/TA/variables/ARMCD", "title": "Planned Arm Code", "type": "SDTM Dataset Variable"}}, "description": "ARMCD is limited to 20 characters and does not have special character restrictions. If the timing of visits for a trial does not depend on which ARM a subject is in, then ARMCD should be null.", "label": "Planned Arm Code", "name": "ARMCD", "ordinal": "3", "simpleDatatype": "Char"}, {"_links": {"parentDataset": {"href": "/mdr/sdtm/1-5/datasets/TA", "title": "Trial Arms", "type": "SDTM Dataset"}, "parentProduct": {"href": "/mdr/sdtm/1-5", "title": "Study Data Tabulation Model Version 1.5", "type": "Foundational Model"}, "priorVersion": {"href": "/mdr/sdtm/1-4/datasets/TA/variables/ARM", "title": "Description of Planned Arm", "type": "SDTM Dataset Variable"}, "rootItem": {"href": "/mdr/root/sdtm/datasets/TA/variables/ARM", "title": "Version-agnostic anchor resource for SDTM variable TA.ARM", "type": "Root Data Element"}, "self": {"href": "/mdr/sdtm/1-5/datasets/TA/variables/ARM", "title": "Description of Planned Arm", "type": "SDTM Dataset Variable"}}, "description": "Name given to Arm or treatment group.", "label": "Description of Planned Arm", "name": "ARM", "ordinal": "4", "simpleDatatype": "Char"}, {"_links": {"parentDataset": {"href": "/mdr/sdtm/1-5/datasets/TA", "title": "Trial Arms", "type": "SDTM Dataset"}, "parentProduct": {"href": "/mdr/sdtm/1-5", "title": "Study Data Tabulation Model Version 1.5", "type": "Foundational Model"}, "priorVersion": {"href": "/mdr/sdtm/1-4/datasets/TA/variables/TAETORD", "title": "Planned Order of Element within Arm", "type": "SDTM Dataset Variable"}, "rootItem": {"href": "/mdr/root/sdtm/datasets/TA/variables/TAETORD", "title": "Version-agnostic anchor resource for SDTM variable TA.TAETORD", "type": "Root Data Element"}, "self": {"href": "/mdr/sdtm/1-5/datasets/TA/variables/TAETORD", "title": "Planned Order of Element within Arm", "type": "SDTM Dataset Variable"}}, "description": "Number that gives the order of the Element within the Arm.", "label": "Planned Order of Element within Arm", "name": "TAETORD", "ordinal": "5", "simpleDatatype": "Num"}, {"_links": {"parentDataset": {"href": "/mdr/sdtm/1-5/datasets/TA", "title": "Trial Arms", "type": "SDTM Dataset"}, "parentProduct": {"href": "/mdr/sdtm/1-5", "title": "Study Data Tabulation Model Version 1.5", "type": "Foundational Model"}, "priorVersion": {"href": "/mdr/sdtm/1-4/datasets/TA/variables/ETCD", "title": "Element Code", "type": "SDTM Dataset Variable"}, "rootItem": {"href": "/mdr/root/sdtm/datasets/TA/variables/ETCD", "title": "Version-agnostic anchor resource for SDTM variable TA.ETCD", "type": "Root Data Element"}, "self": {"href": "/mdr/sdtm/1-5/datasets/TA/variables/ETCD", "title": "Element Code", "type": "SDTM Dataset Variable"}}, "description": "ETCD (the companion to ELEMENT) is limited to 8 characters and does not have special character restrictions. These values should be short for ease of use in programming, but it is not expected that ETCD will need to serve as a variable name.", "label": "Element Code", "name": "ETCD", "ordinal": "6", "simpleDatatype": "Char"}, {"_links": {"parentDataset": {"href": "/mdr/sdtm/1-5/datasets/TA", "title": "Trial Arms", "type": "SDTM Dataset"}, "parentProduct": {"href": "/mdr/sdtm/1-5", "title": "Study Data Tabulation Model Version 1.5", "type": "Foundational Model"}, "priorVersion": {"href": "/mdr/sdtm/1-4/datasets/TA/variables/ELEMENT", "title": "Description of Element", "type": "SDTM Dataset Variable"}, "rootItem": {"href": "/mdr/root/sdtm/datasets/TA/variables/ELEMENT", "title": "Version-agnostic anchor resource for SDTM variable TA.ELEMENT", "type": "Root Data Element"}, "self": {"href": "/mdr/sdtm/1-5/datasets/TA/variables/ELEMENT", "title": "Description of Element", "type": "SDTM Dataset Variable"}}, "description": "The name of the Element.", "label": "Description of Element", "name": "ELEMENT", "ordinal": "7", "simpleDatatype": "Char"}, {"_links": {"parentDataset": {"href": "/mdr/sdtm/1-5/datasets/TA", "title": "Trial Arms", "type": "SDTM Dataset"}, "parentProduct": {"href": "/mdr/sdtm/1-5", "title": "Study Data Tabulation Model Version 1.5", "type": "Foundational Model"}, "priorVersion": {"href": "/mdr/sdtm/1-4/datasets/TA/variables/TABRANCH", "title": "Branch", "type": "SDTM Dataset Variable"}, "rootItem": {"href": "/mdr/root/sdtm/datasets/TA/variables/TABRANCH", "title": "Version-agnostic anchor resource for SDTM variable TA.TABRANCH", "type": "Root Data Element"}, "self": {"href": "/mdr/sdtm/1-5/datasets/TA/variables/TABRANCH", "title": "Branch", "type": "SDTM Dataset Variable"}}, "description": "Condition subjects meet, at a \"branch\" in the Trial Design at the end of this Element, to be included in this Arm. Example: Randomization to DRUG X.", "label": "Branch", "name": "TABRANCH", "ordinal": "8", "simpleDatatype": "Char"}, {"_links": {"parentDataset": {"href": "/mdr/sdtm/1-5/datasets/TA", "title": "Trial Arms", "type": "SDTM Dataset"}, "parentProduct": {"href": "/mdr/sdtm/1-5", "title": "Study Data Tabulation Model Version 1.5", "type": "Foundational Model"}, "priorVersion": {"href": "/mdr/sdtm/1-4/datasets/TA/variables/TATRANS", "title": "Transition Rule", "type": "SDTM Dataset Variable"}, "rootItem": {"href": "/mdr/root/sdtm/datasets/TA/variables/TATRANS", "title": "Version-agnostic anchor resource for SDTM variable TA.TATRANS", "type": "Root Data Element"}, "self": {"href": "/mdr/sdtm/1-5/datasets/TA/variables/TATRANS", "title": "Transition Rule", "type": "SDTM Dataset Variable"}}, "description": "If the trial design allows a subject to transition to an Element other than the next Element in sequence, then the conditions for transitioning to those other Elements, and the alternative Element sequences, are specified in this rule (e.g., Responders go to washout).", "label": "Transition Rule", "name": "TATRANS", "ordinal": "9", "simpleDatatype": "Char"}, {"_links": {"parentDataset": {"href": "/mdr/sdtm/1-5/datasets/TA", "title": "Trial Arms", "type": "SDTM Dataset"}, "parentProduct": {"href": "/mdr/sdtm/1-5", "title": "Study Data Tabulation Model Version 1.5", "type": "Foundational Model"}, "priorVersion": {"href": "/mdr/sdtm/1-4/datasets/TA/variables/EPOCH", "title": "Epoch", "type": "SDTM Dataset Variable"}, "rootItem": {"href": "/mdr/root/sdtm/datasets/TA/variables/EPOCH", "title": "Version-agnostic anchor resource for SDTM variable TA.EPOCH", "type": "Root Data Element"}, "self": {"href": "/mdr/sdtm/1-5/datasets/TA/variables/EPOCH", "title": "Epoch", "type": "SDTM Dataset Variable"}}, "description": "Name of the Trial Epoch with which this Element of the Arm is associated.", "label": "Epoch", "name": "EPOCH", "ordinal": "10", "simpleDatatype": "Char"}], "description": "A trial design domain that contains each planned arm in the trial. (Source: CDISC Controlled Terminology, DOMAIN, C49618, 2018-06-29)", "label": "Trial Arms", "name": "TA", "ordinal": "7"}, {"_links": {"parentClass": {"href": "/mdr/sdtm/1-5/classes/TrialDesign", "title": "Trial Design Model", "type": "Class"}, "parentProduct": {"href": "/mdr/sdtm/1-5", "title": "Study Data Tabulation Model Version 1.5", "type": "Foundational Model"}, "priorVersion": {"href": "/mdr/sdtm/1-4/datasets/TV", "title": "Trial Visits", "type": "SDTM Dataset"}, "self": {"href": "/mdr/sdtm/1-5/datasets/TV", "title": "Trial Visits", "type": "SDTM Dataset"}}, "datasetStructure": "One Record per Planned Trial Visit", "datasetVariables": [{"_links": {"parentDataset": {"href": "/mdr/sdtm/1-5/datasets/TV", "title": "Trial Visits", "type": "SDTM Dataset"}, "parentProduct": {"href": "/mdr/sdtm/1-5", "title": "Study Data Tabulation Model Version 1.5", "type": "Foundational Model"}, "priorVersion": {"href": "/mdr/sdtm/1-4/datasets/TV/variables/STUDYID", "title": "Study Identifier", "type": "SDTM Dataset Variable"}, "rootItem": {"href": "/mdr/root/sdtm/datasets/TV/variables/STUDYID", "title": "Version-agnostic anchor resource for SDTM variable TV.STUDYID", "type": "Root Data Element"}, "self": {"href": "/mdr/sdtm/1-5/datasets/TV/variables/STUDYID", "title": "Study Identifier", "type": "SDTM Dataset Variable"}}, "description": "Unique identifier for a study.", "label": "Study Identifier", "name": "STUDYID", "ordinal": "1", "simpleDatatype": "Char"}, {"_links": {"parentDataset": {"href": "/mdr/sdtm/1-5/datasets/TV", "title": "Trial Visits", "type": "SDTM Dataset"}, "parentProduct": {"href": "/mdr/sdtm/1-5", "title": "Study Data Tabulation Model Version 1.5", "type": "Foundational Model"}, "priorVersion": {"href": "/mdr/sdtm/1-4/datasets/TV/variables/DOMAIN", "title": "Domain Abbreviation", "type": "SDTM Dataset Variable"}, "rootItem": {"href": "/mdr/root/sdtm/datasets/TV/variables/DOMAIN", "title": "Version-agnostic anchor resource for SDTM variable TV.DOMAIN", "type": "Root Data Element"}, "self": {"href": "/mdr/sdtm/1-5/datasets/TV/variables/DOMAIN", "title": "Domain Abbreviation", "type": "SDTM Dataset Variable"}}, "description": "Two-character abbreviation for the domain, which must be TV.", "label": "Domain Abbreviation", "name": "DOMAIN", "ordinal": "2", "simpleDatatype": "Char"}, {"_links": {"parentDataset": {"href": "/mdr/sdtm/1-5/datasets/TV", "title": "Trial Visits", "type": "SDTM Dataset"}, "parentProduct": {"href": "/mdr/sdtm/1-5", "title": "Study Data Tabulation Model Version 1.5", "type": "Foundational Model"}, "priorVersion": {"href": "/mdr/sdtm/1-4/datasets/TV/variables/VISITNUM", "title": "Visit Number", "type": "SDTM Dataset Variable"}, "rootItem": {"href": "/mdr/root/sdtm/datasets/TV/variables/VISITNUM", "title": "Version-agnostic anchor resource for SDTM variable TV.VISITNUM", "type": "Root Data Element"}, "self": {"href": "/mdr/sdtm/1-5/datasets/TV/variables/VISITNUM", "title": "Visit Number", "type": "SDTM Dataset Variable"}}, "description": "Clinical encounter number. Numeric version of VISIT can be used for sorting.", "label": "Visit Number", "name": "VISITNUM", "ordinal": "3", "simpleDatatype": "Num"}, {"_links": {"parentDataset": {"href": "/mdr/sdtm/1-5/datasets/TV", "title": "Trial Visits", "type": "SDTM Dataset"}, "parentProduct": {"href": "/mdr/sdtm/1-5", "title": "Study Data Tabulation Model Version 1.5", "type": "Foundational Model"}, "priorVersion": {"href": "/mdr/sdtm/1-4/datasets/TV/variables/VISIT", "title": "Visit Name", "type": "SDTM Dataset Variable"}, "rootItem": {"href": "/mdr/root/sdtm/datasets/TV/variables/VISIT", "title": "Version-agnostic anchor resource for SDTM variable TV.VISIT", "type": "Root Data Element"}, "self": {"href": "/mdr/sdtm/1-5/datasets/TV/variables/VISIT", "title": "Visit Name", "type": "SDTM Dataset Variable"}}, "description": "Protocol-defined description of the clinical encounter. May be used in addition to VISITNUM and/or VISITDY as a text description of the clinical encounter.", "label": "Visit Name", "name": "VISIT", "ordinal": "4", "simpleDatatype": "Char"}, {"_links": {"parentDataset": {"href": "/mdr/sdtm/1-5/datasets/TV", "title": "Trial Visits", "type": "SDTM Dataset"}, "parentProduct": {"href": "/mdr/sdtm/1-5", "title": "Study Data Tabulation Model Version 1.5", "type": "Foundational Model"}, "priorVersion": {"href": "/mdr/sdtm/1-4/datasets/TV/variables/VISITDY", "title": "Planned Study Day of Visit", "type": "SDTM Dataset Variable"}, "rootItem": {"href": "/mdr/root/sdtm/datasets/TV/variables/VISITDY", "title": "Version-agnostic anchor resource for SDTM variable TV.VISITDY", "type": "Root Data Element"}, "self": {"href": "/mdr/sdtm/1-5/datasets/TV/variables/VISITDY", "title": "Planned Study Day of Visit", "type": "SDTM Dataset Variable"}}, "description": "Planned study day of VISIT. Due to its sequential nature, can be used for sorting.", "label": "Planned Study Day of Visit", "name": "VISITDY", "ordinal": "5", "simpleDatatype": "Num"}, {"_links": {"parentDataset": {"href": "/mdr/sdtm/1-5/datasets/TV", "title": "Trial Visits", "type": "SDTM Dataset"}, "parentProduct": {"href": "/mdr/sdtm/1-5", "title": "Study Data Tabulation Model Version 1.5", "type": "Foundational Model"}, "priorVersion": {"href": "/mdr/sdtm/1-4/datasets/TV/variables/ARMCD", "title": "Planned Arm Code", "type": "SDTM Dataset Variable"}, "rootItem": {"href": "/mdr/root/sdtm/datasets/TV/variables/ARMCD", "title": "Version-agnostic anchor resource for SDTM variable TV.ARMCD", "type": "Root Data Element"}, "self": {"href": "/mdr/sdtm/1-5/datasets/TV/variables/ARMCD", "title": "Planned Arm Code", "type": "SDTM Dataset Variable"}}, "description": "ARMCD is limited to 20 characters and does not have special character restrictions. If the timing of visits for a trial does not depend on which ARM a subject is in, then ARMCD should be null.", "label": "Planned Arm Code", "name": "ARMCD", "ordinal": "6", "simpleDatatype": "Char"}, {"_links": {"parentDataset": {"href": "/mdr/sdtm/1-5/datasets/TV", "title": "Trial Visits", "type": "SDTM Dataset"}, "parentProduct": {"href": "/mdr/sdtm/1-5", "title": "Study Data Tabulation Model Version 1.5", "type": "Foundational Model"}, "priorVersion": {"href": "/mdr/sdtm/1-4/datasets/TV/variables/ARM", "title": "Description of Planned Arm", "type": "SDTM Dataset Variable"}, "rootItem": {"href": "/mdr/root/sdtm/datasets/TV/variables/ARM", "title": "Version-agnostic anchor resource for SDTM variable TV.ARM", "type": "Root Data Element"}, "self": {"href": "/mdr/sdtm/1-5/datasets/TV/variables/ARM", "title": "Description of Planned Arm", "type": "SDTM Dataset Variable"}}, "description": "Name given to Arm or treatment group.", "label": "Description of Planned Arm", "name": "ARM", "ordinal": "7", "simpleDatatype": "Char"}, {"_links": {"parentDataset": {"href": "/mdr/sdtm/1-5/datasets/TV", "title": "Trial Visits", "type": "SDTM Dataset"}, "parentProduct": {"href": "/mdr/sdtm/1-5", "title": "Study Data Tabulation Model Version 1.5", "type": "Foundational Model"}, "priorVersion": {"href": "/mdr/sdtm/1-4/datasets/TV/variables/TVSTRL", "title": "Visit Start Rule", "type": "SDTM Dataset Variable"}, "rootItem": {"href": "/mdr/root/sdtm/datasets/TV/variables/TVSTRL", "title": "Version-agnostic anchor resource for SDTM variable TV.TVSTRL", "type": "Root Data Element"}, "self": {"href": "/mdr/sdtm/1-5/datasets/TV/variables/TVSTRL", "title": "Visit Start Rule", "type": "SDTM Dataset Variable"}}, "description": "Rule describing when the visit starts, in relation to the sequence of Elements.", "label": "Visit Start Rule", "name": "TVSTRL", "ordinal": "8", "simpleDatatype": "Char"}, {"_links": {"parentDataset": {"href": "/mdr/sdtm/1-5/datasets/TV", "title": "Trial Visits", "type": "SDTM Dataset"}, "parentProduct": {"href": "/mdr/sdtm/1-5", "title": "Study Data Tabulation Model Version 1.5", "type": "Foundational Model"}, "priorVersion": {"href": "/mdr/sdtm/1-4/datasets/TV/variables/TVENRL", "title": "Visit End Rule", "type": "SDTM Dataset Variable"}, "rootItem": {"href": "/mdr/root/sdtm/datasets/TV/variables/TVENRL", "title": "Version-agnostic anchor resource for SDTM variable TV.TVENRL", "type": "Root Data Element"}, "self": {"href": "/mdr/sdtm/1-5/datasets/TV/variables/TVENRL", "title": "Visit End Rule", "type": "SDTM Dataset Variable"}}, "description": "Rule describing when the visit ends, in relation to the sequence of Elements.", "label": "Visit End Rule", "name": "TVENRL", "ordinal": "9", "simpleDatatype": "Char"}], "description": "A trial design domain that contains the planned order and number of visits in the study within each arm. (Source: CDISC Controlled Terminology, DOMAIN, C49621, 2018-06-29)", "label": "Trial Visits", "name": "TV", "ordinal": "8"}, {"_links": {"parentClass": {"href": "/mdr/sdtm/1-5/classes/TrialDesign", "title": "Trial Design Model", "type": "Class"}, "parentProduct": {"href": "/mdr/sdtm/1-5", "title": "Study Data Tabulation Model Version 1.5", "type": "Foundational Model"}, "priorVersion": {"href": "/mdr/sdtm/1-4/datasets/TX", "title": "Trial Sets", "type": "SDTM Dataset"}, "self": {"href": "/mdr/sdtm/1-5/datasets/TX", "title": "Trial Sets", "type": "SDTM Dataset"}}, "datasetStructure": "One Record per Trial Set Parameter", "datasetVariables": [{"_links": {"parentDataset": {"href": "/mdr/sdtm/1-5/datasets/TX", "title": "Trial Sets", "type": "SDTM Dataset"}, "parentProduct": {"href": "/mdr/sdtm/1-5", "title": "Study Data Tabulation Model Version 1.5", "type": "Foundational Model"}, "priorVersion": {"href": "/mdr/sdtm/1-4/datasets/TX/variables/STUDYID", "title": "Study Identifier", "type": "SDTM Dataset Variable"}, "rootItem": {"href": "/mdr/root/sdtm/datasets/TX/variables/STUDYID", "title": "Version-agnostic anchor resource for SDTM variable TX.STUDYID", "type": "Root Data Element"}, "self": {"href": "/mdr/sdtm/1-5/datasets/TX/variables/STUDYID", "title": "Study Identifier", "type": "SDTM Dataset Variable"}}, "description": "Unique identifier for a study.", "label": "Study Identifier", "name": "STUDYID", "ordinal": "1", "simpleDatatype": "Char"}, {"_links": {"parentDataset": {"href": "/mdr/sdtm/1-5/datasets/TX", "title": "Trial Sets", "type": "SDTM Dataset"}, "parentProduct": {"href": "/mdr/sdtm/1-5", "title": "Study Data Tabulation Model Version 1.5", "type": "Foundational Model"}, "priorVersion": {"href": "/mdr/sdtm/1-4/datasets/TX/variables/DOMAIN", "title": "Domain Abbreviation", "type": "SDTM Dataset Variable"}, "rootItem": {"href": "/mdr/root/sdtm/datasets/TX/variables/DOMAIN", "title": "Version-agnostic anchor resource for SDTM variable TX.DOMAIN", "type": "Root Data Element"}, "self": {"href": "/mdr/sdtm/1-5/datasets/TX/variables/DOMAIN", "title": "Domain Abbreviation", "type": "SDTM Dataset Variable"}}, "description": "Two-character abbreviation for the domain, which must be TX.", "label": "Domain Abbreviation", "name": "DOMAIN", "ordinal": "2", "simpleDatatype": "Char"}, {"_links": {"parentDataset": {"href": "/mdr/sdtm/1-5/datasets/TX", "title": "Trial Sets", "type": "SDTM Dataset"}, "parentProduct": {"href": "/mdr/sdtm/1-5", "title": "Study Data Tabulation Model Version 1.5", "type": "Foundational Model"}, "priorVersion": {"href": "/mdr/sdtm/1-4/datasets/TX/variables/SETCD", "title": "Set Code", "type": "SDTM Dataset Variable"}, "rootItem": {"href": "/mdr/root/sdtm/datasets/TX/variables/SETCD", "title": "Version-agnostic anchor resource for SDTM variable TX.SETCD", "type": "Root Data Element"}, "self": {"href": "/mdr/sdtm/1-5/datasets/TX/variables/SETCD", "title": "Set Code", "type": "SDTM Dataset Variable"}}, "description": "Short name of a specific Trial Set, as defined by the sponsor. Maximum 8 characters. This represents the Trial Set for which parameters are being submitted.", "label": "Set Code", "name": "SETCD", "ordinal": "3", "simpleDatatype": "Char"}, {"_links": {"parentDataset": {"href": "/mdr/sdtm/1-5/datasets/TX", "title": "Trial Sets", "type": "SDTM Dataset"}, "parentProduct": {"href": "/mdr/sdtm/1-5", "title": "Study Data Tabulation Model Version 1.5", "type": "Foundational Model"}, "priorVersion": {"href": "/mdr/sdtm/1-4/datasets/TX/variables/SET", "title": "Set Description", "type": "SDTM Dataset Variable"}, "rootItem": {"href": "/mdr/root/sdtm/datasets/TX/variables/SET", "title": "Version-agnostic anchor resource for SDTM variable TX.SET", "type": "Root Data Element"}, "self": {"href": "/mdr/sdtm/1-5/datasets/TX/variables/SET", "title": "Set Description", "type": "SDTM Dataset Variable"}}, "description": "Long description of a specific Trial Set, as defined by the sponsor.", "label": "Set Description", "name": "SET", "ordinal": "4", "simpleDatatype": "Char"}, {"_links": {"parentDataset": {"href": "/mdr/sdtm/1-5/datasets/TX", "title": "Trial Sets", "type": "SDTM Dataset"}, "parentProduct": {"href": "/mdr/sdtm/1-5", "title": "Study Data Tabulation Model Version 1.5", "type": "Foundational Model"}, "priorVersion": {"href": "/mdr/sdtm/1-4/datasets/TX/variables/TXSEQ", "title": "Sequence Number", "type": "SDTM Dataset Variable"}, "rootItem": {"href": "/mdr/root/sdtm/datasets/TX/variables/TXSEQ", "title": "Version-agnostic anchor resource for SDTM variable TX.TXSEQ", "type": "Root Data Element"}, "self": {"href": "/mdr/sdtm/1-5/datasets/TX/variables/TXSEQ", "title": "Sequence Number", "type": "SDTM Dataset Variable"}}, "description": "Unique number for this record within this dataset.", "label": "Sequence Number", "name": "TXSEQ", "ordinal": "5", "simpleDatatype": "Num"}, {"_links": {"parentDataset": {"href": "/mdr/sdtm/1-5/datasets/TX", "title": "Trial Sets", "type": "SDTM Dataset"}, "parentProduct": {"href": "/mdr/sdtm/1-5", "title": "Study Data Tabulation Model Version 1.5", "type": "Foundational Model"}, "priorVersion": {"href": "/mdr/sdtm/1-4/datasets/TX/variables/TXPARMCD", "title": "Trial Set Parameter Short Name", "type": "SDTM Dataset Variable"}, "rootItem": {"href": "/mdr/root/sdtm/datasets/TX/variables/TXPARMCD", "title": "Version-agnostic anchor resource for SDTM variable TX.TXPARMCD", "type": "Root Data Element"}, "self": {"href": "/mdr/sdtm/1-5/datasets/TX/variables/TXPARMCD", "title": "Trial Set Parameter Short Name", "type": "SDTM Dataset Variable"}}, "description": "Short character value for the Trial Set parameter described in TXPARM. Maximum 8 characters.", "label": "Trial Set Parameter Short Name", "name": "TXPARMCD", "ordinal": "6", "simpleDatatype": "Char"}, {"_links": {"parentDataset": {"href": "/mdr/sdtm/1-5/datasets/TX", "title": "Trial Sets", "type": "SDTM Dataset"}, "parentProduct": {"href": "/mdr/sdtm/1-5", "title": "Study Data Tabulation Model Version 1.5", "type": "Foundational Model"}, "priorVersion": {"href": "/mdr/sdtm/1-4/datasets/TX/variables/TXPARM", "title": "Trial Set Parameter", "type": "SDTM Dataset Variable"}, "rootItem": {"href": "/mdr/root/sdtm/datasets/TX/variables/TXPARM", "title": "Version-agnostic anchor resource for SDTM variable TX.TXPARM", "type": "Root Data Element"}, "self": {"href": "/mdr/sdtm/1-5/datasets/TX/variables/TXPARM", "title": "Trial Set Parameter", "type": "SDTM Dataset Variable"}}, "description": "Term for the Trial Set parameter. Maximum 40 characters.", "label": "Trial Set Parameter", "name": "TXPARM", "ordinal": "7", "simpleDatatype": "Char"}, {"_links": {"parentDataset": {"href": "/mdr/sdtm/1-5/datasets/TX", "title": "Trial Sets", "type": "SDTM Dataset"}, "parentProduct": {"href": "/mdr/sdtm/1-5", "title": "Study Data Tabulation Model Version 1.5", "type": "Foundational Model"}, "priorVersion": {"href": "/mdr/sdtm/1-4/datasets/TX/variables/TXVAL", "title": "Trial Set Parameter Value", "type": "SDTM Dataset Variable"}, "rootItem": {"href": "/mdr/root/sdtm/datasets/TX/variables/TXVAL", "title": "Version-agnostic anchor resource for SDTM variable TX.TXVAL", "type": "Root Data Element"}, "self": {"href": "/mdr/sdtm/1-5/datasets/TX/variables/TXVAL", "title": "Trial Set Parameter Value", "type": "SDTM Dataset Variable"}}, "description": "Value of the Trial Set parameter (e.g., Fed ad libitum or Restricted Feeding when TXPARM is FEEDREG). Some parameters may be subject to controlled terminology.", "label": "Trial Set Parameter Value", "name": "TXVAL", "ordinal": "8", "simpleDatatype": "Char"}], "description": "A trial design domain that contains one record for each trial set characteristic including experimental factors, treatment factors, inherent characteristics, or distinct sponsor designations. This domain is not subject oriented. (Source: CDISC Controlled Terminology, DOMAIN, C95103, 2018-06-29)", "label": "Trial Sets", "name": "TX", "ordinal": "9"}, {"_links": {"parentClass": {"href": "/mdr/sdtm/1-5/classes/TrialDesign", "title": "Trial Design Model", "type": "Class"}, "parentProduct": {"href": "/mdr/sdtm/1-5", "title": "Study Data Tabulation Model Version 1.5", "type": "Foundational Model"}, "priorVersion": {"href": "/mdr/sdtm/1-4/datasets/TI", "title": "Trial Inclusion/Exclusion Criteria", "type": "SDTM Dataset"}, "self": {"href": "/mdr/sdtm/1-5/datasets/TI", "title": "Trial Inclusion/Exclusion Criteria", "type": "SDTM Dataset"}}, "datasetStructure": "One Record per Trial Inclusion or Exclusion Criterion", "datasetVariables": [{"_links": {"parentDataset": {"href": "/mdr/sdtm/1-5/datasets/TI", "title": "Trial Inclusion/Exclusion Criteria", "type": "SDTM Dataset"}, "parentProduct": {"href": "/mdr/sdtm/1-5", "title": "Study Data Tabulation Model Version 1.5", "type": "Foundational Model"}, "priorVersion": {"href": "/mdr/sdtm/1-4/datasets/TI/variables/STUDYID", "title": "Study Identifier", "type": "SDTM Dataset Variable"}, "rootItem": {"href": "/mdr/root/sdtm/datasets/TI/variables/STUDYID", "title": "Version-agnostic anchor resource for SDTM variable TI.STUDYID", "type": "Root Data Element"}, "self": {"href": "/mdr/sdtm/1-5/datasets/TI/variables/STUDYID", "title": "Study Identifier", "type": "SDTM Dataset Variable"}}, "description": "Unique identifier for a study.", "label": "Study Identifier", "name": "STUDYID", "ordinal": "1", "simpleDatatype": "Char"}, {"_links": {"parentDataset": {"href": "/mdr/sdtm/1-5/datasets/TI", "title": "Trial Inclusion/Exclusion Criteria", "type": "SDTM Dataset"}, "parentProduct": {"href": "/mdr/sdtm/1-5", "title": "Study Data Tabulation Model Version 1.5", "type": "Foundational Model"}, "priorVersion": {"href": "/mdr/sdtm/1-4/datasets/TI/variables/DOMAIN", "title": "Domain Abbreviation", "type": "SDTM Dataset Variable"}, "rootItem": {"href": "/mdr/root/sdtm/datasets/TI/variables/DOMAIN", "title": "Version-agnostic anchor resource for SDTM variable TI.DOMAIN", "type": "Root Data Element"}, "self": {"href": "/mdr/sdtm/1-5/datasets/TI/variables/DOMAIN", "title": "Domain Abbreviation", "type": "SDTM Dataset Variable"}}, "description": "Two-character abbreviation for the domain, which must be TI.", "label": "Domain Abbreviation", "name": "DOMAIN", "ordinal": "2", "simpleDatatype": "Char"}, {"_links": {"parentDataset": {"href": "/mdr/sdtm/1-5/datasets/TI", "title": "Trial Inclusion/Exclusion Criteria", "type": "SDTM Dataset"}, "parentProduct": {"href": "/mdr/sdtm/1-5", "title": "Study Data Tabulation Model Version 1.5", "type": "Foundational Model"}, "priorVersion": {"href": "/mdr/sdtm/1-4/datasets/TI/variables/IETESTCD", "title": "Inclusion/Exclusion Criterion Short Name", "type": "SDTM Dataset Variable"}, "rootItem": {"href": "/mdr/root/sdtm/datasets/TI/variables/IETESTCD", "title": "Version-agnostic anchor resource for SDTM variable TI.IETESTCD", "type": "Root Data Element"}, "self": {"href": "/mdr/sdtm/1-5/datasets/TI/variables/IETESTCD", "title": "Inclusion/Exclusion Criterion Short Name", "type": "SDTM Dataset Variable"}}, "description": "Short name IETEST. It can be used as a column name when converting a dataset from a vertical to a horizontal format. The value in IETESTCD cannot be longer than 8 characters, nor can it start with a number (e.g., \"1TEST\"). IETESTCD cannot contain characters other than letters, numbers, or underscores. The name \"IE\" prefix is used to ensure consistency with the IE domain", "label": "Inclusion/Exclusion Criterion Short Name", "name": "IETESTCD", "ordinal": "3", "simpleDatatype": "Char"}, {"_links": {"parentDataset": {"href": "/mdr/sdtm/1-5/datasets/TI", "title": "Trial Inclusion/Exclusion Criteria", "type": "SDTM Dataset"}, "parentProduct": {"href": "/mdr/sdtm/1-5", "title": "Study Data Tabulation Model Version 1.5", "type": "Foundational Model"}, "priorVersion": {"href": "/mdr/sdtm/1-4/datasets/TI/variables/IETEST", "title": "Inclusion/Exclusion Criterion", "type": "SDTM Dataset Variable"}, "rootItem": {"href": "/mdr/root/sdtm/datasets/TI/variables/IETEST", "title": "Version-agnostic anchor resource for SDTM variable TI.IETEST", "type": "Root Data Element"}, "self": {"href": "/mdr/sdtm/1-5/datasets/TI/variables/IETEST", "title": "Inclusion/Exclusion Criterion", "type": "SDTM Dataset Variable"}}, "description": "Full text of the inclusion or exclusion criterion. The prefix \"IE\" is used to ensure consistency with the IE domain.", "label": "Inclusion/Exclusion Criterion", "name": "IETEST", "ordinal": "4", "simpleDatatype": "Char"}, {"_links": {"parentDataset": {"href": "/mdr/sdtm/1-5/datasets/TI", "title": "Trial Inclusion/Exclusion Criteria", "type": "SDTM Dataset"}, "parentProduct": {"href": "/mdr/sdtm/1-5", "title": "Study Data Tabulation Model Version 1.5", "type": "Foundational Model"}, "priorVersion": {"href": "/mdr/sdtm/1-4/datasets/TI/variables/IECAT", "title": "Inclusion/Exclusion Category", "type": "SDTM Dataset Variable"}, "rootItem": {"href": "/mdr/root/sdtm/datasets/TI/variables/IECAT", "title": "Version-agnostic anchor resource for SDTM variable TI.IECAT", "type": "Root Data Element"}, "self": {"href": "/mdr/sdtm/1-5/datasets/TI/variables/IECAT", "title": "Inclusion/Exclusion Category", "type": "SDTM Dataset Variable"}}, "description": "Used for categorization of the Inclusion/Exclusion Criterion: INCLUSION, EXCLUSION.", "label": "Inclusion/Exclusion Category", "name": "IECAT", "ordinal": "5", "simpleDatatype": "Char"}, {"_links": {"parentDataset": {"href": "/mdr/sdtm/1-5/datasets/TI", "title": "Trial Inclusion/Exclusion Criteria", "type": "SDTM Dataset"}, "parentProduct": {"href": "/mdr/sdtm/1-5", "title": "Study Data Tabulation Model Version 1.5", "type": "Foundational Model"}, "priorVersion": {"href": "/mdr/sdtm/1-4/datasets/TI/variables/IESCAT", "title": "Inclusion/Exclusion Subcategory", "type": "SDTM Dataset Variable"}, "rootItem": {"href": "/mdr/root/sdtm/datasets/TI/variables/IESCAT", "title": "Version-agnostic anchor resource for SDTM variable TI.IESCAT", "type": "Root Data Element"}, "self": {"href": "/mdr/sdtm/1-5/datasets/TI/variables/IESCAT", "title": "Inclusion/Exclusion Subcategory", "type": "SDTM Dataset Variable"}}, "description": "A further categorization of the exception criterion. Can be used to distinguish criteria for a sub-study or for to categorize as a major or minor exceptions. Examples: MAJOR, MINOR.", "label": "Inclusion/Exclusion Subcategory", "name": "IESCAT", "ordinal": "6", "simpleDatatype": "Char"}, {"_links": {"parentDataset": {"href": "/mdr/sdtm/1-5/datasets/TI", "title": "Trial Inclusion/Exclusion Criteria", "type": "SDTM Dataset"}, "parentProduct": {"href": "/mdr/sdtm/1-5", "title": "Study Data Tabulation Model Version 1.5", "type": "Foundational Model"}, "priorVersion": {"href": "/mdr/sdtm/1-4/datasets/TI/variables/TIRL", "title": "Inclusion/Exclusion Criterion Rule", "type": "SDTM Dataset Variable"}, "rootItem": {"href": "/mdr/root/sdtm/datasets/TI/variables/TIRL", "title": "Version-agnostic anchor resource for SDTM variable TI.TIRL", "type": "Root Data Element"}, "self": {"href": "/mdr/sdtm/1-5/datasets/TI/variables/TIRL", "title": "Inclusion/Exclusion Criterion Rule", "type": "SDTM Dataset Variable"}}, "description": "Rule that expresses the criterion in computer-executable form.", "label": "Inclusion/Exclusion Criterion Rule", "name": "TIRL", "ordinal": "7", "simpleDatatype": "Char"}, {"_links": {"parentDataset": {"href": "/mdr/sdtm/1-5/datasets/TI", "title": "Trial Inclusion/Exclusion Criteria", "type": "SDTM Dataset"}, "parentProduct": {"href": "/mdr/sdtm/1-5", "title": "Study Data Tabulation Model Version 1.5", "type": "Foundational Model"}, "priorVersion": {"href": "/mdr/sdtm/1-4/datasets/TI/variables/TIVERS", "title": "Protocol Criteria Versions", "type": "SDTM Dataset Variable"}, "rootItem": {"href": "/mdr/root/sdtm/datasets/TI/variables/TIVERS", "title": "Version-agnostic anchor resource for SDTM variable TI.TIVERS", "type": "Root Data Element"}, "self": {"href": "/mdr/sdtm/1-5/datasets/TI/variables/TIVERS", "title": "Protocol Criteria Versions", "type": "SDTM Dataset Variable"}}, "description": "The number of this version of the Inclusion/Exclusion criteria. May be omitted if there is only one version.", "label": "Protocol Criteria Versions", "name": "TIVERS", "ordinal": "8", "simpleDatatype": "Char"}], "description": "A trial design domain that contains one record for each of the inclusion and exclusion criteria for the trial. This domain is not subject oriented. (Source: CDISC Controlled Terminology, DOMAIN, C49620, 2018-06-29)", "label": "Trial Inclusion/Exclusion Criteria", "name": "TI", "ordinal": "10"}, {"_links": {"parentClass": {"href": "/mdr/sdtm/1-5/classes/TrialDesign", "title": "Trial Design Model", "type": "Class"}, "parentProduct": {"href": "/mdr/sdtm/1-5", "title": "Study Data Tabulation Model Version 1.5", "type": "Foundational Model"}, "priorVersion": {"href": "/mdr/sdtm/1-4/datasets/TS", "title": "Trial Summary", "type": "SDTM Dataset"}, "self": {"href": "/mdr/sdtm/1-5/datasets/TS", "title": "Trial Summary", "type": "SDTM Dataset"}}, "datasetStructure": "One Record per Trial Summary Parameter", "datasetVariables": [{"_links": {"parentDataset": {"href": "/mdr/sdtm/1-5/datasets/TS", "title": "Trial Summary", "type": "SDTM Dataset"}, "parentProduct": {"href": "/mdr/sdtm/1-5", "title": "Study Data Tabulation Model Version 1.5", "type": "Foundational Model"}, "priorVersion": {"href": "/mdr/sdtm/1-4/datasets/TS/variables/STUDYID", "title": "Study Identifier", "type": "SDTM Dataset Variable"}, "rootItem": {"href": "/mdr/root/sdtm/datasets/TS/variables/STUDYID", "title": "Version-agnostic anchor resource for SDTM variable TS.STUDYID", "type": "Root Data Element"}, "self": {"href": "/mdr/sdtm/1-5/datasets/TS/variables/STUDYID", "title": "Study Identifier", "type": "SDTM Dataset Variable"}}, "description": "Unique identifier for a study.", "label": "Study Identifier", "name": "STUDYID", "ordinal": "1", "simpleDatatype": "Char"}, {"_links": {"parentDataset": {"href": "/mdr/sdtm/1-5/datasets/TS", "title": "Trial Summary", "type": "SDTM Dataset"}, "parentProduct": {"href": "/mdr/sdtm/1-5", "title": "Study Data Tabulation Model Version 1.5", "type": "Foundational Model"}, "priorVersion": {"href": "/mdr/sdtm/1-4/datasets/TS/variables/DOMAIN", "title": "Domain Abbreviation", "type": "SDTM Dataset Variable"}, "rootItem": {"href": "/mdr/root/sdtm/datasets/TS/variables/DOMAIN", "title": "Version-agnostic anchor resource for SDTM variable TS.DOMAIN", "type": "Root Data Element"}, "self": {"href": "/mdr/sdtm/1-5/datasets/TS/variables/DOMAIN", "title": "Domain Abbreviation", "type": "SDTM Dataset Variable"}}, "description": "Two-character abbreviation for the domain, which must be TS.", "label": "Domain Abbreviation", "name": "DOMAIN", "ordinal": "2", "simpleDatatype": "Char"}, {"_links": {"parentDataset": {"href": "/mdr/sdtm/1-5/datasets/TS", "title": "Trial Summary", "type": "SDTM Dataset"}, "parentProduct": {"href": "/mdr/sdtm/1-5", "title": "Study Data Tabulation Model Version 1.5", "type": "Foundational Model"}, "priorVersion": {"href": "/mdr/sdtm/1-4/datasets/TS/variables/TSSEQ", "title": "Sequence Number", "type": "SDTM Dataset Variable"}, "rootItem": {"href": "/mdr/root/sdtm/datasets/TS/variables/TSSEQ", "title": "Version-agnostic anchor resource for SDTM variable TS.TSSEQ", "type": "Root Data Element"}, "self": {"href": "/mdr/sdtm/1-5/datasets/TS/variables/TSSEQ", "title": "Sequence Number", "type": "SDTM Dataset Variable"}}, "description": "Sequence number to ensure uniqueness within the dataset.", "label": "Sequence Number", "name": "TSSEQ", "ordinal": "3", "simpleDatatype": "Num"}, {"_links": {"parentDataset": {"href": "/mdr/sdtm/1-5/datasets/TS", "title": "Trial Summary", "type": "SDTM Dataset"}, "parentProduct": {"href": "/mdr/sdtm/1-5", "title": "Study Data Tabulation Model Version 1.5", "type": "Foundational Model"}, "priorVersion": {"href": "/mdr/sdtm/1-4/datasets/TS/variables/TSGRPID", "title": "Group ID", "type": "SDTM Dataset Variable"}, "rootItem": {"href": "/mdr/root/sdtm/datasets/TS/variables/TSGRPID", "title": "Version-agnostic anchor resource for SDTM variable TS.TSGRPID", "type": "Root Data Element"}, "self": {"href": "/mdr/sdtm/1-5/datasets/TS/variables/TSGRPID", "title": "Group ID", "type": "SDTM Dataset Variable"}}, "description": "Used to tie together a group of related records.", "label": "Group ID", "name": "TSGRPID", "ordinal": "4", "simpleDatatype": "Char"}, {"_links": {"parentDataset": {"href": "/mdr/sdtm/1-5/datasets/TS", "title": "Trial Summary", "type": "SDTM Dataset"}, "parentProduct": {"href": "/mdr/sdtm/1-5", "title": "Study Data Tabulation Model Version 1.5", "type": "Foundational Model"}, "priorVersion": {"href": "/mdr/sdtm/1-4/datasets/TS/variables/TSPARMCD", "title": "Trial Summary Parameter Short Name", "type": "SDTM Dataset Variable"}, "rootItem": {"href": "/mdr/root/sdtm/datasets/TS/variables/TSPARMCD", "title": "Version-agnostic anchor resource for SDTM variable TS.TSPARMCD", "type": "Root Data Element"}, "self": {"href": "/mdr/sdtm/1-5/datasets/TS/variables/TSPARMCD", "title": "Trial Summary Parameter Short Name", "type": "SDTM Dataset Variable"}}, "description": "TSPARMCD (the companion to TSPARM) is limited to 8 characters and does not have special character restrictions. These values should be short for ease of use in programming, but it is not expected that TSPARMCD will need to serve as variable names. Examples: AGEMIN, AGEMAX", "label": "Trial Summary Parameter Short Name", "name": "TSPARMCD", "ordinal": "5", "simpleDatatype": "Char"}, {"_links": {"parentDataset": {"href": "/mdr/sdtm/1-5/datasets/TS", "title": "Trial Summary", "type": "SDTM Dataset"}, "parentProduct": {"href": "/mdr/sdtm/1-5", "title": "Study Data Tabulation Model Version 1.5", "type": "Foundational Model"}, "priorVersion": {"href": "/mdr/sdtm/1-4/datasets/TS/variables/TSPARM", "title": "Trial Summary Parameter", "type": "SDTM Dataset Variable"}, "rootItem": {"href": "/mdr/root/sdtm/datasets/TS/variables/TSPARM", "title": "Version-agnostic anchor resource for SDTM variable TS.TSPARM", "type": "Root Data Element"}, "self": {"href": "/mdr/sdtm/1-5/datasets/TS/variables/TSPARM", "title": "Trial Summary Parameter", "type": "SDTM Dataset Variable"}}, "description": "Term for the Trial Summary Parameter. The value in TSPARM cannot be longer than 40 characters. Examples Planned Minimum Age of Subjects, Planned Maximum Age of Subjects", "label": "Trial Summary Parameter", "name": "TSPARM", "ordinal": "6", "simpleDatatype": "Char"}, {"_links": {"parentDataset": {"href": "/mdr/sdtm/1-5/datasets/TS", "title": "Trial Summary", "type": "SDTM Dataset"}, "parentProduct": {"href": "/mdr/sdtm/1-5", "title": "Study Data Tabulation Model Version 1.5", "type": "Foundational Model"}, "priorVersion": {"href": "/mdr/sdtm/1-4/datasets/TS/variables/TSVAL", "title": "Parameter Value", "type": "SDTM Dataset Variable"}, "rootItem": {"href": "/mdr/root/sdtm/datasets/TS/variables/TSVAL", "title": "Version-agnostic anchor resource for SDTM variable TS.TSVAL", "type": "Root Data Element"}, "self": {"href": "/mdr/sdtm/1-5/datasets/TS/variables/TSVAL", "title": "Parameter Value", "type": "SDTM Dataset Variable"}}, "description": "Value of TSPARM. Example: \"ASTHMA\" when TSPARM value is \"Trial Indications\". If TSVAL is null; a value is required for TSVALNF. Text over 200 characters can be added to additional columns TSVAL1-TSVALn.", "label": "Parameter Value", "name": "TSVAL", "ordinal": "7", "simpleDatatype": "Char"}, {"_links": {"parentDataset": {"href": "/mdr/sdtm/1-5/datasets/TS", "title": "Trial Summary", "type": "SDTM Dataset"}, "parentProduct": {"href": "/mdr/sdtm/1-5", "title": "Study Data Tabulation Model Version 1.5", "type": "Foundational Model"}, "priorVersion": {"href": "/mdr/sdtm/1-4/datasets/TS/variables/TSVALNF", "title": "Parameter Null Flavor", "type": "SDTM Dataset Variable"}, "rootItem": {"href": "/mdr/root/sdtm/datasets/TS/variables/TSVALNF", "title": "Version-agnostic anchor resource for SDTM variable TS.TSVALNF", "type": "Root Data Element"}, "self": {"href": "/mdr/sdtm/1-5/datasets/TS/variables/TSVALNF", "title": "Parameter Null Flavor", "type": "SDTM Dataset Variable"}}, "description": "Null flavor for the value of TSVAL describing the reason the value is null, to be populated if and only if TSVAL is null.", "label": "Parameter Null Flavor", "name": "TSVALNF", "ordinal": "8", "simpleDatatype": "Char"}, {"_links": {"parentDataset": {"href": "/mdr/sdtm/1-5/datasets/TS", "title": "Trial Summary", "type": "SDTM Dataset"}, "parentProduct": {"href": "/mdr/sdtm/1-5", "title": "Study Data Tabulation Model Version 1.5", "type": "Foundational Model"}, "priorVersion": {"href": "/mdr/sdtm/1-4/datasets/TS/variables/TSVALCD", "title": "Parameter Value Code", "type": "SDTM Dataset Variable"}, "rootItem": {"href": "/mdr/root/sdtm/datasets/TS/variables/TSVALCD", "title": "Version-agnostic anchor resource for SDTM variable TS.TSVALCD", "type": "Root Data Element"}, "self": {"href": "/mdr/sdtm/1-5/datasets/TS/variables/TSVALCD", "title": "Parameter Value Code", "type": "SDTM Dataset Variable"}}, "description": "Code of the term in TSVAL from Reference Terminology cited in TSVCDREF.", "label": "Parameter Value Code", "name": "TSVALCD", "ordinal": "9", "simpleDatatype": "Char"}, {"_links": {"parentDataset": {"href": "/mdr/sdtm/1-5/datasets/TS", "title": "Trial Summary", "type": "SDTM Dataset"}, "parentProduct": {"href": "/mdr/sdtm/1-5", "title": "Study Data Tabulation Model Version 1.5", "type": "Foundational Model"}, "priorVersion": {"href": "/mdr/sdtm/1-4/datasets/TS/variables/TSVCDREF", "title": "Name of the Reference Terminology", "type": "SDTM Dataset Variable"}, "rootItem": {"href": "/mdr/root/sdtm/datasets/TS/variables/TSVCDREF", "title": "Version-agnostic anchor resource for SDTM variable TS.TSVCDREF", "type": "Root Data Element"}, "self": {"href": "/mdr/sdtm/1-5/datasets/TS/variables/TSVCDREF", "title": "Name of the Reference Terminology", "type": "SDTM Dataset Variable"}}, "description": "The name of the reference terminology or standard format from which TSVALCD is taken. For example; CDISC, SNOMED, ISO8601.", "label": "Name of the Reference Terminology", "name": "TSVCDREF", "ordinal": "10", "simpleDatatype": "Char"}, {"_links": {"parentDataset": {"href": "/mdr/sdtm/1-5/datasets/TS", "title": "Trial Summary", "type": "SDTM Dataset"}, "parentProduct": {"href": "/mdr/sdtm/1-5", "title": "Study Data Tabulation Model Version 1.5", "type": "Foundational Model"}, "priorVersion": {"href": "/mdr/sdtm/1-4/datasets/TS/variables/TSVCDVER", "title": "Version of the Reference Terminology", "type": "SDTM Dataset Variable"}, "rootItem": {"href": "/mdr/root/sdtm/datasets/TS/variables/TSVCDVER", "title": "Version-agnostic anchor resource for SDTM variable TS.TSVCDVER", "type": "Root Data Element"}, "self": {"href": "/mdr/sdtm/1-5/datasets/TS/variables/TSVCDVER", "title": "Version of the Reference Terminology", "type": "SDTM Dataset Variable"}}, "description": "The version number of the Reference Terminology cited in TSVCDREF, if applicable.", "label": "Version of the Reference Terminology", "name": "TSVCDVER", "ordinal": "11", "simpleDatatype": "Char"}], "description": "A trial design domain that contains one record for each trial summary characteristic. This domain is not subject oriented. (Source: CDISC Controlled Terminology, DOMAIN, C53483, 2018-06-29)", "label": "Trial Summary", "name": "TS", "ordinal": "11"}, {"_links": {"parentClass": {"href": "/mdr/sdtm/1-5/classes/TrialDesign", "title": "Trial Design Model", "type": "Class"}, "parentProduct": {"href": "/mdr/sdtm/1-5", "title": "Study Data Tabulation Model Version 1.5", "type": "Foundational Model"}, "priorVersion": {"href": "/mdr/sdtm/1-4/datasets/TD", "title": "Trial Disease Assessments", "type": "SDTM Dataset"}, "self": {"href": "/mdr/sdtm/1-5/datasets/TD", "title": "Trial Disease Assessments", "type": "SDTM Dataset"}}, "datasetStructure": "One Record per Planned Constant Assessment Period", "datasetVariables": [{"_links": {"parentDataset": {"href": "/mdr/sdtm/1-5/datasets/TD", "title": "Trial Disease Assessments", "type": "SDTM Dataset"}, "parentProduct": {"href": "/mdr/sdtm/1-5", "title": "Study Data Tabulation Model Version 1.5", "type": "Foundational Model"}, "priorVersion": {"href": "/mdr/sdtm/1-4/datasets/TD/variables/STUDYID", "title": "Study Identifier", "type": "SDTM Dataset Variable"}, "rootItem": {"href": "/mdr/root/sdtm/datasets/TD/variables/STUDYID", "title": "Version-agnostic anchor resource for SDTM variable TD.STUDYID", "type": "Root Data Element"}, "self": {"href": "/mdr/sdtm/1-5/datasets/TD/variables/STUDYID", "title": "Study Identifier", "type": "SDTM Dataset Variable"}}, "description": "Unique identifier for a study.", "label": "Study Identifier", "name": "STUDYID", "ordinal": "1", "simpleDatatype": "Char"}, {"_links": {"parentDataset": {"href": "/mdr/sdtm/1-5/datasets/TD", "title": "Trial Disease Assessments", "type": "SDTM Dataset"}, "parentProduct": {"href": "/mdr/sdtm/1-5", "title": "Study Data Tabulation Model Version 1.5", "type": "Foundational Model"}, "priorVersion": {"href": "/mdr/sdtm/1-4/datasets/TD/variables/DOMAIN", "title": "Domain Abbreviation", "type": "SDTM Dataset Variable"}, "rootItem": {"href": "/mdr/root/sdtm/datasets/TD/variables/DOMAIN", "title": "Version-agnostic anchor resource for SDTM variable TD.DOMAIN", "type": "Root Data Element"}, "self": {"href": "/mdr/sdtm/1-5/datasets/TD/variables/DOMAIN", "title": "Domain Abbreviation", "type": "SDTM Dataset Variable"}}, "description": "Two-character abbreviation for the domain, which must be TD.", "label": "Domain Abbreviation", "name": "DOMAIN", "ordinal": "2", "simpleDatatype": "Char"}, {"_links": {"parentDataset": {"href": "/mdr/sdtm/1-5/datasets/TD", "title": "Trial Disease Assessments", "type": "SDTM Dataset"}, "parentProduct": {"href": "/mdr/sdtm/1-5", "title": "Study Data Tabulation Model Version 1.5", "type": "Foundational Model"}, "priorVersion": {"href": "/mdr/sdtm/1-4/datasets/TD/variables/TDORDER", "title": "Sequence of Planned Assessment Schedule", "type": "SDTM Dataset Variable"}, "rootItem": {"href": "/mdr/root/sdtm/datasets/TD/variables/TDORDER", "title": "Version-agnostic anchor resource for SDTM variable TD.TDORDER", "type": "Root Data Element"}, "self": {"href": "/mdr/sdtm/1-5/datasets/TD/variables/TDORDER", "title": "Sequence of Planned Assessment Schedule", "type": "SDTM Dataset Variable"}}, "description": "A number given to ensure ordinal sequencing of the planned assessment schedules within a trial.", "label": "Sequence of Planned Assessment Schedule", "name": "TDORDER", "ordinal": "3", "simpleDatatype": "Num"}, {"_links": {"parentDataset": {"href": "/mdr/sdtm/1-5/datasets/TD", "title": "Trial Disease Assessments", "type": "SDTM Dataset"}, "parentProduct": {"href": "/mdr/sdtm/1-5", "title": "Study Data Tabulation Model Version 1.5", "type": "Foundational Model"}, "priorVersion": {"href": "/mdr/sdtm/1-4/datasets/TD/variables/TDANCVAR", "title": "Anchor Variable Name", "type": "SDTM Dataset Variable"}, "rootItem": {"href": "/mdr/root/sdtm/datasets/TD/variables/TDANCVAR", "title": "Version-agnostic anchor resource for SDTM variable TD.TDANCVAR", "type": "Root Data Element"}, "self": {"href": "/mdr/sdtm/1-5/datasets/TD/variables/TDANCVAR", "title": "Anchor Variable Name", "type": "SDTM Dataset Variable"}}, "description": "A reference to the date variable name that provides the start point from which the planned disease assessment schedule is measured. This must be referenced from the ADaM ADSL dataset e.g. ANCH1DT. Note: TDANCVAR is to contain the name of a reference date variable name.", "label": "Anchor Variable Name", "name": "TDANCVAR", "ordinal": "4", "simpleDatatype": "Char"}, {"_links": {"parentDataset": {"href": "/mdr/sdtm/1-5/datasets/TD", "title": "Trial Disease Assessments", "type": "SDTM Dataset"}, "parentProduct": {"href": "/mdr/sdtm/1-5", "title": "Study Data Tabulation Model Version 1.5", "type": "Foundational Model"}, "priorVersion": {"href": "/mdr/sdtm/1-4/datasets/TD/variables/TDSTOFF", "title": "Offset from the Anchor", "type": "SDTM Dataset Variable"}, "rootItem": {"href": "/mdr/root/sdtm/datasets/TD/variables/TDSTOFF", "title": "Version-agnostic anchor resource for SDTM variable TD.TDSTOFF", "type": "Root Data Element"}, "self": {"href": "/mdr/sdtm/1-5/datasets/TD/variables/TDSTOFF", "title": "Offset from the Anchor", "type": "SDTM Dataset Variable"}}, "description": "A fixed offset from the date provided by the variable referenced in TDANCVAR. This is used when the timing of planned cycles does not start on the exact day referenced in the variable indicated in TDANCVAR. The value of this variable will be either zero or a positive value and will be represented in ISO 8601 character format.", "label": "Offset from the Anchor", "name": "TDSTOFF", "ordinal": "5", "simpleDatatype": "Char"}, {"_links": {"parentDataset": {"href": "/mdr/sdtm/1-5/datasets/TD", "title": "Trial Disease Assessments", "type": "SDTM Dataset"}, "parentProduct": {"href": "/mdr/sdtm/1-5", "title": "Study Data Tabulation Model Version 1.5", "type": "Foundational Model"}, "priorVersion": {"href": "/mdr/sdtm/1-4/datasets/TD/variables/TDTGTPAI", "title": "Planned Assessment Interval", "type": "SDTM Dataset Variable"}, "rootItem": {"href": "/mdr/root/sdtm/datasets/TD/variables/TDTGTPAI", "title": "Version-agnostic anchor resource for SDTM variable TD.TDTGTPAI", "type": "Root Data Element"}, "self": {"href": "/mdr/sdtm/1-5/datasets/TD/variables/TDTGTPAI", "title": "Planned Assessment Interval", "type": "SDTM Dataset Variable"}}, "description": "The planned interval between disease assessments represented in ISO 8601 character format.", "label": "Planned Assessment Interval", "name": "TDTGTPAI", "ordinal": "6", "simpleDatatype": "Char"}, {"_links": {"parentDataset": {"href": "/mdr/sdtm/1-5/datasets/TD", "title": "Trial Disease Assessments", "type": "SDTM Dataset"}, "parentProduct": {"href": "/mdr/sdtm/1-5", "title": "Study Data Tabulation Model Version 1.5", "type": "Foundational Model"}, "priorVersion": {"href": "/mdr/sdtm/1-4/datasets/TD/variables/TDMINPAI", "title": "Planned Assessment Interval Minimum", "type": "SDTM Dataset Variable"}, "rootItem": {"href": "/mdr/root/sdtm/datasets/TD/variables/TDMINPAI", "title": "Version-agnostic anchor resource for SDTM variable TD.TDMINPAI", "type": "Root Data Element"}, "self": {"href": "/mdr/sdtm/1-5/datasets/TD/variables/TDMINPAI", "title": "Planned Assessment Interval Minimum", "type": "SDTM Dataset Variable"}}, "description": "The lower limit of the allowed range for the planned interval between disease assessments represented in ISO 8601 character format.", "label": "Planned Assessment Interval Minimum", "name": "TDMINPAI", "ordinal": "7", "simpleDatatype": "Char"}, {"_links": {"parentDataset": {"href": "/mdr/sdtm/1-5/datasets/TD", "title": "Trial Disease Assessments", "type": "SDTM Dataset"}, "parentProduct": {"href": "/mdr/sdtm/1-5", "title": "Study Data Tabulation Model Version 1.5", "type": "Foundational Model"}, "priorVersion": {"href": "/mdr/sdtm/1-4/datasets/TD/variables/TDMAXPAI", "title": "Planned Assessment Interval Maximum", "type": "SDTM Dataset Variable"}, "rootItem": {"href": "/mdr/root/sdtm/datasets/TD/variables/TDMAXPAI", "title": "Version-agnostic anchor resource for SDTM variable TD.TDMAXPAI", "type": "Root Data Element"}, "self": {"href": "/mdr/sdtm/1-5/datasets/TD/variables/TDMAXPAI", "title": "Planned Assessment Interval Maximum", "type": "SDTM Dataset Variable"}}, "description": "The upper limit of the allowed range for the planned interval between disease assessments represented in ISO 8601 character format.", "label": "Planned Assessment Interval Maximum", "name": "TDMAXPAI", "ordinal": "8", "simpleDatatype": "Char"}, {"_links": {"parentDataset": {"href": "/mdr/sdtm/1-5/datasets/TD", "title": "Trial Disease Assessments", "type": "SDTM Dataset"}, "parentProduct": {"href": "/mdr/sdtm/1-5", "title": "Study Data Tabulation Model Version 1.5", "type": "Foundational Model"}, "priorVersion": {"href": "/mdr/sdtm/1-4/datasets/TD/variables/TDNUMRPT", "title": "Maximum Number of Actual Assessments", "type": "SDTM Dataset Variable"}, "rootItem": {"href": "/mdr/root/sdtm/datasets/TD/variables/TDNUMRPT", "title": "Version-agnostic anchor resource for SDTM variable TD.TDNUMRPT", "type": "Root Data Element"}, "self": {"href": "/mdr/sdtm/1-5/datasets/TD/variables/TDNUMRPT", "title": "Maximum Number of Actual Assessments", "type": "SDTM Dataset Variable"}}, "description": "This variable must represent the maximum number of actual assessments for the analysis that this disease assessment schedule describes. In a trial where the maximum number of assessments is not defined explicitly in the protocol (e.g. assessments occur until death) TDNUMRPT should represent the maximum number of disease assessments that support the efficacy analysis, encountered by any subject across the trial at that point in time.", "label": "Maximum Number of Actual Assessments", "name": "TDNUMRPT", "ordinal": "9", "simpleDatatype": "Num"}], "description": "A trial design domain that provides information on the protocol-specified disease assessment schedule, to be used for comparison with the actual occurrence of the efficacy assessments in order to determine whether there was good compliance with the schedule. (Source: CDISC Controlled Terminology, DOMAIN, C117699, 2018-06-29)", "label": "Trial Disease Assessments", "name": "TD", "ordinal": "12"}, {"_links": {"parentClass": {"href": "/mdr/sdtm/1-5/classes/TrialDesign", "title": "Trial Design Model", "type": "Class"}, "parentProduct": {"href": "/mdr/sdtm/1-5", "title": "Study Data Tabulation Model Version 1.5", "type": "Foundational Model"}, "self": {"href": "/mdr/sdtm/1-5/datasets/TM", "title": "Trial Disease Milestone", "type": "SDTM Dataset"}}, "datasetStructure": "One record per Disease Milestone type", "datasetVariables": [{"_links": {"parentDataset": {"href": "/mdr/sdtm/1-5/datasets/TM", "title": "Trial Disease Milestone", "type": "SDTM Dataset"}, "parentProduct": {"href": "/mdr/sdtm/1-5", "title": "Study Data Tabulation Model Version 1.5", "type": "Foundational Model"}, "rootItem": {"href": "/mdr/root/sdtm/datasets/TM/variables/STUDYID", "title": "Version-agnostic anchor resource for SDTM variable TM.STUDYID", "type": "Root Data Element"}, "self": {"href": "/mdr/sdtm/1-5/datasets/TM/variables/STUDYID", "title": "Study Identifier", "type": "SDTM Dataset Variable"}}, "description": "Unique identifier for a study.", "label": "Study Identifier", "name": "STUDYID", "ordinal": "1", "simpleDatatype": "Char"}, {"_links": {"parentDataset": {"href": "/mdr/sdtm/1-5/datasets/TM", "title": "Trial Disease Milestone", "type": "SDTM Dataset"}, "parentProduct": {"href": "/mdr/sdtm/1-5", "title": "Study Data Tabulation Model Version 1.5", "type": "Foundational Model"}, "rootItem": {"href": "/mdr/root/sdtm/datasets/TM/variables/DOMAIN", "title": "Version-agnostic anchor resource for SDTM variable TM.DOMAIN", "type": "Root Data Element"}, "self": {"href": "/mdr/sdtm/1-5/datasets/TM/variables/DOMAIN", "title": "Domain", "type": "SDTM Dataset Variable"}}, "description": "Two-character abbreviation for the domain, which must be TM.", "label": "Domain", "name": "DOMAIN", "ordinal": "2", "simpleDatatype": "Char"}, {"_links": {"parentDataset": {"href": "/mdr/sdtm/1-5/datasets/TM", "title": "Trial Disease Milestone", "type": "SDTM Dataset"}, "parentProduct": {"href": "/mdr/sdtm/1-5", "title": "Study Data Tabulation Model Version 1.5", "type": "Foundational Model"}, "rootItem": {"href": "/mdr/root/sdtm/datasets/TM/variables/MIDSTYPE", "title": "Version-agnostic anchor resource for SDTM variable TM.MIDSTYPE", "type": "Root Data Element"}, "self": {"href": "/mdr/sdtm/1-5/datasets/TM/variables/MIDSTYPE", "title": "Disease Milestone Type", "type": "SDTM Dataset Variable"}}, "description": "The type of Disease Milestone. Example: HYPOGLYCEMIC EVENT.", "label": "Disease Milestone Type", "name": "MIDSTYPE", "ordinal": "3", "simpleDatatype": "Char"}, {"_links": {"parentDataset": {"href": "/mdr/sdtm/1-5/datasets/TM", "title": "Trial Disease Milestone", "type": "SDTM Dataset"}, "parentProduct": {"href": "/mdr/sdtm/1-5", "title": "Study Data Tabulation Model Version 1.5", "type": "Foundational Model"}, "rootItem": {"href": "/mdr/root/sdtm/datasets/TM/variables/TMDEF", "title": "Version-agnostic anchor resource for SDTM variable TM.TMDEF", "type": "Root Data Element"}, "self": {"href": "/mdr/sdtm/1-5/datasets/TM/variables/TMDEF", "title": "Disease Milestone Definition", "type": "SDTM Dataset Variable"}}, "description": "Definition of the Disease Milestone.", "label": "Disease Milestone Definition", "name": "TMDEF", "ordinal": "4", "simpleDatatype": "Char"}, {"_links": {"parentDataset": {"href": "/mdr/sdtm/1-5/datasets/TM", "title": "Trial Disease Milestone", "type": "SDTM Dataset"}, "parentProduct": {"href": "/mdr/sdtm/1-5", "title": "Study Data Tabulation Model Version 1.5", "type": "Foundational Model"}, "rootItem": {"href": "/mdr/root/sdtm/datasets/TM/variables/TMRPT", "title": "Version-agnostic anchor resource for SDTM variable TM.TMRPT", "type": "Root Data Element"}, "self": {"href": "/mdr/sdtm/1-5/datasets/TM/variables/TMRPT", "title": "Disease Milestone Repetition Indicator", "type": "SDTM Dataset Variable"}}, "description": "Indicates whether this is a Disease Milestone that can occur only once (N) or a type of Disease Milestone that can occur multiple times (Y).", "label": "Disease Milestone Repetition Indicator", "name": "TMRPT", "ordinal": "5", "simpleDatatype": "Char"}], "description": "A trial design domain that is used to describe disease milestones, which are observations or activities anticipated to occur in the course of the disease under study, and which trigger the collection of data. (Source: CDISC Controlled Terminology, DOMAIN, C147270, 2018-06-29)", "label": "Trial Disease Milestone", "name": "TM", "ordinal": "13"}], "description": "This SDTM class describes the plan for the procedures to be followed in a clinical trial, including planned and actual timing of events, control group, method of allocating treatments, blinding methods, assignment of epochs that subjects pass through in the course of a trial. (Source: CDISC Controlled Terminology, GNRLOBSC, C103379, 2018-06-29)", "label": "Trial Design Model", "name": "Trial Design", "ordinal": "7"}
