{"_links": {"parentProduct": {"href": "/mdr/cdash/1-2", "title": "Clinical Data Acquisition Standards Harmonization Model Version 1.2", "type": "Foundational Model"}, "priorVersion": {"href": "/mdr/cdash/1-1/classes/Events", "title": "Events", "type": "Class"}, "self": {"href": "/mdr/cdash/1-2/classes/Events", "title": "Events", "type": "Class"}}, "cdashModelFields": [{"_links": {"codelist": [{"href": "/mdr/root/ct/sdtmct/codelists/C66742", "title": "Version-agnostic anchor resource for codelist C66742", "type": "Root Value Domain"}], "parentClass": {"href": "/mdr/cdash/1-2/classes/Events", "title": "Events", "type": "Class"}, "parentProduct": {"href": "/mdr/cdash/1-2", "title": "Clinical Data Acquisition Standards Harmonization Model Version 1.2", "type": "Foundational Model"}, "priorVersion": {"href": "/mdr/cdash/1-1/classes/Events/fields/--YN", "title": "Any [Event]", "type": "Class Variable"}, "rootItem": {"href": "/mdr/root/cdash/classes/Events/fields/--YN", "title": "Any [Event]", "type": "Root Data Element"}, "self": {"href": "/mdr/cdash/1-2/classes/Events/fields/--YN", "title": "Any [Event]", "type": "Class Variable"}}, "definition": "An indication whether or not any data was collected for the event topic.", "implementationNotes": "This is a field that can be used on any Events CRF to indicate whether or not there is data to record. Used primarily as a data cleaning field, this provides verification that all other fields on the CRF were deliberately left blank. If the response to YES/NO is planned to be submitted in the SDTM submission datasets, this CDASH variable should not be used and the appropriate CDASH variable should be used instead (e.g., --OCCUR).", "label": "Any [Event]", "mappingInstructions": "Does not map to an SDTM variable. The SDTM annotated CRF indicates that this field is NOT SUBMITTED.", "name": "--YN", "ordinal": "1", "prompt": "Any [Event Topic] ([study specific time frame])", "questionText": "Has the subject had any [event topic(s)/term/name] ([study specific time frame])?; [Was/Were] (there) any [event topic(s)] (reported) ([study specific time frame])?", "simpleDatatype": "Char"}, {"_links": {"parentClass": {"href": "/mdr/cdash/1-2/classes/Events", "title": "Events", "type": "Class"}, "parentProduct": {"href": "/mdr/cdash/1-2", "title": "Clinical Data Acquisition Standards Harmonization Model Version 1.2", "type": "Foundational Model"}, "priorVersion": {"href": "/mdr/cdash/1-1/classes/Events/fields/--TERM", "title": "Reported Term", "type": "Class Variable"}, "rootItem": {"href": "/mdr/root/cdash/classes/Events/fields/--TERM", "title": "Reported Term", "type": "Root Data Element"}, "sdtmClassMappingTargets": [{"href": "/mdr/sdtm/1-7/classes/Events/variables/--TERM", "title": "Reported Term", "type": "Class Variable"}], "self": {"href": "/mdr/cdash/1-2/classes/Events/fields/--TERM", "title": "Reported Term", "type": "Class Variable"}}, "definition": "The topic variable for an event observation, which is the reported or pre-specified name of the event.", "implementationNotes": "Typically, --TERM collects the verbatim text for an event. If the term is preprinted/pre-specified, the value can be populated into the --TERM variable as a hidden field (e.g., if Headache is printed on an AE CRF, \"Headache\" should be stored in AETERM). The CDASH field --TERM can also be used to collect any free-text values linked to the sponsor-standardized value collected in the CDASH field --DECOD. For example, --DECOD may have a value of \"OTHER\" and the associated free-text event topic is collected in --TERM. In this scenario, the Item prompt \"Specify Other\" may be used.", "label": "Reported Term", "mappingInstructions": "Maps directly to the SDTM variable listed in the SDTM Target column.", "name": "--TERM", "ordinal": "2", "prompt": "[Event Topic]; [Specify/Specify Other/Explain/Provide Details (for [Event Topic])]", "questionText": "What [is/was] the [event topic/term/name]?; If --DECOD (is selected), [explain/specify/provide (more) detail(s)]?", "simpleDatatype": "Char"}, {"_links": {"parentClass": {"href": "/mdr/cdash/1-2/classes/Events", "title": "Events", "type": "Class"}, "parentProduct": {"href": "/mdr/cdash/1-2", "title": "Clinical Data Acquisition Standards Harmonization Model Version 1.2", "type": "Foundational Model"}, "priorVersion": {"href": "/mdr/cdash/1-1/classes/Events/fields/--DECOD", "title": "Dictionary-Derived Term", "type": "Class Variable"}, "rootItem": {"href": "/mdr/root/cdash/classes/Events/fields/--DECOD", "title": "Dictionary-Derived Term", "type": "Root Data Element"}, "sdtmClassMappingTargets": [{"href": "/mdr/sdtm/1-7/classes/Events/variables/--DECOD", "title": "Dictionary-Derived Term", "type": "Class Variable"}], "self": {"href": "/mdr/cdash/1-2/classes/Events/fields/--DECOD", "title": "Dictionary-Derived Term", "type": "Class Variable"}}, "definition": "The dictionary or sponsor-defined standardized text description of the topic variable; --TERM; or the modified topic variable (-- MODIFY), if applicable.", "implementationNotes": "When populated by a coding dictionary (e.g., MedDRA), Question Text and Prompt may not be applicable. This is equivalent to the Preferred Term (PT) in MedDRA. CDISC Controlled terminology (NCOMPLT) is used for the DS domain only. The CDASH field --DECOD may be used to collect standardized pre-specified values (CDISC Controlled Terminology or sponsor-defined terminology) on a CRF. The CDASH field --TERM can be used to collect any free-text values linked to the sponsor-standardized value. For example, the CDASH field --DECOD may have a value of \"OTHER\" and the associated free-text event topic is collected in the CDASH field --TERM.", "label": "Dictionary-Derived Term", "mappingInstructions": "Maps directly to the SDTM variable listed in the SDTM Target column. If sponsors use a dictionary to code --TERM, they should provide the dictionary name and version in the Define-XML external codelist attributes. Sponsors should include an Origin column in the define metadata document to indicate that the data was \"ASSIGNED\".", "name": "--DECOD", "ordinal": "3", "prompt": "(Standardized) [Event/Event Topic] (at the EPOCH/Study Specific Time Frame)", "questionText": "What [is/was] the [event/event topic] (at the EPOCH/study specific time frame)?", "simpleDatatype": "Char"}, {"_links": {"parentClass": {"href": "/mdr/cdash/1-2/classes/Events", "title": "Events", "type": "Class"}, "parentProduct": {"href": "/mdr/cdash/1-2", "title": "Clinical Data Acquisition Standards Harmonization Model Version 1.2", "type": "Foundational Model"}, "priorVersion": {"href": "/mdr/cdash/1-1/classes/Events/fields/--CAT", "title": "Category", "type": "Class Variable"}, "rootItem": {"href": "/mdr/root/cdash/classes/Events/fields/--CAT", "title": "Category", "type": "Root Data Element"}, "sdtmClassMappingTargets": [{"href": "/mdr/sdtm/1-7/classes/Events/variables/--CAT", "title": "Category", "type": "Class Variable"}], "self": {"href": "/mdr/cdash/1-2/classes/Events/fields/--CAT", "title": "Category", "type": "Class Variable"}}, "definition": "A grouping of topic-variable values based on user-defined characteristics.", "implementationNotes": "Sponsor-defined controlled terminology. This would most commonly be a heading on the CRF or screen, not a question to which the site would provide an answer. --SCAT can only be used if there is --CAT. If a question is asked, the response would typically be a sponsor-defined codelist. If the form is laid out as a grid, then words such as \"category\" can be included as the column header. Examples are provided in the CDASHIG metadata table and in the SDTMIG.", "label": "Category", "mappingInstructions": "Maps directly to the SDTM variable listed in the SDTM Target column.", "name": "--CAT", "ordinal": "4", "prompt": "[Category/Category Value]; NULL", "questionText": "What [is/was] the category (of the [--TERM/event topic])?", "simpleDatatype": "Char"}, {"_links": {"parentClass": {"href": "/mdr/cdash/1-2/classes/Events", "title": "Events", "type": "Class"}, "parentProduct": {"href": "/mdr/cdash/1-2", "title": "Clinical Data Acquisition Standards Harmonization Model Version 1.2", "type": "Foundational Model"}, "priorVersion": {"href": "/mdr/cdash/1-1/classes/Events/fields/--SCAT", "title": "Subcategory", "type": "Class Variable"}, "rootItem": {"href": "/mdr/root/cdash/classes/Events/fields/--SCAT", "title": "Subcategory", "type": "Root Data Element"}, "sdtmClassMappingTargets": [{"href": "/mdr/sdtm/1-7/classes/Events/variables/--SCAT", "title": "Subcategory", "type": "Class Variable"}], "self": {"href": "/mdr/cdash/1-2/classes/Events/fields/--SCAT", "title": "Subcategory", "type": "Class Variable"}}, "definition": "A sub-division of the --CAT values based on user-defined characteristics.", "implementationNotes": "Sponsor-defined controlled terminology. This would most commonly be a heading on the CRF or screen, not a question to which the site would provide an answer. --SCAT can only be used if there is --CAT. Examples are provided in the CDASHIG metadata table and in the SDTMIG.", "label": "Subcategory", "mappingInstructions": "Maps directly to the SDTM variable listed in the SDTM Target column.", "name": "--SCAT", "ordinal": "5", "prompt": "[Subcategory/Subcategory Value]; NULL", "questionText": "What [is/was] the subcategory (of the [--TERM/event topic])?", "simpleDatatype": "Char"}, {"_links": {"codelist": [{"href": "/mdr/root/ct/sdtmct/codelists/C66742", "title": "Version-agnostic anchor resource for codelist C66742", "type": "Root Value Domain"}], "parentClass": {"href": "/mdr/cdash/1-2/classes/Events", "title": "Events", "type": "Class"}, "parentProduct": {"href": "/mdr/cdash/1-2", "title": "Clinical Data Acquisition Standards Harmonization Model Version 1.2", "type": "Foundational Model"}, "priorVersion": {"href": "/mdr/cdash/1-1/classes/Events/fields/--PRESP", "title": "Pre-Specified", "type": "Class Variable"}, "rootItem": {"href": "/mdr/root/cdash/classes/Events/fields/--PRESP", "title": "Pre-Specified", "type": "Root Data Element"}, "sdtmClassMappingTargets": [{"href": "/mdr/sdtm/1-7/classes/Events/variables/--PRESP", "title": "Pre-Specified", "type": "Class Variable"}], "self": {"href": "/mdr/cdash/1-2/classes/Events/fields/--PRESP", "title": "Pre-Specified", "type": "Class Variable"}}, "definition": "An indication that a specific event, or group of events, is pre-specified on a CRF.", "implementationNotes": "For pre-specified events, --PRESP is a hidden field on a CRF defaulted to Y, or can be added during SDTM dataset creation. If a study collects both pre-specified events and free-text events, the value of --PRESP should be Y for all pre-specified events and null for events reported as free text.", "label": "Pre-Specified", "mappingInstructions": "Maps directly to the SDTM variable listed in the SDTM Target column.", "name": "--PRESP", "ordinal": "6", "simpleDatatype": "Char"}, {"_links": {"codelist": [{"href": "/mdr/root/ct/sdtmct/codelists/C66742", "title": "Version-agnostic anchor resource for codelist C66742", "type": "Root Value Domain"}], "parentClass": {"href": "/mdr/cdash/1-2/classes/Events", "title": "Events", "type": "Class"}, "parentProduct": {"href": "/mdr/cdash/1-2", "title": "Clinical Data Acquisition Standards Harmonization Model Version 1.2", "type": "Foundational Model"}, "priorVersion": {"href": "/mdr/cdash/1-1/classes/Events/fields/--OCCUR", "title": "Occurrence", "type": "Class Variable"}, "rootItem": {"href": "/mdr/root/cdash/classes/Events/fields/--OCCUR", "title": "Occurrence", "type": "Root Data Element"}, "sdtmClassMappingTargets": [{"href": "/mdr/sdtm/1-7/classes/Events/variables/--OCCUR", "title": "Occurrence Indicator", "type": "Class Variable"}], "self": {"href": "/mdr/cdash/1-2/classes/Events/fields/--OCCUR", "title": "Occurrence", "type": "Class Variable"}}, "definition": "An indication whether the pre-specified event or the group of events occurred when the occurrence of the specific event or group of events is solicited.", "implementationNotes": "If the term is preprinted/pre-specified, then the value is mapped into the --TERM variable (e.g., if Headache is printed on an AE CRF, \"Headache\" should be stored in AETERM).", "label": "Occurrence", "mappingInstructions": "Maps directly to the SDTM variable listed in the SDTM Target column.", "name": "--OCCUR", "ordinal": "7", "prompt": "[--TERM]", "questionText": "[Did/Does/Was] the subject (have) [--TERM] (after/before [study-specific time frame]) ?; [Did/Is] (the) [pre-specified --TERM/--DECOD] [occur/occurring]?", "simpleDatatype": "Char"}, {"_links": {"codelist": [{"href": "/mdr/root/ct/sdtmct/codelists/C66742", "title": "Version-agnostic anchor resource for codelist C66742", "type": "Root Value Domain"}], "parentClass": {"href": "/mdr/cdash/1-2/classes/Events", "title": "Events", "type": "Class"}, "parentProduct": {"href": "/mdr/cdash/1-2", "title": "Clinical Data Acquisition Standards Harmonization Model Version 1.2", "type": "Foundational Model"}, "priorVersion": {"href": "/mdr/cdash/1-1/classes/Events/fields/--PERF", "title": "[Observation] Performed", "type": "Class Variable"}, "rootItem": {"href": "/mdr/root/cdash/classes/Events/fields/--PERF", "title": "[Observation] Performed", "type": "Root Data Element"}, "sdtmClassMappingTargets": [{"href": "/mdr/sdtm/1-7/classes/Events/variables/--STAT", "title": "Completion Status", "type": "Class Variable"}], "self": {"href": "/mdr/cdash/1-2/classes/Events/fields/--PERF", "title": "[Observation] Performed", "type": "Class Variable"}}, "definition": "The variable used to indicate whether data are available, by having the site record the value as \"Yes\" or \"No\".", "implementationNotes": "Using --PERF, a response of \"Y\" or \"N\" can be collected. A negative response can be collected as \"N\" and mapped to the --STAT variable in SDTM as \"NOT DONE\". --PERF can be used instead of --STAT when a Y/N response list is needed for implementation. Example: Were medical history conditions assessed?", "label": "[Observation] Performed", "mappingInstructions": "This field does not map directly to an SDTM variable. May be used to populate a value into the SDTM variable --STAT to indicate when a pre-specified event was not assessed. For use with pre-specified events, when the CDASH variable --PERF=\"N\", the value of the STDM variable --STAT is \"NOT DONE\". If --PERF= \"Y\", --STAT is null.", "name": "--PERF", "ordinal": "8", "prompt": "([event topic]) [Answered/Done/Assessed/Evaluated/Available]", "questionText": "(Were/Was) (the) [event topic] [answered/done/assessed/evaluated/available]?", "simpleDatatype": "Char"}, {"_links": {"codelist": [{"href": "/mdr/root/ct/sdtmct/codelists/C66789", "title": "Version-agnostic anchor resource for codelist C66789", "type": "Root Value Domain"}], "parentClass": {"href": "/mdr/cdash/1-2/classes/Events", "title": "Events", "type": "Class"}, "parentProduct": {"href": "/mdr/cdash/1-2", "title": "Clinical Data Acquisition Standards Harmonization Model Version 1.2", "type": "Foundational Model"}, "priorVersion": {"href": "/mdr/cdash/1-1/classes/Events/fields/--STAT", "title": "Completion Status", "type": "Class Variable"}, "rootItem": {"href": "/mdr/root/cdash/classes/Events/fields/--STAT", "title": "Completion Status", "type": "Root Data Element"}, "sdtmClassMappingTargets": [{"href": "/mdr/sdtm/1-7/classes/Events/variables/--STAT", "title": "Completion Status", "type": "Class Variable"}], "self": {"href": "/mdr/cdash/1-2/classes/Events/fields/--STAT", "title": "Completion Status", "type": "Class Variable"}}, "definition": "The variable used to indicate that data are not available, by having the site record the value as \"Not Done\".", "implementationNotes": "A Not Done checkbox indicates the data is not available/question was not asked. Typically, there would be 1 checkbox for each pre-specified event. This field can be useful when multiple questions are asked to confirm that a blank result field is intended to be blank.", "label": "Completion Status", "mappingInstructions": "Maps directly to the SDTM variable listed in the SDTM Target column. If collected on the CRF, the Origin (column in the Define-XML) = \"CRF\"; if populated by the sponsor from other sources (e.g., free text, a sponsor-defined listing for --REASND), Origin = \"DERIVED\".", "name": "--STAT", "ordinal": "9", "prompt": "Not Done", "questionText": "Was the [event topic] not [answered/done/assessed/evaluated]?; Indicate if ([event topic] was) not [answered/assessed/done/evaluated].", "simpleDatatype": "Char"}, {"_links": {"parentClass": {"href": "/mdr/cdash/1-2/classes/Events", "title": "Events", "type": "Class"}, "parentProduct": {"href": "/mdr/cdash/1-2", "title": "Clinical Data Acquisition Standards Harmonization Model Version 1.2", "type": "Foundational Model"}, "priorVersion": {"href": "/mdr/cdash/1-1/classes/Events/fields/--REASND", "title": "Reason Not Done", "type": "Class Variable"}, "rootItem": {"href": "/mdr/root/cdash/classes/Events/fields/--REASND", "title": "Reason Not Done", "type": "Root Data Element"}, "sdtmClassMappingTargets": [{"href": "/mdr/sdtm/1-7/classes/Events/variables/--REASND", "title": "Reason Not Done", "type": "Class Variable"}], "self": {"href": "/mdr/cdash/1-2/classes/Events/fields/--REASND", "title": "Reason Not Done", "type": "Class Variable"}}, "definition": "An explanation for why the assessment/evaluation/question was not answered, collected, or done.", "implementationNotes": "Sponsor-defined controlled terminology may be used. The reason the data was not done/not collected may be chosen from a select list (e.g., broken equipment, subject refused) or entered as free text. When --REASND is used, --STAT should also be populated in the SDTM dataset.", "label": "Reason Not Done", "mappingInstructions": "Maps directly to the SDTM variable listed in the SDTM Target column.", "name": "--REASND", "ordinal": "10", "prompt": "Reason Not [Answered/Collected/Done/Evaluated/ Assessed/Available]", "questionText": "What [is/was] the reason that the ([data/information/sponsor-defined phrase]) was not [answered/collected/done/evaluated/assessed]?", "simpleDatatype": "Char"}, {"_links": {"codelist": [{"href": "/mdr/root/ct/sdtmct/codelists/C74456", "title": "Version-agnostic anchor resource for codelist C74456", "type": "Root Value Domain"}], "parentClass": {"href": "/mdr/cdash/1-2/classes/Events", "title": "Events", "type": "Class"}, "parentProduct": {"href": "/mdr/cdash/1-2", "title": "Clinical Data Acquisition Standards Harmonization Model Version 1.2", "type": "Foundational Model"}, "priorVersion": {"href": "/mdr/cdash/1-1/classes/Events/fields/--LOC", "title": "Location of Event", "type": "Class Variable"}, "rootItem": {"href": "/mdr/root/cdash/classes/Events/fields/--LOC", "title": "Location of Event", "type": "Root Data Element"}, "sdtmClassMappingTargets": [{"href": "/mdr/sdtm/1-7/classes/Events/variables/--LOC", "title": "Location of Event", "type": "Class Variable"}], "self": {"href": "/mdr/cdash/1-2/classes/Events/fields/--LOC", "title": "Location of Event", "type": "Class Variable"}}, "definition": "A description of the anatomical location relevant for the event.", "implementationNotes": "This may be preprinted or collected. --LOC is used only to specify the anatomical location. --LAT, --DIR, --PORTOT are used to further describe the anatomical location.", "label": "Location of Event", "mappingInstructions": "Maps directly to the SDTM variable listed in the SDTM Target column.", "name": "--LOC", "ordinal": "11", "prompt": "Anatomical Location", "questionText": "What [is/was] the anatomical location (of the [--TERM/event topic])?", "simpleDatatype": "Char"}, {"_links": {"codelist": [{"href": "/mdr/root/ct/sdtmct/codelists/C99073", "title": "Version-agnostic anchor resource for codelist C99073", "type": "Root Value Domain"}], "parentClass": {"href": "/mdr/cdash/1-2/classes/Events", "title": "Events", "type": "Class"}, "parentProduct": {"href": "/mdr/cdash/1-2", "title": "Clinical Data Acquisition Standards Harmonization Model Version 1.2", "type": "Foundational Model"}, "priorVersion": {"href": "/mdr/cdash/1-1/classes/Events/fields/--LAT", "title": "Laterality", "type": "Class Variable"}, "rootItem": {"href": "/mdr/root/cdash/classes/Events/fields/--LAT", "title": "Laterality", "type": "Root Data Element"}, "sdtmClassMappingTargets": [{"href": "/mdr/sdtm/1-7/classes/Events/variables/--LAT", "title": "Laterality", "type": "Class Variable"}], "self": {"href": "/mdr/cdash/1-2/classes/Events/fields/--LAT", "title": "Laterality", "type": "Class Variable"}}, "definition": "Qualifier for anatomical location, further detailing the side of the body relevant for the event.", "implementationNotes": "Further detailing the laterality of the location of the --TERM. This may be preprinted or collected. Sponsors may collect the data using a subset list of CT on the CRF.", "label": "Laterality", "mappingInstructions": "Maps directly to the SDTM variable listed in the SDTM Target column.", "name": "--LAT", "ordinal": "12", "prompt": "Side", "questionText": "What [is/was] the side (of the anatomical location of the event)?", "simpleDatatype": "Char"}, {"_links": {"codelist": [{"href": "/mdr/root/ct/sdtmct/codelists/C99074", "title": "Version-agnostic anchor resource for codelist C99074", "type": "Root Value Domain"}], "parentClass": {"href": "/mdr/cdash/1-2/classes/Events", "title": "Events", "type": "Class"}, "parentProduct": {"href": "/mdr/cdash/1-2", "title": "Clinical Data Acquisition Standards Harmonization Model Version 1.2", "type": "Foundational Model"}, "priorVersion": {"href": "/mdr/cdash/1-1/classes/Events/fields/--DIR", "title": "Directionality", "type": "Class Variable"}, "rootItem": {"href": "/mdr/root/cdash/classes/Events/fields/--DIR", "title": "Directionality", "type": "Root Data Element"}, "sdtmClassMappingTargets": [{"href": "/mdr/sdtm/1-7/classes/Events/variables/--DIR", "title": "Directionality", "type": "Class Variable"}], "self": {"href": "/mdr/cdash/1-2/classes/Events/fields/--DIR", "title": "Directionality", "type": "Class Variable"}}, "definition": "Qualifier further detailing the position of the anatomical location relative to the center of the body, organ, or specimen.", "implementationNotes": "Further detailing the directionality of the location of the --TERM (e.g., ANTERIOR, LOWER, PROXIMAL). This may be preprinted or collected. Sponsors may collect the data using a subset list of CT on the CRF.", "label": "Directionality", "mappingInstructions": "Maps directly to the SDTM variable listed in the SDTM Target column.", "name": "--DIR", "ordinal": "13", "prompt": "Directionality", "questionText": "What [is/was] the directionality (of the anatomical location)?", "simpleDatatype": "Char"}, {"_links": {"codelist": [{"href": "/mdr/root/ct/sdtmct/codelists/C99075", "title": "Version-agnostic anchor resource for codelist C99075", "type": "Root Value Domain"}], "parentClass": {"href": "/mdr/cdash/1-2/classes/Events", "title": "Events", "type": "Class"}, "parentProduct": {"href": "/mdr/cdash/1-2", "title": "Clinical Data Acquisition Standards Harmonization Model Version 1.2", "type": "Foundational Model"}, "priorVersion": {"href": "/mdr/cdash/1-1/classes/Events/fields/--PORTOT", "title": "Portion or Totality", "type": "Class Variable"}, "rootItem": {"href": "/mdr/root/cdash/classes/Events/fields/--PORTOT", "title": "Portion or Totality", "type": "Root Data Element"}, "sdtmClassMappingTargets": [{"href": "/mdr/sdtm/1-7/classes/Events/variables/--PORTOT", "title": "Portion or Totality", "type": "Class Variable"}], "self": {"href": "/mdr/cdash/1-2/classes/Events/fields/--PORTOT", "title": "Portion or Totality", "type": "Class Variable"}}, "definition": "Qualifier for anatomical location, further detailing the distribution (i.e., arrangement of, apportioning of).", "implementationNotes": "Further detailing the portion or totality of the location of the --TERM. This may be preprinted or collected.", "label": "Portion or Totality", "mappingInstructions": "Maps directly to the SDTM variable listed in the SDTM Target column.", "name": "--PORTOT", "ordinal": "14", "prompt": "Portion or Totality", "questionText": "What [is/was] the portion or totality of the (anatomical location) involved?", "simpleDatatype": "Char"}, {"_links": {"parentClass": {"href": "/mdr/cdash/1-2/classes/Events", "title": "Events", "type": "Class"}, "parentProduct": {"href": "/mdr/cdash/1-2", "title": "Clinical Data Acquisition Standards Harmonization Model Version 1.2", "type": "Foundational Model"}, "priorVersion": {"href": "/mdr/cdash/1-1/classes/Events/fields/--PARTY", "title": "Accountable Party", "type": "Class Variable"}, "rootItem": {"href": "/mdr/root/cdash/classes/Events/fields/--PARTY", "title": "Accountable Party", "type": "Root Data Element"}, "sdtmClassMappingTargets": [{"href": "/mdr/sdtm/1-7/classes/Events/variables/--PARTY", "title": "Accountable Party", "type": "Class Variable"}], "self": {"href": "/mdr/cdash/1-2/classes/Events/fields/--PARTY", "title": "Accountable Party", "type": "Class Variable"}}, "definition": "The party accountable for the transferable object (e.g., device, specimen) as a result of the activity performed in the associated --TERM variable.", "implementationNotes": "Sponsor-defined controlled terminology. The party could be an individual (e.g., subject), an organization (e.g., sponsor), or a location that is a proxy for an individual or organization (e.g., site). This is usually a somewhat general term that is further identified in the -- PRTYID variable (e.g., SITE, SPONSOR, SUBJECT).", "label": "Accountable Party", "mappingInstructions": "Maps directly to the SDTM variable listed in the SDTM Target column.", "name": "--PARTY", "ordinal": "15", "prompt": "Accountable Party", "questionText": "Who [is/was] the accountable party?", "simpleDatatype": "Char"}, {"_links": {"parentClass": {"href": "/mdr/cdash/1-2/classes/Events", "title": "Events", "type": "Class"}, "parentProduct": {"href": "/mdr/cdash/1-2", "title": "Clinical Data Acquisition Standards Harmonization Model Version 1.2", "type": "Foundational Model"}, "priorVersion": {"href": "/mdr/cdash/1-1/classes/Events/fields/--PRTYID", "title": "Identification of Accountable Party", "type": "Class Variable"}, "rootItem": {"href": "/mdr/root/cdash/classes/Events/fields/--PRTYID", "title": "Identification of Accountable Party", "type": "Root Data Element"}, "sdtmClassMappingTargets": [{"href": "/mdr/sdtm/1-7/classes/Events/variables/--PRTYID", "title": "Identification of Accountable Party", "type": "Class Variable"}], "self": {"href": "/mdr/cdash/1-2/classes/Events/fields/--PRTYID", "title": "Identification of Accountable Party", "type": "Class Variable"}}, "definition": "Identification of the specific party accountable for the transferable object (e.g., device, specimen) after the action in -- TERM is taken.", "implementationNotes": "Used in conjunction with --PARTY. This identifier is defined by the sponsor.", "label": "Identification of Accountable Party", "mappingInstructions": "Maps directly to the SDTM variable listed in the SDTM Target column.", "name": "--PRTYID", "ordinal": "16", "prompt": "Accountable Party ID", "questionText": "What [is/was] the accountable party identifier?", "simpleDatatype": "Char"}, {"_links": {"parentClass": {"href": "/mdr/cdash/1-2/classes/Events", "title": "Events", "type": "Class"}, "parentProduct": {"href": "/mdr/cdash/1-2", "title": "Clinical Data Acquisition Standards Harmonization Model Version 1.2", "type": "Foundational Model"}, "priorVersion": {"href": "/mdr/cdash/1-1/classes/Events/fields/--SEV", "title": "Severity/Intensity", "type": "Class Variable"}, "rootItem": {"href": "/mdr/root/cdash/classes/Events/fields/--SEV", "title": "Severity/Intensity", "type": "Root Data Element"}, "sdtmClassMappingTargets": [{"href": "/mdr/sdtm/1-7/classes/Events/variables/--SEV", "title": "Severity/Intensity", "type": "Class Variable"}], "self": {"href": "/mdr/cdash/1-2/classes/Events/fields/--SEV", "title": "Severity/Intensity", "type": "Class Variable"}}, "definition": "The severity or intensity of the event.", "implementationNotes": "In the AE domain, AESEV uses CDISC Controlled Terminology (AESEV).", "label": "Severity/Intensity", "mappingInstructions": "Maps directly to the SDTM variable listed in the SDTM Target column.", "name": "--SEV", "ordinal": "17", "prompt": "Severity", "questionText": "What [is/was] the severity (of the event topic)?", "simpleDatatype": "Char"}, {"_links": {"codelist": [{"href": "/mdr/root/ct/sdtmct/codelists/C66767", "title": "Version-agnostic anchor resource for codelist C66767", "type": "Root Value Domain"}], "parentClass": {"href": "/mdr/cdash/1-2/classes/Events", "title": "Events", "type": "Class"}, "parentProduct": {"href": "/mdr/cdash/1-2", "title": "Clinical Data Acquisition Standards Harmonization Model Version 1.2", "type": "Foundational Model"}, "priorVersion": {"href": "/mdr/cdash/1-1/classes/Events/fields/--ACN", "title": "Action Taken with Study Treatment", "type": "Class Variable"}, "rootItem": {"href": "/mdr/root/cdash/classes/Events/fields/--ACN", "title": "Action Taken with Study Treatment", "type": "Root Data Element"}, "sdtmClassMappingTargets": [{"href": "/mdr/sdtm/1-7/classes/Events/variables/--ACN", "title": "Action Taken with Study Treatment", "type": "Class Variable"}], "self": {"href": "/mdr/cdash/1-2/classes/Events/fields/--ACN", "title": "Action Taken with Study Treatment", "type": "Class Variable"}}, "definition": "A description of the action taken with study treatment as a result of the event.", "implementationNotes": "How to handle multiple actions taken is sponsor-specific decision. This variable is not to be used for actions taken with devices.See the SDTMIG-MD for information on reporting multiple actions, or actions with multiple devices.", "label": "Action Taken with Study Treatment", "mappingInstructions": "Maps directly to the SDTM variable listed in the SDTM Target column.", "name": "--ACN", "ordinal": "18", "prompt": "Action Taken with Study Treatment", "questionText": "What action was taken with study treatment?", "simpleDatatype": "Char"}, {"_links": {"codelist": [{"href": "/mdr/root/ct/sdtmct/codelists/C66742", "title": "Version-agnostic anchor resource for codelist C66742", "type": "Root Value Domain"}], "parentClass": {"href": "/mdr/cdash/1-2/classes/Events", "title": "Events", "type": "Class"}, "parentProduct": {"href": "/mdr/cdash/1-2", "title": "Clinical Data Acquisition Standards Harmonization Model Version 1.2", "type": "Foundational Model"}, "priorVersion": {"href": "/mdr/cdash/1-1/classes/Events/fields/--SER", "title": "Serious Event", "type": "Class Variable"}, "rootItem": {"href": "/mdr/root/cdash/classes/Events/fields/--SER", "title": "Serious Event", "type": "Root Data Element"}, "sdtmClassMappingTargets": [{"href": "/mdr/sdtm/1-7/classes/Events/variables/--SER", "title": "Serious Event", "type": "Class Variable"}], "self": {"href": "/mdr/cdash/1-2/classes/Events/fields/--SER", "title": "Serious Event", "type": "Class Variable"}}, "definition": "An indication whether this event met the definition of serious.", "label": "Serious Event", "mappingInstructions": "Maps directly to the SDTM variable listed in the SDTM Target column.", "name": "--SER", "ordinal": "19", "prompt": "Serious", "questionText": "[Is/Was] [the event topic/it] serious?", "simpleDatatype": "Char"}, {"_links": {"parentClass": {"href": "/mdr/cdash/1-2/classes/Events", "title": "Events", "type": "Class"}, "parentProduct": {"href": "/mdr/cdash/1-2", "title": "Clinical Data Acquisition Standards Harmonization Model Version 1.2", "type": "Foundational Model"}, "priorVersion": {"href": "/mdr/cdash/1-1/classes/Events/fields/--ACNOTH", "title": "Other Action Taken", "type": "Class Variable"}, "rootItem": {"href": "/mdr/root/cdash/classes/Events/fields/--ACNOTH", "title": "Other Action Taken", "type": "Root Data Element"}, "sdtmClassMappingTargets": [{"href": "/mdr/sdtm/1-7/classes/Events/variables/--ACNOTH", "title": "Other Action Taken", "type": "Class Variable"}], "self": {"href": "/mdr/cdash/1-2/classes/Events/fields/--ACNOTH", "title": "Other Action Taken", "type": "Class Variable"}}, "definition": "A description of other action(s) taken as a result of the event that are unrelated to dose adjustments of the study treatment.", "label": "Other Action Taken", "mappingInstructions": "Maps directly to the SDTM variable listed in the SDTM Target column.", "name": "--ACNOTH", "ordinal": "20", "prompt": "Other Actions Taken", "questionText": "What other action(s) [were/was] taken?", "simpleDatatype": "Char"}, {"_links": {"parentClass": {"href": "/mdr/cdash/1-2/classes/Events", "title": "Events", "type": "Class"}, "parentProduct": {"href": "/mdr/cdash/1-2", "title": "Clinical Data Acquisition Standards Harmonization Model Version 1.2", "type": "Foundational Model"}, "priorVersion": {"href": "/mdr/cdash/1-1/classes/Events/fields/--ACNDEV", "title": "Action Taken with Device", "type": "Class Variable"}, "rootItem": {"href": "/mdr/root/cdash/classes/Events/fields/--ACNDEV", "title": "Action Taken with Device", "type": "Root Data Element"}, "sdtmClassMappingTargets": [{"href": "/mdr/sdtm/1-7/classes/Events/variables/--ACNDEV", "title": "Action Taken with Device", "type": "Class Variable"}], "self": {"href": "/mdr/cdash/1-2/classes/Events/fields/--ACNDEV", "title": "Action Taken with Device", "type": "Class Variable"}}, "definition": "A description of the action taken, with respect to a device used in a study, which may or may not be the device under study, as a result of the event.", "implementationNotes": "Sponsor-defined controlled terminology. This variable is intended to be used like --ACN, but refers to device rather than study treatment. See the SDTMIG-MD for information on reporting multiple actions, or actions with multiple devices.", "label": "Action Taken with Device", "mappingInstructions": "Maps directly to the SDTM variable listed in the SDTM Target column.", "name": "--ACNDEV", "ordinal": "21", "prompt": "Action Taken with Device", "questionText": "What action was taken with the device used in the study?", "simpleDatatype": "Char"}, {"_links": {"parentClass": {"href": "/mdr/cdash/1-2/classes/Events", "title": "Events", "type": "Class"}, "parentProduct": {"href": "/mdr/cdash/1-2", "title": "Clinical Data Acquisition Standards Harmonization Model Version 1.2", "type": "Foundational Model"}, "priorVersion": {"href": "/mdr/cdash/1-1/classes/Events/fields/--REL", "title": "Causality", "type": "Class Variable"}, "rootItem": {"href": "/mdr/root/cdash/classes/Events/fields/--REL", "title": "Causality", "type": "Root Data Element"}, "sdtmClassMappingTargets": [{"href": "/mdr/sdtm/1-7/classes/Events/variables/--REL", "title": "Causality", "type": "Class Variable"}], "self": {"href": "/mdr/cdash/1-2/classes/Events/fields/--REL", "title": "Causality", "type": "Class Variable"}}, "definition": "The investigator's opinion as to the relationship of the event to the study treatment.", "implementationNotes": "Sponsor-defined controlled terminology. ICH E2A and E2B examples include NOT RELATED, UNLIKELY RELATED, POSSIBLY RELATED, RELATED.", "label": "Causality", "mappingInstructions": "Maps directly to the SDTM variable listed in the SDTM Target column.", "name": "--REL", "ordinal": "22", "prompt": "Relationship to Study Treatment", "questionText": "[Is/Was] this event related to study treatment?", "simpleDatatype": "Char"}, {"_links": {"parentClass": {"href": "/mdr/cdash/1-2/classes/Events", "title": "Events", "type": "Class"}, "parentProduct": {"href": "/mdr/cdash/1-2", "title": "Clinical Data Acquisition Standards Harmonization Model Version 1.2", "type": "Foundational Model"}, "priorVersion": {"href": "/mdr/cdash/1-1/classes/Events/fields/--RELNST", "title": "Relationship to Non-Study Treatment", "type": "Class Variable"}, "rootItem": {"href": "/mdr/root/cdash/classes/Events/fields/--RELNST", "title": "Relationship to Non-Study Treatment", "type": "Root Data Element"}, "sdtmClassMappingTargets": [{"href": "/mdr/sdtm/1-7/classes/Events/variables/--RELNST", "title": "Relationship to Non-Study Treatment", "type": "Class Variable"}], "self": {"href": "/mdr/cdash/1-2/classes/Events/fields/--RELNST", "title": "Relationship to Non-Study Treatment", "type": "Class Variable"}}, "definition": "A description of the investigator's opinion as to whether the event may have been due to a treatment other than study treatment.", "implementationNotes": "May be reported as free text. Example: \"MORE LIKELY RELATED TO ASPIRIN USE\".", "label": "Relationship to Non-Study Treatment", "mappingInstructions": "Maps directly to the SDTM variable listed in the SDTM Target column.", "name": "--RELNST", "ordinal": "23", "prompt": "Relationship to Non-Study Treatment", "questionText": "What [is/was] the relationship to non-study treatment?", "simpleDatatype": "Char"}, {"_links": {"parentClass": {"href": "/mdr/cdash/1-2/classes/Events", "title": "Events", "type": "Class"}, "parentProduct": {"href": "/mdr/cdash/1-2", "title": "Clinical Data Acquisition Standards Harmonization Model Version 1.2", "type": "Foundational Model"}, "priorVersion": {"href": "/mdr/cdash/1-1/classes/Events/fields/--PATT", "title": "Pattern of Event", "type": "Class Variable"}, "rootItem": {"href": "/mdr/root/cdash/classes/Events/fields/--PATT", "title": "Pattern of Event", "type": "Root Data Element"}, "sdtmClassMappingTargets": [{"href": "/mdr/sdtm/1-7/classes/Events/variables/--PATT", "title": "Pattern of Event", "type": "Class Variable"}], "self": {"href": "/mdr/cdash/1-2/classes/Events/fields/--PATT", "title": "Pattern of Event", "type": "Class Variable"}}, "definition": "A description of the pattern of the event over time.", "implementationNotes": "Sponsor-defined controlled terminology", "label": "Pattern of Event", "mappingInstructions": "Maps directly to the SDTM variable listed in the SDTM Target column.", "name": "--PATT", "ordinal": "24", "prompt": "Pattern", "questionText": "What [is/was] the pattern of the event over time?", "simpleDatatype": "Char"}, {"_links": {"parentClass": {"href": "/mdr/cdash/1-2/classes/Events", "title": "Events", "type": "Class"}, "parentProduct": {"href": "/mdr/cdash/1-2", "title": "Clinical Data Acquisition Standards Harmonization Model Version 1.2", "type": "Foundational Model"}, "priorVersion": {"href": "/mdr/cdash/1-1/classes/Events/fields/--OUT", "title": "Outcome of Event", "type": "Class Variable"}, "rootItem": {"href": "/mdr/root/cdash/classes/Events/fields/--OUT", "title": "Outcome of Event", "type": "Root Data Element"}, "sdtmClassMappingTargets": [{"href": "/mdr/sdtm/1-7/classes/Events/variables/--OUT", "title": "Outcome of Event", "type": "Class Variable"}], "self": {"href": "/mdr/cdash/1-2/classes/Events/fields/--OUT", "title": "Outcome of Event", "type": "Class Variable"}}, "definition": "A description of the outcome of an event.", "implementationNotes": "CDISC Controlled Terminology (OUT) is used in the AE domain.", "label": "Outcome of Event", "mappingInstructions": "Maps directly to the SDTM variable listed in the SDTM Target column.", "name": "--OUT", "ordinal": "25", "prompt": "Outcome", "questionText": "What [is/was] the outcome (of the event/event topic)?", "simpleDatatype": "Char"}, {"_links": {"codelist": [{"href": "/mdr/root/ct/sdtmct/codelists/C66742", "title": "Version-agnostic anchor resource for codelist C66742", "type": "Root Value Domain"}], "parentClass": {"href": "/mdr/cdash/1-2/classes/Events", "title": "Events", "type": "Class"}, "parentProduct": {"href": "/mdr/cdash/1-2", "title": "Clinical Data Acquisition Standards Harmonization Model Version 1.2", "type": "Foundational Model"}, "priorVersion": {"href": "/mdr/cdash/1-1/classes/Events/fields/--CONTRT", "title": "Concomitant or Additional Trtmnt Given", "type": "Class Variable"}, "rootItem": {"href": "/mdr/root/cdash/classes/Events/fields/--CONTRT", "title": "Concomitant or Additional Trtmnt Given", "type": "Root Data Element"}, "sdtmClassMappingTargets": [{"href": "/mdr/sdtm/1-7/classes/Events/variables/--CONTRT", "title": "Concomitant or Additional Trtmnt Given", "type": "Class Variable"}], "self": {"href": "/mdr/cdash/1-2/classes/Events/fields/--CONTRT", "title": "Concomitant or Additional Trtmnt Given", "type": "Class Variable"}}, "definition": "An indication whether a concomitant or additional was treatment given because of the occurrence of the event.", "label": "Concomitant or Additional Trtmnt Given", "mappingInstructions": "Maps directly to the SDTM variable listed in the SDTM Target column.", "name": "--CONTRT", "ordinal": "26", "prompt": "Concomitant or Additional Trtmnt Given", "questionText": "Was a concomitant or additional treatment given (due to this [event])?", "simpleDatatype": "Char"}, {"_links": {"parentClass": {"href": "/mdr/cdash/1-2/classes/Events", "title": "Events", "type": "Class"}, "parentProduct": {"href": "/mdr/cdash/1-2", "title": "Clinical Data Acquisition Standards Harmonization Model Version 1.2", "type": "Foundational Model"}, "priorVersion": {"href": "/mdr/cdash/1-1/classes/Events/fields/--TOX", "title": "Toxicity", "type": "Class Variable"}, "rootItem": {"href": "/mdr/root/cdash/classes/Events/fields/--TOX", "title": "Toxicity", "type": "Root Data Element"}, "sdtmClassMappingTargets": [{"href": "/mdr/sdtm/1-7/classes/Events/variables/--TOX", "title": "Toxicity", "type": "Class Variable"}], "self": {"href": "/mdr/cdash/1-2/classes/Events/fields/--TOX", "title": "Toxicity", "type": "Class Variable"}}, "definition": "A description of toxicity quantified by --TOXGR (e.g., NCI CTCAE Short Name).", "implementationNotes": "If used, --TOX would be populated with the decoded value from --TOXGR. For example, if --TERM is HYPERTENSION, and --TOXGR is \"1\", --TOX is populated with \"Prehypertension (systolic BP 120 - 139 mm Hg or diastolic BP 80 - 89 mm Hg)\".", "label": "Toxicity", "mappingInstructions": "Maps directly to the SDTM variable listed in the SDTM Target column. The sponsor is expected to provide the toxicity scale name and version used to map the terms utilizing the Define-XML external codelist attributes.", "name": "--TOX", "ordinal": "27", "simpleDatatype": "Char"}, {"_links": {"parentClass": {"href": "/mdr/cdash/1-2/classes/Events", "title": "Events", "type": "Class"}, "parentProduct": {"href": "/mdr/cdash/1-2", "title": "Clinical Data Acquisition Standards Harmonization Model Version 1.2", "type": "Foundational Model"}, "priorVersion": {"href": "/mdr/cdash/1-1/classes/Events/fields/--TOXGR", "title": "Toxicity Grade", "type": "Class Variable"}, "rootItem": {"href": "/mdr/root/cdash/classes/Events/fields/--TOXGR", "title": "Toxicity Grade", "type": "Root Data Element"}, "sdtmClassMappingTargets": [{"href": "/mdr/sdtm/1-7/classes/Events/variables/--TOXGR", "title": "Toxicity Grade", "type": "Class Variable"}], "self": {"href": "/mdr/cdash/1-2/classes/Events/fields/--TOXGR", "title": "Toxicity Grade", "type": "Class Variable"}}, "definition": "The toxicity grade, using a standard toxicity scale (e.g., NCI CTCAE).", "implementationNotes": "Refer to ICH E3 guidelines for CSR, Section 12.2.4. CTCAE grade is commonly used in oncology studies although it can also be used elsewhere. Other published toxicity-like scales may be used.", "label": "Toxicity Grade", "mappingInstructions": "Maps directly to the SDTM variable listed in the SDTM Target column. The sponsor is expected to provide the toxicity scale name and version used to map the terms utilizing the Define-XML external codelist attributes.", "name": "--TOXGR", "ordinal": "28", "prompt": "[NCI CTCAE Toxicity] Grade", "questionText": "What [is/was] the [NCI CTCAE/Name of Scale] grade?", "simpleDatatype": "Char"}, {"_links": {"codelist": [{"href": "/mdr/root/ct/sdtmct/codelists/C66742", "title": "Version-agnostic anchor resource for codelist C66742", "type": "Root Value Domain"}], "parentClass": {"href": "/mdr/cdash/1-2/classes/Events", "title": "Events", "type": "Class"}, "parentProduct": {"href": "/mdr/cdash/1-2", "title": "Clinical Data Acquisition Standards Harmonization Model Version 1.2", "type": "Foundational Model"}, "priorVersion": {"href": "/mdr/cdash/1-1/classes/Events/fields/--ONGO", "title": "Ongoing Event", "type": "Class Variable"}, "rootItem": {"href": "/mdr/root/cdash/classes/Events/fields/--ONGO", "title": "Ongoing Event", "type": "Root Data Element"}, "sdtmClassMappingTargets": [{"href": "/mdr/sdtm/1-7/classes/GeneralObservations/variables/--ENRTPT", "title": "End Relative to Reference Time Point", "type": "Class Variable"}, {"href": "/mdr/sdtm/1-7/classes/GeneralObservations/variables/--ENRF", "title": "End Relative to Reference Period", "type": "Class Variable"}], "self": {"href": "/mdr/cdash/1-2/classes/Events/fields/--ONGO", "title": "Ongoing Event", "type": "Class Variable"}}, "definition": "An indication whether the event is ongoing as of a given timepoint when no end date is provided.", "implementationNotes": "The CDASH field --ONGO allows specific question text/prompt about events ending prior to the given timepoint. Select the appropriate text when designing the CRF. This may also included in the CRF title or instructions. Used in conjunction with either a reference timepoint (--ENTPT, --ENRTPT) or in conjunction with the study reference period (described as RFSTDTC to RFENDTC). May also be used as a tick/checkbox. See CDASHIG Section 3.7 for more information.", "label": "Ongoing Event", "mappingInstructions": "This does not map directly to an SDTM variable. May be used to populate a value into an SDTM relative timing variable such as --ENRF or --ENRTPT. When populating --ENRF, or --ENRTPT, if the value of the CDASH field --ONGO is \"Y\", a value from the CDISC CT (STENRF) may be used. When --ONGO refers to the study reference period (defined in DM.RFSTDTC to DM.RFENDTC), the SDTM variable --ENRF should be populated. When --ONGO is compared to another time point, the SDTM variables --ENRTPT and --ENTPT should be used. Note: --ENRTPT must refer to the time point anchor described in --ENTPT.", "name": "--ONGO", "ordinal": "29", "prompt": "Ongoing (as of the [Study-Specific Timepoint or Period])", "questionText": "[Is/Was] the [--TERM/event topic] ongoing (as of [the study-specific timepoint or period])?", "simpleDatatype": "Char"}, {"_links": {"codelist": [{"href": "/mdr/root/ct/sdtmct/codelists/C66742", "title": "Version-agnostic anchor resource for codelist C66742", "type": "Root Value Domain"}], "parentClass": {"href": "/mdr/cdash/1-2/classes/Events", "title": "Events", "type": "Class"}, "parentProduct": {"href": "/mdr/cdash/1-2", "title": "Clinical Data Acquisition Standards Harmonization Model Version 1.2", "type": "Foundational Model"}, "priorVersion": {"href": "/mdr/cdash/1-1/classes/Events/fields/--DIS", "title": "Caused Study Discontinuation", "type": "Class Variable"}, "rootItem": {"href": "/mdr/root/cdash/classes/Events/fields/--DIS", "title": "Caused Study Discontinuation", "type": "Root Data Element"}, "sdtmDatasetMappingTargets": [{"href": "/mdr/sdtm/1-7/datasets/SUPPQUAL/variables/QVAL", "title": "Data Value", "type": "SDTM Dataset Variable"}], "self": {"href": "/mdr/cdash/1-2/classes/Events/fields/--DIS", "title": "Caused Study Discontinuation", "type": "Class Variable"}}, "definition": "An indication whether the event caused the subject to discontinue from the study.", "implementationNotes": "May be used to create a RELREC to link the record to a Disposition record (see SDTMIG). The sponsor could submit \"--DIS\" in a SUPP-- dataset as a value of SUPP--.QVAL where SUPP--.QNAM is \"--DIS\" and SUPP--.QLABEL is \"Caused Study Discontinuation\", if appropriate.", "label": "Caused Study Discontinuation", "mappingInstructions": "Does not map directly to an SDTM variable. For SDTM submission datasets, may be used to create a RELREC to link Event and Disposition records. The sponsor could submit \"--DIS\" in a SUPP-- dataset as a value of SUPP--.QVAL where SUPP--.QNAM is \"--DIS\" and SUPP--.QLABEL is \"Caused Study Discontinuation\", if appropriate.", "name": "--DIS", "ordinal": "30", "prompt": "Caused Study Discontinuation", "questionText": "Did the [--TERM/event topic] cause the subject to be discontinued from the study?", "simpleDatatype": "Char"}, {"_links": {"codelist": [{"href": "/mdr/root/ct/sdtmct/codelists/C66742", "title": "Version-agnostic anchor resource for codelist C66742", "type": "Root Value Domain"}], "parentClass": {"href": "/mdr/cdash/1-2/classes/Events", "title": "Events", "type": "Class"}, "parentProduct": {"href": "/mdr/cdash/1-2", "title": "Clinical Data Acquisition Standards Harmonization Model Version 1.2", "type": "Foundational Model"}, "priorVersion": {"href": "/mdr/cdash/1-1/classes/Events/fields/--CTRL", "title": "Disease or Symptom Under Control", "type": "Class Variable"}, "rootItem": {"href": "/mdr/root/cdash/classes/Events/fields/--CTRL", "title": "Disease or Symptom Under Control", "type": "Root Data Element"}, "sdtmDatasetMappingTargets": [{"href": "/mdr/sdtm/1-7/datasets/SUPPQUAL/variables/QVAL", "title": "Data Value", "type": "SDTM Dataset Variable"}], "self": {"href": "/mdr/cdash/1-2/classes/Events/fields/--CTRL", "title": "Disease or Symptom Under Control", "type": "Class Variable"}}, "definition": "An indication that the disease/symptoms were under control at the time of data collection.", "implementationNotes": "The conditions would typically be defined in the protocol. For example, a sponsor may ask the site to indicate whether a subject's hypertension is under control at the time of enrollment in the study.", "label": "Disease or Symptom Under Control", "mappingInstructions": "This information could be submitted in a SUPP-- dataset as the value of SUPP--.QVAL where SUPP--.QNAM is \"--CTRL\" and SUPP--.QLABEL is \"Disease or Symptom Under Control\". Refer to the current SDTM and SDTMIG for instructions on placement of non-standard variables (NSVs) in SDTM domains.", "name": "--CTRL", "ordinal": "31", "prompt": "[--TERM/Event Topic] Under Control", "questionText": "[Is/Was] the [--TERM/event topic] under control?", "simpleDatatype": "Char"}, {"_links": {"parentClass": {"href": "/mdr/cdash/1-2/classes/Events", "title": "Events", "type": "Class"}, "parentProduct": {"href": "/mdr/cdash/1-2", "title": "Clinical Data Acquisition Standards Harmonization Model Version 1.2", "type": "Foundational Model"}, "priorVersion": {"href": "/mdr/cdash/1-1/classes/Events/fields/--REAS", "title": "Reason for the Event", "type": "Class Variable"}, "rootItem": {"href": "/mdr/root/cdash/classes/Events/fields/--REAS", "title": "Reason for the Event", "type": "Root Data Element"}, "sdtmDatasetMappingTargets": [{"href": "/mdr/sdtm/1-7/datasets/SUPPQUAL/variables/QVAL", "title": "Data Value", "type": "SDTM Dataset Variable"}], "self": {"href": "/mdr/cdash/1-2/classes/Events/fields/--REAS", "title": "Reason for the Event", "type": "Class Variable"}}, "definition": "A description of the reason for the event.", "implementationNotes": "To ensure data quality, it is recommended that sponsors develop controlled terminology. Reason for Health Care Encounters could include LACK OF EFFICACY, ADVERSE EVENT, CHEMOTHERAPY, PHYSICAL THERAPY, INDICATION UNDER STUDY, NOT INDICATION UNDER STUDY.", "label": "Reason for the Event", "mappingInstructions": "This information could be submitted in a SUPP-- dataset as the value of SUPP--.QVAL where SUPP--.QNAM is \"--REAS\" and SUPP--.QLABEL is \"Reason for the Event\". Refer to the current SDTM and SDTMIG for instructions on placement of NSVs in SDTM domains.", "name": "--REAS", "ordinal": "32", "prompt": "Reason for the [--TERM/Event Topic]", "questionText": "What [is/was] the reason (for the [--TERM/event topic])?", "simpleDatatype": "Char"}, {"_links": {"parentClass": {"href": "/mdr/cdash/1-2/classes/Events", "title": "Events", "type": "Class"}, "parentProduct": {"href": "/mdr/cdash/1-2", "title": "Clinical Data Acquisition Standards Harmonization Model Version 1.2", "type": "Foundational Model"}, "priorVersion": {"href": "/mdr/cdash/1-1/classes/Events/fields/COVAL", "title": "Comment", "type": "Class Variable"}, "rootItem": {"href": "/mdr/root/cdash/classes/Events/fields/COVAL", "title": "Comment", "type": "Root Data Element"}, "sdtmDatasetMappingTargets": [{"href": "/mdr/sdtm/1-7/datasets/CO/variables/COVAL", "title": "Comment", "type": "SDTM Dataset Variable"}], "self": {"href": "/mdr/cdash/1-2/classes/Events/fields/COVAL", "title": "Comment", "type": "Class Variable"}}, "definition": "A free-text comment.", "implementationNotes": "If an additional free-text field is needed to provide a comment about a particular record, use the COVAL(n) field to collect the free text, and associate the free-text comment with the original record using SDTM variables RDOMAIN, IDVAR, IDVARVAL, COREF. See the SDTMIG for more information.", "label": "Comment", "mappingInstructions": "This does not map directly to an SDTM variable. For the SDTM dataset, the CDASH variable COVAL maps to the SDTM variable COVAL (COVAL2, COVAL3) in the CO domain. Associate the free-text comment in the CO domain with the original record using RDOMAIN, IDVAR, IDVARVAL, COREF.", "name": "COVAL", "ordinal": "33", "prompt": "[abbreviated version of the protocol-specified targeted question]", "questionText": "[Protocol-specified Targeted Question]?", "simpleDatatype": "Char"}, {"_links": {"parentClass": {"href": "/mdr/cdash/1-2/classes/Events", "title": "Events", "type": "Class"}, "parentProduct": {"href": "/mdr/cdash/1-2", "title": "Clinical Data Acquisition Standards Harmonization Model Version 1.2", "type": "Foundational Model"}, "priorVersion": {"href": "/mdr/cdash/1-1/classes/Events/fields/--MODIFY", "title": "Modified Reported Term", "type": "Class Variable"}, "rootItem": {"href": "/mdr/root/cdash/classes/Events/fields/--MODIFY", "title": "Modified Reported Term", "type": "Root Data Element"}, "sdtmClassMappingTargets": [{"href": "/mdr/sdtm/1-7/classes/Events/variables/--MODIFY", "title": "Modified Reported Term", "type": "Class Variable"}], "self": {"href": "/mdr/cdash/1-2/classes/Events/fields/--MODIFY", "title": "Modified Reported Term", "type": "Class Variable"}}, "definition": "If the value for --TERM is modified for coding purposes, then the modified text is placed here.", "implementationNotes": "This is not a data collection field that will appear on the CRF; sponsors will populate this through the coding process. Rationale for adding coding variables to CDASH is to provide a more complete data management package.", "label": "Modified Reported Term", "mappingInstructions": "Maps directly to the SDTM variable listed in the SDTM Target column.", "name": "--MODIFY", "ordinal": "34", "simpleDatatype": "Char"}, {"_links": {"parentClass": {"href": "/mdr/cdash/1-2/classes/Events", "title": "Events", "type": "Class"}, "parentProduct": {"href": "/mdr/cdash/1-2", "title": "Clinical Data Acquisition Standards Harmonization Model Version 1.2", "type": "Foundational Model"}, "priorVersion": {"href": "/mdr/cdash/1-1/classes/Events/fields/--LLT", "title": "Lowest Level Term", "type": "Class Variable"}, "rootItem": {"href": "/mdr/root/cdash/classes/Events/fields/--LLT", "title": "Lowest Level Term", "type": "Root Data Element"}, "sdtmClassMappingTargets": [{"href": "/mdr/sdtm/1-7/classes/Events/variables/--LLT", "title": "Lowest Level Term", "type": "Class Variable"}], "self": {"href": "/mdr/cdash/1-2/classes/Events/fields/--LLT", "title": "Lowest Level Term", "type": "Class Variable"}}, "definition": "The dictionary-derived text description of the lowest level term.", "implementationNotes": "This field does not typically appear on the CRF. Sponsors will populate this through the coding process (e.g., using MedDRA). Rationale for adding coding variables to CDASH is to provide a more complete data management package.", "label": "Lowest Level Term", "mappingInstructions": "Maps directly to the SDTM variable listed in the SDTM Target column. The sponsor is expected to provide the dictionary name and version used to code the event utilizing the Define-XML external codelist attributes. Sponsors should include an Origin column in the define metadata document to indicate that the data was \"ASSIGNED\".", "name": "--LLT", "ordinal": "35", "simpleDatatype": "Char"}, {"_links": {"parentClass": {"href": "/mdr/cdash/1-2/classes/Events", "title": "Events", "type": "Class"}, "parentProduct": {"href": "/mdr/cdash/1-2", "title": "Clinical Data Acquisition Standards Harmonization Model Version 1.2", "type": "Foundational Model"}, "priorVersion": {"href": "/mdr/cdash/1-1/classes/Events/fields/--LLTCD", "title": "Lowest Level Term Code", "type": "Class Variable"}, "rootItem": {"href": "/mdr/root/cdash/classes/Events/fields/--LLTCD", "title": "Lowest Level Term Code", "type": "Root Data Element"}, "sdtmClassMappingTargets": [{"href": "/mdr/sdtm/1-7/classes/Events/variables/--LLTCD", "title": "Lowest Level Term Code", "type": "Class Variable"}], "self": {"href": "/mdr/cdash/1-2/classes/Events/fields/--LLTCD", "title": "Lowest Level Term Code", "type": "Class Variable"}}, "definition": "The dictionary-derived code for the lowest level term.", "implementationNotes": "This field does not typically appear on the CRF. Sponsors will populate this through the coding process (e.g., using MedDRA). Rationale for adding coding variables to CDASH is to provide a more complete data management package.", "label": "Lowest Level Term Code", "mappingInstructions": "Maps directly to the SDTM variable listed in the SDTM Target column. The sponsor is expected to provide the dictionary name and version used to code the event utilizing the Define-XML external codelist attributes. Sponsors should include an Origin column in the define metadata document to indicate that the data was \"ASSIGNED\".", "name": "--LLTCD", "ordinal": "36", "simpleDatatype": "Num"}, {"_links": {"parentClass": {"href": "/mdr/cdash/1-2/classes/Events", "title": "Events", "type": "Class"}, "parentProduct": {"href": "/mdr/cdash/1-2", "title": "Clinical Data Acquisition Standards Harmonization Model Version 1.2", "type": "Foundational Model"}, "priorVersion": {"href": "/mdr/cdash/1-1/classes/Events/fields/--PTCD", "title": "Preferred Term Code", "type": "Class Variable"}, "rootItem": {"href": "/mdr/root/cdash/classes/Events/fields/--PTCD", "title": "Preferred Term Code", "type": "Root Data Element"}, "sdtmClassMappingTargets": [{"href": "/mdr/sdtm/1-7/classes/Events/variables/--PTCD", "title": "Preferred Term Code", "type": "Class Variable"}], "self": {"href": "/mdr/cdash/1-2/classes/Events/fields/--PTCD", "title": "Preferred Term Code", "type": "Class Variable"}}, "definition": "The dictionary-derived code for the preferred term.", "implementationNotes": "This field does not typically appear on the CRF. Sponsors will populate this through the coding process (e.g., using MedDRA). Rationale for adding coding variables to CDASH is to provide a more complete data management package.", "label": "Preferred Term Code", "mappingInstructions": "Maps directly to the SDTM variable listed in the SDTM Target column. The sponsor is expected to provide the dictionary name and version used to code the event utilizing the Define-XML external codelist attributes. Sponsors should include an Origin in the define metadata to indicate that the data was \"ASSIGNED\".", "name": "--PTCD", "ordinal": "37", "simpleDatatype": "Num"}, {"_links": {"parentClass": {"href": "/mdr/cdash/1-2/classes/Events", "title": "Events", "type": "Class"}, "parentProduct": {"href": "/mdr/cdash/1-2", "title": "Clinical Data Acquisition Standards Harmonization Model Version 1.2", "type": "Foundational Model"}, "priorVersion": {"href": "/mdr/cdash/1-1/classes/Events/fields/--SOC", "title": "Primary System Organ Class", "type": "Class Variable"}, "rootItem": {"href": "/mdr/root/cdash/classes/Events/fields/--SOC", "title": "Primary System Organ Class", "type": "Root Data Element"}, "sdtmClassMappingTargets": [{"href": "/mdr/sdtm/1-7/classes/Events/variables/--SOC", "title": "Primary System Organ Class", "type": "Class Variable"}], "self": {"href": "/mdr/cdash/1-2/classes/Events/fields/--SOC", "title": "Primary System Organ Class", "type": "Class Variable"}}, "definition": "The dictionary-derived text description of the primary system organ class (SOC).", "implementationNotes": "This field does not typically appear on the CRF. Sponsors will populate this through the coding process (e.g., using MedDRA). Rationale for adding coding variables to CDASH is to provide a more complete data management package.", "label": "Primary System Organ Class", "mappingInstructions": "Maps directly to the SDTM variable listed in the SDTM Target column. The sponsor is expected to provide the dictionary name and version used to code the event utilizing the Define-XML external codelist attributes. Sponsors should include an Origin column in the define metadata document to indicate that the data was \"ASSIGNED\".", "name": "--SOC", "ordinal": "38", "simpleDatatype": "Char"}, {"_links": {"parentClass": {"href": "/mdr/cdash/1-2/classes/Events", "title": "Events", "type": "Class"}, "parentProduct": {"href": "/mdr/cdash/1-2", "title": "Clinical Data Acquisition Standards Harmonization Model Version 1.2", "type": "Foundational Model"}, "priorVersion": {"href": "/mdr/cdash/1-1/classes/Events/fields/--SOCCD", "title": "Primary System Organ Class Code", "type": "Class Variable"}, "rootItem": {"href": "/mdr/root/cdash/classes/Events/fields/--SOCCD", "title": "Primary System Organ Class Code", "type": "Root Data Element"}, "sdtmClassMappingTargets": [{"href": "/mdr/sdtm/1-7/classes/Events/variables/--SOCCD", "title": "Primary System Organ Class Code", "type": "Class Variable"}], "self": {"href": "/mdr/cdash/1-2/classes/Events/fields/--SOCCD", "title": "Primary System Organ Class Code", "type": "Class Variable"}}, "definition": "The dictionary-derived code for the primary system organ class (SOC).", "implementationNotes": "This field does not typically appear on the CRF. Sponsors will populate this through the coding process (e.g., using MedDRA). Rationale for adding coding variables to CDASH is to provide a more complete data management package.", "label": "Primary System Organ Class Code", "mappingInstructions": "Maps directly to the SDTM variable listed in the SDTM Target column. The sponsor is expected to provide the dictionary name and version used to code the event utilizing the Define-XML external codelist attributes. Sponsors should include an Origin column in the define metadata document to indicate that the data was \"ASSIGNED\".", "name": "--SOCCD", "ordinal": "39", "simpleDatatype": "Num"}, {"_links": {"parentClass": {"href": "/mdr/cdash/1-2/classes/Events", "title": "Events", "type": "Class"}, "parentProduct": {"href": "/mdr/cdash/1-2", "title": "Clinical Data Acquisition Standards Harmonization Model Version 1.2", "type": "Foundational Model"}, "priorVersion": {"href": "/mdr/cdash/1-1/classes/Events/fields/--HLT", "title": "High Level Term", "type": "Class Variable"}, "rootItem": {"href": "/mdr/root/cdash/classes/Events/fields/--HLT", "title": "High Level Term", "type": "Root Data Element"}, "sdtmClassMappingTargets": [{"href": "/mdr/sdtm/1-7/classes/Events/variables/--HLT", "title": "High Level Term", "type": "Class Variable"}], "self": {"href": "/mdr/cdash/1-2/classes/Events/fields/--HLT", "title": "High Level Term", "type": "Class Variable"}}, "definition": "The dictionary-derived text description of the high level term for the primary system organ class (SOC).", "implementationNotes": "This field does not typically appear on the CRF. Sponsors will populate this through the coding process (e.g., using MedDRA). Rationale for adding coding variables to CDASH is to provide a more complete data management package.", "label": "High Level Term", "mappingInstructions": "Maps directly to the SDTM variable listed in the SDTM Target column. The sponsor is expected to provide the dictionary name and version used to code the event utilizing the Define-XML external codelist attributes. Sponsors should include an Origin column in the define metadata document to indicate that the data was \"ASSIGNED\".", "name": "--HLT", "ordinal": "40", "simpleDatatype": "Char"}, {"_links": {"parentClass": {"href": "/mdr/cdash/1-2/classes/Events", "title": "Events", "type": "Class"}, "parentProduct": {"href": "/mdr/cdash/1-2", "title": "Clinical Data Acquisition Standards Harmonization Model Version 1.2", "type": "Foundational Model"}, "priorVersion": {"href": "/mdr/cdash/1-1/classes/Events/fields/--HLTCD", "title": "High Level Term Code", "type": "Class Variable"}, "rootItem": {"href": "/mdr/root/cdash/classes/Events/fields/--HLTCD", "title": "High Level Term Code", "type": "Root Data Element"}, "sdtmClassMappingTargets": [{"href": "/mdr/sdtm/1-7/classes/Events/variables/--HLTCD", "title": "High Level Term Code", "type": "Class Variable"}], "self": {"href": "/mdr/cdash/1-2/classes/Events/fields/--HLTCD", "title": "High Level Term Code", "type": "Class Variable"}}, "definition": "The dictionary-derived code for the high level term for the primary system organ class (SOC).", "implementationNotes": "This field does not typically appear on the CRF. Sponsors will populate this through the coding process (e.g., using MedDRA). Rationale for adding coding variables to CDASH is to provide a more complete data management package.", "label": "High Level Term Code", "mappingInstructions": "Maps directly to the SDTM variable listed in the SDTM Target column. The sponsor is expected to provide the dictionary name and version used to code the event utilizing the Define-XML external codelist attributes. Sponsors should include an Origin column in the define metadata document to indicate that the data was \"ASSIGNED\".", "name": "--HLTCD", "ordinal": "41", "simpleDatatype": "Num"}, {"_links": {"parentClass": {"href": "/mdr/cdash/1-2/classes/Events", "title": "Events", "type": "Class"}, "parentProduct": {"href": "/mdr/cdash/1-2", "title": "Clinical Data Acquisition Standards Harmonization Model Version 1.2", "type": "Foundational Model"}, "priorVersion": {"href": "/mdr/cdash/1-1/classes/Events/fields/--HLGT", "title": "High Level Group Term", "type": "Class Variable"}, "rootItem": {"href": "/mdr/root/cdash/classes/Events/fields/--HLGT", "title": "High Level Group Term", "type": "Root Data Element"}, "sdtmClassMappingTargets": [{"href": "/mdr/sdtm/1-7/classes/Events/variables/--HLGT", "title": "High Level Group Term", "type": "Class Variable"}], "self": {"href": "/mdr/cdash/1-2/classes/Events/fields/--HLGT", "title": "High Level Group Term", "type": "Class Variable"}}, "definition": "The dictionary-derived text description of the high level group term for the primary system organ class (SOC).", "implementationNotes": "This field does not typically appear on the CRF. Sponsors will populate this through the coding process (e.g., using MedDRA). Rationale for adding coding variables to CDASH is to provide a more complete data management package.", "label": "High Level Group Term", "mappingInstructions": "Maps directly to the SDTM variable listed in the SDTM Target column. The sponsor is expected to provide the dictionary name and version used to code the event utilizing the Define-XML external codelist attributes. Sponsors should include an Origin column in the define metadata document to indicate that the data was \"ASSIGNED\".", "name": "--HLGT", "ordinal": "42", "simpleDatatype": "Char"}, {"_links": {"parentClass": {"href": "/mdr/cdash/1-2/classes/Events", "title": "Events", "type": "Class"}, "parentProduct": {"href": "/mdr/cdash/1-2", "title": "Clinical Data Acquisition Standards Harmonization Model Version 1.2", "type": "Foundational Model"}, "priorVersion": {"href": "/mdr/cdash/1-1/classes/Events/fields/--HLGTCD", "title": "High Level Group Term Code", "type": "Class Variable"}, "rootItem": {"href": "/mdr/root/cdash/classes/Events/fields/--HLGTCD", "title": "High Level Group Term Code", "type": "Root Data Element"}, "sdtmClassMappingTargets": [{"href": "/mdr/sdtm/1-7/classes/Events/variables/--HLGTCD", "title": "High Level Group Term Code", "type": "Class Variable"}], "self": {"href": "/mdr/cdash/1-2/classes/Events/fields/--HLGTCD", "title": "High Level Group Term Code", "type": "Class Variable"}}, "definition": "The dictionary-derived code for the high level group term for the primary system organ class (SOC).", "implementationNotes": "This field does not typically appear on the CRF. Sponsors will populate this through the coding process (e.g., using MedDRA). Rationale for adding coding variables to CDASH is to provide a more complete data management package.", "label": "High Level Group Term Code", "mappingInstructions": "Maps directly to the SDTM variable listed in the SDTM Target column. The sponsor is expected to provide the dictionary name and version used to code the event utilizing the Define-XML external codelist attributes. Sponsors should include an Origin column in the define metadata document to indicate that the data was \"ASSIGNED\".", "name": "--HLGTCD", "ordinal": "43", "simpleDatatype": "Num"}], "description": "This SDTM class captures planned protocol milestones such as randomization and study completion, and occurrences, conditions, or incidents independent of planned study evaluations occurring during the trial (e.g., adverse events) or prior to the trial (e.g., medical history). (Source: CDISC Controlled Terminology, GNRLOBSC, C103372, 2021-06-25)", "label": "Events", "name": "Events", "ordinal": "2"}
