{"_links": {"parentProduct": {"href": "/mdr/cdash/1-2", "title": "Clinical Data Acquisition Standards Harmonization Model Version 1.2", "type": "Foundational Model"}, "priorVersion": {"href": "/mdr/cdash/1-1/classes/Findings", "title": "Findings", "type": "Class"}, "self": {"href": "/mdr/cdash/1-2/classes/Findings", "title": "Findings", "type": "Class"}}, "cdashModelFields": [{"_links": {"codelist": [{"href": "/mdr/root/ct/sdtmct/codelists/C66742", "title": "Version-agnostic anchor resource for codelist C66742", "type": "Root Value Domain"}], "parentClass": {"href": "/mdr/cdash/1-2/classes/Findings", "title": "Findings", "type": "Class"}, "parentProduct": {"href": "/mdr/cdash/1-2", "title": "Clinical Data Acquisition Standards Harmonization Model Version 1.2", "type": "Foundational Model"}, "priorVersion": {"href": "/mdr/cdash/1-1/classes/Findings/fields/--YN", "title": "Any [Finding]", "type": "Class Variable"}, "rootItem": {"href": "/mdr/root/cdash/classes/Findings/fields/--YN", "title": "Any [Finding]", "type": "Root Data Element"}, "self": {"href": "/mdr/cdash/1-2/classes/Findings/fields/--YN", "title": "Any [Finding]", "type": "Class Variable"}}, "definition": "An indication whether or not any data was collected for the finding topic.", "implementationNotes": "This is a field that can be used in any CRF to indicate whether or not there is data to record. Used primarily as a data-cleaning field or to dynamically drive EDC form functionality, this provides verification that all other fields on the CRF were deliberately left blank. For example, used in the DD domain to indicate no information on any death details are being provided, or used in the IE domain to indicate whether the subject met all the eligibility requirements for this study at the time the subject was enrolled. \\n --PERF should be used to capture a response about whether planned measurements, tests, observations were done.", "label": "Any [Finding]", "mappingInstructions": "Does not map to an SDTM variable. The SDTM annotated CRF indicates that this field is NOT SUBMITTED.", "name": "--YN", "ordinal": "1", "prompt": "Any [Findings topic(s)] ([study specific time frame])", "questionText": "Has the subject had any [Findings topic(s)] ([study specific time frame])?; [Was/Were/Is] (there) [a/any] [Findings topic(s)] (reported/available) ([study specific time frame])?; Were all eligibility criteria met?", "simpleDatatype": "Char"}, {"_links": {"codelist": [{"href": "/mdr/root/ct/sdtmct/codelists/C66742", "title": "Version-agnostic anchor resource for codelist C66742", "type": "Root Value Domain"}], "parentClass": {"href": "/mdr/cdash/1-2/classes/Findings", "title": "Findings", "type": "Class"}, "parentProduct": {"href": "/mdr/cdash/1-2", "title": "Clinical Data Acquisition Standards Harmonization Model Version 1.2", "type": "Foundational Model"}, "priorVersion": {"href": "/mdr/cdash/1-1/classes/Findings/fields/--PERF", "title": "[Observation] Performed", "type": "Class Variable"}, "rootItem": {"href": "/mdr/root/cdash/classes/Findings/fields/--PERF", "title": "[Observation] Performed", "type": "Root Data Element"}, "sdtmClassMappingTargets": [{"href": "/mdr/sdtm/1-7/classes/Findings/variables/--STAT", "title": "Completion Status", "type": "Class Variable"}], "self": {"href": "/mdr/cdash/1-2/classes/Findings/fields/--PERF", "title": "[Observation] Performed", "type": "Class Variable"}}, "definition": "An indication of whether or not a planned measurement, series of measurements, test, observation or specimen was performed or collected.", "implementationNotes": "This field is used to capture a response to whether or not a planned measurement, test, or observation was performed. A negative response can be collected as \"N\" and mapped to the --STAT variable in SDTM as \"NOT DONE\".", "label": "[Observation] Performed", "mappingInstructions": "This field does not map directly to an SDTM variable. May be used to populate a value into the SDTM variable --STAT. If the CDASH variable --PERF=\"N\", the value of the STDM variable --STAT is \"NOT DONE\". If --PERF= \"Y\", --STAT is null. A combination of SDTM variables (e.g., --CAT and --SCAT, --TPT ) is used to indicate that multiple tests were not done. In this situation, the SDTM variable --TESTCD would be populated with --ALL and an appropriate test name (--TEST) provided. See SDTMIG for additional information.", "name": "--PERF", "ordinal": "2", "prompt": "[--TEST/topic] ([Measurement (s)/Test(s)/Examination(s)/Specimen(s)/Assessment(s)/Question(s) Sample(s)]) [Performed/Collected]", "questionText": "[Were (any)/Was (the)] [--TEST/topic] ([measurement(s)/test(s)/examination(s)/question(s)/assessment(s)/specimen(s)/sample(s)]) [performed/collected]?", "simpleDatatype": "Char"}, {"_links": {"parentClass": {"href": "/mdr/cdash/1-2/classes/Findings", "title": "Findings", "type": "Class"}, "parentProduct": {"href": "/mdr/cdash/1-2", "title": "Clinical Data Acquisition Standards Harmonization Model Version 1.2", "type": "Foundational Model"}, "priorVersion": {"href": "/mdr/cdash/1-1/classes/Findings/fields/--TESTCD", "title": "Short Name of Measurement, Test or Examination", "type": "Class Variable"}, "rootItem": {"href": "/mdr/root/cdash/classes/Findings/fields/--TESTCD", "title": "Short Name of Measurement, Test, or Exam", "type": "Root Data Element"}, "sdtmClassMappingTargets": [{"href": "/mdr/sdtm/1-7/classes/Findings/variables/--TESTCD", "title": "Short Name of Measurement, Test, or Exam", "type": "Class Variable"}], "self": {"href": "/mdr/cdash/1-2/classes/Findings/fields/--TESTCD", "title": "Short Name of Measurement, Test, or Exam", "type": "Class Variable"}}, "definition": "Short character value code for the test being performed.", "implementationNotes": "May be used as a column heading when converting from a vertical dataset format to a horizontal dataset format. --TESTCD is most useful as a variable name or variable naming fragment (e.g., [--TESTCD_--ORRES]) for the clinical database or EDC system for the field in which the result is collected for that test. The short value can be up to 8 characters. When individual codelist names are used for each domain, the CDASH model does not include any Codelist name.", "label": "Short Name of Measurement, Test, or Exam", "mappingInstructions": "Maps directly to the SDTM variable listed in the SDTM Target column. The SDTM variable --TESTCD may be determined from the value collected in --TEST. The SDTMIG variables --TESTCD and --TEST are required in SDTM.", "name": "--TESTCD", "ordinal": "3", "simpleDatatype": "Char"}, {"_links": {"parentClass": {"href": "/mdr/cdash/1-2/classes/Findings", "title": "Findings", "type": "Class"}, "parentProduct": {"href": "/mdr/cdash/1-2", "title": "Clinical Data Acquisition Standards Harmonization Model Version 1.2", "type": "Foundational Model"}, "priorVersion": {"href": "/mdr/cdash/1-1/classes/Findings/fields/--TEST", "title": "Name of Measurement, Test or Examination", "type": "Class Variable"}, "rootItem": {"href": "/mdr/root/cdash/classes/Findings/fields/--TEST", "title": "Name of Measurement, Test, or Exam", "type": "Root Data Element"}, "sdtmClassMappingTargets": [{"href": "/mdr/sdtm/1-7/classes/Findings/variables/--TEST", "title": "Name of Measurement, Test, or Exam", "type": "Class Variable"}], "self": {"href": "/mdr/cdash/1-2/classes/Findings/fields/--TEST", "title": "Name of Measurement, Test, or Exam", "type": "Class Variable"}}, "definition": "Descriptive name for the test being performed. Examples: Platelet, Systolic Blood Pressure, Summary (Min) RR Duration, Eye Examination.", "implementationNotes": "The test name will usually be pre-printed on the CRF, and not solicited as a question. If the form is laid out as a grid, then the column can be headed Test or Test Name. --TEST is most useful as the PROMPT on the field in which the RESULT for that test is collected. When individual codelist names are used for each domain, the CDASH model does not include any Codelist name.", "label": "Name of Measurement, Test, or Exam", "mappingInstructions": "Maps directly to the SDTM variable listed in the SDTM Target column. The SDTM variable --TESTCD may be determined from the value collected in --TEST. The SDTMIG variables --TESTCD and --TEST are required in SDTM.", "name": "--TEST", "ordinal": "4", "prompt": "[Measurement/Test/Examination/Question/Assessment] (Name)", "questionText": "What [is/was] the name (of the [measurement/test/examination/question/assessment])?", "simpleDatatype": "Char"}, {"_links": {"parentClass": {"href": "/mdr/cdash/1-2/classes/Findings", "title": "Findings", "type": "Class"}, "parentProduct": {"href": "/mdr/cdash/1-2", "title": "Clinical Data Acquisition Standards Harmonization Model Version 1.2", "type": "Foundational Model"}, "priorVersion": {"href": "/mdr/cdash/1-1/classes/Findings/fields/--TSTDTL", "title": "Measurement, Test or Examination Detail", "type": "Class Variable"}, "rootItem": {"href": "/mdr/root/cdash/classes/Findings/fields/--TSTDTL", "title": "Measurement, Test or Examination Detail", "type": "Root Data Element"}, "sdtmClassMappingTargets": [{"href": "/mdr/sdtm/1-7/classes/Findings/variables/--TSTDTL", "title": "Measurement, Test, or Examination Detail", "type": "Class Variable"}], "self": {"href": "/mdr/cdash/1-2/classes/Findings/fields/--TSTDTL", "title": "Measurement, Test or Examination Detail", "type": "Class Variable"}}, "definition": "A further description of --TESTCD and --TEST.", "implementationNotes": "It is recommended that the test detail name be pre-printed on the CRF. If the form is laid out as a grid, then the column can be headed Test or Test Name. When individual codelist names are used for each domain, the CDASH model does not include any Codelist name.", "label": "Measurement, Test or Examination Detail", "mappingInstructions": "Maps directly to the SDTM variable listed in the SDTM Target column.", "name": "--TSTDTL", "ordinal": "5", "prompt": "[Measurement/Test/Examination/Question/Assessment] Detail (Name)", "questionText": "What [is/was] the [measurement/test/examination/question/assessment] detail name?", "simpleDatatype": "Char"}, {"_links": {"parentClass": {"href": "/mdr/cdash/1-2/classes/Findings", "title": "Findings", "type": "Class"}, "parentProduct": {"href": "/mdr/cdash/1-2", "title": "Clinical Data Acquisition Standards Harmonization Model Version 1.2", "type": "Foundational Model"}, "priorVersion": {"href": "/mdr/cdash/1-1/classes/Findings/fields/--CAT", "title": "Category", "type": "Class Variable"}, "rootItem": {"href": "/mdr/root/cdash/classes/Findings/fields/--CAT", "title": "Category", "type": "Root Data Element"}, "sdtmClassMappingTargets": [{"href": "/mdr/sdtm/1-7/classes/Findings/variables/--CAT", "title": "Category", "type": "Class Variable"}], "self": {"href": "/mdr/cdash/1-2/classes/Findings/fields/--CAT", "title": "Category", "type": "Class Variable"}}, "definition": "A grouping of topic-variable values based on user-defined characteristics.", "implementationNotes": "Sponsor-defined controlled terminology. This would most commonly be a heading on the CRF or screen, not a question to which the site would provide an answer. --SCAT can only be used if there is a --CAT. Examples are provided in the CDASHIG metadata table and in the SDTMIG. If a question is asked, the response would typically be a sponsor-defined codelist. If the form is laid out as a grid, then Category (for example) could be included as the column header. Examples are provided in the CDASHIG metadata table or in the SDTMIG. Note: CDISC Controlled Terminology (IECAT) is used for the IE domain.", "label": "Category", "mappingInstructions": "Maps directly to the SDTM variable listed in the SDTM Target column.", "name": "--CAT", "ordinal": "6", "prompt": "[Category/Category Value]; NULL", "questionText": "What [is/was] the [type/category/name] (of the [measurement/test/examination/question/assessment/specimen/sample])?", "simpleDatatype": "Char"}, {"_links": {"parentClass": {"href": "/mdr/cdash/1-2/classes/Findings", "title": "Findings", "type": "Class"}, "parentProduct": {"href": "/mdr/cdash/1-2", "title": "Clinical Data Acquisition Standards Harmonization Model Version 1.2", "type": "Foundational Model"}, "priorVersion": {"href": "/mdr/cdash/1-1/classes/Findings/fields/--SCAT", "title": "Subcategory", "type": "Class Variable"}, "rootItem": {"href": "/mdr/root/cdash/classes/Findings/fields/--SCAT", "title": "Subcategory", "type": "Root Data Element"}, "sdtmClassMappingTargets": [{"href": "/mdr/sdtm/1-7/classes/Findings/variables/--SCAT", "title": "Subcategory", "type": "Class Variable"}], "self": {"href": "/mdr/cdash/1-2/classes/Findings/fields/--SCAT", "title": "Subcategory", "type": "Class Variable"}}, "definition": "A sub-division of the --CAT values based on user-defined characteristics.", "implementationNotes": "Sponsor-defined controlled terminology. This would most commonly be a heading on the CRF or screen, not a question to which the site would provide an answer. --SCAT can only be used if there is a --CAT. Examples are provided in the CDASHIG metadata table and in the SDTMIG. If a question is asked, the response would typically be a sponsor-defined codelist. If the form is laid out as a grid, then Subcategory (for example) could be included in the column header. --SCAT can only be used if there is a --CAT. Examples are provided in the CDASHIG metadata table and in the SDTMIG.", "label": "Subcategory", "mappingInstructions": "Maps directly to the SDTM variable listed in the SDTM Target column.", "name": "--SCAT", "ordinal": "7", "prompt": "[(Domain Name/Name) Subcategory]; NULL", "questionText": "What [is/was] the [type/subcategory/name] (of the [measurement/test/examination/question/assessment/specimen/sample])?", "simpleDatatype": "Char"}, {"_links": {"parentClass": {"href": "/mdr/cdash/1-2/classes/Findings", "title": "Findings", "type": "Class"}, "parentProduct": {"href": "/mdr/cdash/1-2", "title": "Clinical Data Acquisition Standards Harmonization Model Version 1.2", "type": "Foundational Model"}, "priorVersion": {"href": "/mdr/cdash/1-1/classes/Findings/fields/--ORRES", "title": "Result or Finding in Original Units", "type": "Class Variable"}, "rootItem": {"href": "/mdr/root/cdash/classes/Findings/fields/--ORRES", "title": "Result or Finding in Original Units", "type": "Root Data Element"}, "sdtmClassMappingTargets": [{"href": "/mdr/sdtm/1-7/classes/Findings/variables/--ORRES", "title": "Result or Finding in Original Units", "type": "Class Variable"}], "self": {"href": "/mdr/cdash/1-2/classes/Findings/fields/--ORRES", "title": "Result or Finding in Original Units", "type": "Class Variable"}}, "definition": "Result of the measurement or finding, as originally received or collected.", "implementationNotes": "In most cases, the Question Text and Item Prompt for --ORRES are specific to the --TEST. The value of --TEST is most useful as the PROMPT on the field in which the RESULT for that test is collected. If the form is laid out as a grid, then Result (for example) could be included in the column header. On CRFs used for drug accountability, the prompt and question text can reflect that the \"amount\" of study drug dispensed/returned is collected rather than a result.", "label": "Result or Finding in Original Units", "mappingInstructions": "Maps directly to the SDTM variable listed in the SDTM Target column.", "name": "--ORRES", "ordinal": "8", "prompt": "([Result/Amount] of) [value from --TEST]", "questionText": "What [is/was] the [result/amount/(subject's) characteristic] (of the [measurement/test/examination/question/assessment])?", "simpleDatatype": "Char"}, {"_links": {"codelist": [{"href": "/mdr/root/ct/sdtmct/codelists/C71620", "title": "Version-agnostic anchor resource for codelist C71620", "type": "Root Value Domain"}], "parentClass": {"href": "/mdr/cdash/1-2/classes/Findings", "title": "Findings", "type": "Class"}, "parentProduct": {"href": "/mdr/cdash/1-2", "title": "Clinical Data Acquisition Standards Harmonization Model Version 1.2", "type": "Foundational Model"}, "priorVersion": {"href": "/mdr/cdash/1-1/classes/Findings/fields/--ORRESU", "title": "Original Units", "type": "Class Variable"}, "rootItem": {"href": "/mdr/root/cdash/classes/Findings/fields/--ORRESU", "title": "Original Units", "type": "Root Data Element"}, "sdtmClassMappingTargets": [{"href": "/mdr/sdtm/1-7/classes/Findings/variables/--ORRESU", "title": "Original Units", "type": "Class Variable"}], "self": {"href": "/mdr/cdash/1-2/classes/Findings/fields/--ORRESU", "title": "Original Units", "type": "Class Variable"}}, "definition": "The unit of the result, as originally received or collected.", "implementationNotes": "The Question Text and Item Prompt for --ORRESU may be specific to the --TEST. Should be pre-printed on the CRF with the associated test when possible, rather than collected in a free-text field. Note: CDISC Controlled Terminology is used for the SDTMIG PP and VS domains (i.e., PKUNIT, VSRESU).", "label": "Original Units", "mappingInstructions": "Maps directly to the SDTM variable listed in the SDTM Target column.", "name": "--ORRESU", "ordinal": "9", "prompt": "Unit", "questionText": "What [is/was] the unit (of the [measurement/test/examination/question/assessment])?", "simpleDatatype": "Char"}, {"_links": {"parentClass": {"href": "/mdr/cdash/1-2/classes/Findings", "title": "Findings", "type": "Class"}, "parentProduct": {"href": "/mdr/cdash/1-2", "title": "Clinical Data Acquisition Standards Harmonization Model Version 1.2", "type": "Foundational Model"}, "priorVersion": {"href": "/mdr/cdash/1-1/classes/Findings/fields/--CRESU", "title": "Collected Non-Standard Unit", "type": "Class Variable"}, "rootItem": {"href": "/mdr/root/cdash/classes/Findings/fields/--CRESU", "title": "Collected Non-Standard Unit", "type": "Root Data Element"}, "sdtmDatasetMappingTargets": [{"href": "/mdr/sdtm/1-7/datasets/SUPPQUAL/variables/QVAL", "title": "Data Value", "type": "SDTM Dataset Variable"}], "self": {"href": "/mdr/cdash/1-2/classes/Findings/fields/--CRESU", "title": "Collected Non-Standard Unit", "type": "Class Variable"}}, "definition": "The unit of the result if it were collected as a non-standard unit.", "implementationNotes": "The collected non-standard unit(s) should be reported as an equivalent standard unit in --ORRESU.", "label": "Collected Non-Standard Unit", "mappingInstructions": "This does not map directly to an SDTM variable. The collected non-standard unit(s) may be submitted in a SUPP--dataset as the value of SUPP--.QVAL when SUPP--.QNAM = --CRESU and SUPP.QLABEL= \"Collected Non-Standard Unit\". Refer to the current SDTM and SDTMIG for instructions on placement of non-standard variables (NSVs) in SDTM domains.", "name": "--CRESU", "ordinal": "10", "prompt": "Unit", "questionText": "What [is/was] the unit (of the [measurement/test/examination/question/assessment])?", "simpleDatatype": "Char"}, {"_links": {"parentClass": {"href": "/mdr/cdash/1-2/classes/Findings", "title": "Findings", "type": "Class"}, "parentProduct": {"href": "/mdr/cdash/1-2", "title": "Clinical Data Acquisition Standards Harmonization Model Version 1.2", "type": "Foundational Model"}, "priorVersion": {"href": "/mdr/cdash/1-1/classes/Findings/fields/--DESC", "title": "Description of Finding", "type": "Class Variable"}, "rootItem": {"href": "/mdr/root/cdash/classes/Findings/fields/--DESC", "title": "Description of Finding", "type": "Root Data Element"}, "sdtmClassMappingTargets": [{"href": "/mdr/sdtm/1-7/classes/Findings/variables/--ORRES", "title": "Result or Finding in Original Units", "type": "Class Variable"}], "self": {"href": "/mdr/cdash/1-2/classes/Findings/fields/--DESC", "title": "Description of Finding", "type": "Class Variable"}}, "definition": "Text description of any findings.", "implementationNotes": "--RES and --DESC are used when a question is asked to collect the finding result, with a follow-up question for a description of the finding. See CDASHIG Section 8.3.1, General Finding Assumptions.", "label": "Description of Finding", "mappingInstructions": "This does not map directly to an SDTM variable. For the SDTM submission dataset, if the CDASH field -- RES = \"NORMAL/ABSENT\", populate the SDTM variables --ORRES and --STRESC with the value of the CDASH field --RES. If the value of the CDASH field --RES is \"ABNORMAL/PRESENT\", populate the SDTM variable --ORRES with the CDASH field --DESC. If the reported findings in --DESC are coded using a dictionary, then the SDTM variable --STRESC is populated with the dictionary preferred term and --MODIFY is populated with the modified text used for coding. If the reported findings in --DESC are not coded, then the SDTM variable --STRESC is populated with the CDASH --DESC field. The SDTM variable --NRIND may be populated with \"NORMAL\" or \"ABNORMAL\" if appropriate.", "name": "--DESC", "ordinal": "11", "prompt": "(Abnormal) Findings", "questionText": "What [is/was] the (description) of the [(abnormality/observed finding/Sponsor-defined)]?", "simpleDatatype": "Char"}, {"_links": {"parentClass": {"href": "/mdr/cdash/1-2/classes/Findings", "title": "Findings", "type": "Class"}, "parentProduct": {"href": "/mdr/cdash/1-2", "title": "Clinical Data Acquisition Standards Harmonization Model Version 1.2", "type": "Foundational Model"}, "priorVersion": {"href": "/mdr/cdash/1-1/classes/Findings/fields/--RES", "title": "Collected Result or Finding", "type": "Class Variable"}, "rootItem": {"href": "/mdr/root/cdash/classes/Findings/fields/--RES", "title": "Collected Result or Finding", "type": "Root Data Element"}, "sdtmClassMappingTargets": [{"href": "/mdr/sdtm/1-7/classes/Findings/variables/--ORRES", "title": "Result or Finding in Original Units", "type": "Class Variable"}], "self": {"href": "/mdr/cdash/1-2/classes/Findings/fields/--RES", "title": "Collected Result or Finding", "type": "Class Variable"}}, "definition": "The result of the measurement or finding, as originally received or collected.", "implementationNotes": "The CDASH field --RES is used when the collected results are not mapped directly to the SDTM variable --ORRES. --RES is typically used in conjunction with --DESC, or --RESOTH.", "label": "Collected Result or Finding", "mappingInstructions": "This does not map directly to an SDTM variable. See CDASH variables --DESC or --RESOTH for mapping information.", "name": "--RES", "ordinal": "12", "prompt": "([Result/Amount] of) [value from --TEST]", "questionText": "What [is/was] the [result/amount] (of the [measurement/test/examination/question/assessment ] )?; [Is/Was] the result [normal/abnormal/absent/present/ sponsored defined response]?", "simpleDatatype": "Char"}, {"_links": {"parentClass": {"href": "/mdr/cdash/1-2/classes/Findings", "title": "Findings", "type": "Class"}, "parentProduct": {"href": "/mdr/cdash/1-2", "title": "Clinical Data Acquisition Standards Harmonization Model Version 1.2", "type": "Foundational Model"}, "priorVersion": {"href": "/mdr/cdash/1-1/classes/Findings/fields/--RESOTH", "title": "Result Other", "type": "Class Variable"}, "rootItem": {"href": "/mdr/root/cdash/classes/Findings/fields/--RESOTH", "title": "Result Other", "type": "Root Data Element"}, "sdtmClassMappingTargets": [{"href": "/mdr/sdtm/1-7/classes/Findings/variables/--ORRES", "title": "Result or Finding in Original Units", "type": "Class Variable"}], "self": {"href": "/mdr/cdash/1-2/classes/Findings/fields/--RESOTH", "title": "Result Other", "type": "Class Variable"}}, "definition": "A free-text result providing further information about the original received or collected result.", "implementationNotes": "--RES and ---RESOTH are used when a question is asked that allows the selection of a pre-specified finding, with a follow-up question to ask about the pre-specified response \"OTHER\". See CDASHIG Section 8.3.1, General Finding Assumptions.", "label": "Result Other", "mappingInstructions": "When using this CDASH field, the \"OTHER\" value collected in the CDASH field --RES is mapped to the SDTM variable --STRESC and the value in the CDASH field --RESOTH is mapped to the SDTM variable --ORRES.", "name": "--RESOTH", "ordinal": "13", "prompt": "[Specify Other/Explain/Specify Details]", "questionText": "If other is selected, [explain/specify/provide more detail]?", "simpleDatatype": "Char"}, {"_links": {"parentClass": {"href": "/mdr/cdash/1-2/classes/Findings", "title": "Findings", "type": "Class"}, "parentProduct": {"href": "/mdr/cdash/1-2", "title": "Clinical Data Acquisition Standards Harmonization Model Version 1.2", "type": "Foundational Model"}, "priorVersion": {"href": "/mdr/cdash/1-1/classes/Findings/fields/--RESCAT", "title": "Result Category", "type": "Class Variable"}, "rootItem": {"href": "/mdr/root/cdash/classes/Findings/fields/--RESCAT", "title": "Result Category", "type": "Root Data Element"}, "sdtmClassMappingTargets": [{"href": "/mdr/sdtm/1-7/classes/Findings/variables/--RESCAT", "title": "Result Category", "type": "Class Variable"}], "self": {"href": "/mdr/cdash/1-2/classes/Findings/fields/--RESCAT", "title": "Result Category", "type": "Class Variable"}}, "definition": "A categorization of the result of a finding.", "implementationNotes": "Sponsor-defined controlled terminology. Example: MALIGNANT or BENIGN for tumor findings. RESISTANCE VARIANT for genetic variation. Note: CDISC Controlled Terminology (MSRESCAT) is used for the MS domain.", "label": "Result Category", "mappingInstructions": "Maps directly to the SDTM variable listed in the SDTM Target column.", "name": "--RESCAT", "ordinal": "14", "prompt": "[--TEST] Result Category", "questionText": "What [is/was] the result category (of the [measurement/test/examination/question/assessment])?", "simpleDatatype": "Char"}, {"_links": {"parentClass": {"href": "/mdr/cdash/1-2/classes/Findings", "title": "Findings", "type": "Class"}, "parentProduct": {"href": "/mdr/cdash/1-2", "title": "Clinical Data Acquisition Standards Harmonization Model Version 1.2", "type": "Foundational Model"}, "priorVersion": {"href": "/mdr/cdash/1-1/classes/Findings/fields/--ORNRLO", "title": "Normal Range Lower Limit- Original Units", "type": "Class Variable"}, "rootItem": {"href": "/mdr/root/cdash/classes/Findings/fields/--ORNRLO", "title": "Normal Range Lower Limit- Original Units", "type": "Root Data Element"}, "sdtmClassMappingTargets": [{"href": "/mdr/sdtm/1-7/classes/Findings/variables/--ORNRLO", "title": "Normal Range Lower Limit-Original Units", "type": "Class Variable"}], "self": {"href": "/mdr/cdash/1-2/classes/Findings/fields/--ORNRLO", "title": "Normal Range Lower Limit- Original Units", "type": "Class Variable"}}, "definition": "The lower end of normal range or reference range for continuous results stored in --ORRES.", "implementationNotes": "--ORNRLO should be populated only for continuous findings. The SDTM variable --STNRC should be populated only for non-continuous results. These data may be obtained from the lab or the electronic equipment. These data could be derived from a site- or lab-specific set of normal ranges stored in a look-up table.", "label": "Normal Range Lower Limit- Original Units", "mappingInstructions": "Maps directly to the SDTM variable listed in the SDTM Target column.", "name": "--ORNRLO", "ordinal": "15", "prompt": "Normal Range Lower Limit", "questionText": "What [is/was] the lower limit of the reference range (for the [measurement/test/examination/question/assessment])?", "simpleDatatype": "Char"}, {"_links": {"parentClass": {"href": "/mdr/cdash/1-2/classes/Findings", "title": "Findings", "type": "Class"}, "parentProduct": {"href": "/mdr/cdash/1-2", "title": "Clinical Data Acquisition Standards Harmonization Model Version 1.2", "type": "Foundational Model"}, "priorVersion": {"href": "/mdr/cdash/1-1/classes/Findings/fields/--ORNRHI", "title": "Normal Range Upper Limit-Original Units", "type": "Class Variable"}, "rootItem": {"href": "/mdr/root/cdash/classes/Findings/fields/--ORNRHI", "title": "Normal Range Upper Limit-Original Units", "type": "Root Data Element"}, "sdtmClassMappingTargets": [{"href": "/mdr/sdtm/1-7/classes/Findings/variables/--ORNRHI", "title": "Normal Range Upper Limit-Original Units", "type": "Class Variable"}], "self": {"href": "/mdr/cdash/1-2/classes/Findings/fields/--ORNRHI", "title": "Normal Range Upper Limit-Original Units", "type": "Class Variable"}}, "definition": "The upper end of normal range or reference range for continuous results stored in --ORRES.", "implementationNotes": "--ORNRHI should be populated only for continuous findings. The SDTM variable --STNRC should be populated only for non-continuous results. These data may be obtained from the lab or the electronic equipment. These data could be derived from a site- or lab-specific set of normal ranges stored in a look-up table.", "label": "Normal Range Upper Limit-Original Units", "mappingInstructions": "Maps directly to the SDTM variable listed in the SDTM Target column.", "name": "--ORNRHI", "ordinal": "16", "prompt": "Normal Range Upper Limit", "questionText": "What [is/was] the upper limit of the reference range (for the [measurement/test/examination/question/assessment])?", "simpleDatatype": "Char"}, {"_links": {"parentClass": {"href": "/mdr/cdash/1-2/classes/Findings", "title": "Findings", "type": "Class"}, "parentProduct": {"href": "/mdr/cdash/1-2", "title": "Clinical Data Acquisition Standards Harmonization Model Version 1.2", "type": "Foundational Model"}, "priorVersion": {"href": "/mdr/cdash/1-1/classes/Findings/fields/--CSTNRC", "title": "Collected Character/Ordinal Normal Range", "type": "Class Variable"}, "rootItem": {"href": "/mdr/root/cdash/classes/Findings/fields/--CSTNRC", "title": "Collected Character/Ordinal Normal Range", "type": "Root Data Element"}, "sdtmClassMappingTargets": [{"href": "/mdr/sdtm/1-7/classes/Findings/variables/--STNRC", "title": "Normal Range for Character Results", "type": "Class Variable"}], "self": {"href": "/mdr/cdash/1-2/classes/Findings/fields/--CSTNRC", "title": "Collected Character/Ordinal Normal Range", "type": "Class Variable"}}, "definition": "The normal reference ranges that are expressed as characters (\"Negative to Trace\") or ordinal (-1 to 1).", "implementationNotes": "Should be populated for normal ranges that are reported as character in ordinal scale or if categorical ranges were supplied. These data may be obtained from the lab or the electronic equipment. These data could be derived from a site- or lab-specific set of normal ranges stored in a look-up table.", "label": "Collected Character/Ordinal Normal Range", "mappingInstructions": "This does not map directly to an SDTM variable. For the SDTM submission dataset, maps to --STNRC.", "name": "--CSTNRC", "ordinal": "17", "prompt": "Normal Reference Range", "questionText": "What [is/was] the normal reference range (for this [measurement/test/examination/question/assessment])?", "simpleDatatype": "Char"}, {"_links": {"codelist": [{"href": "/mdr/root/ct/sdtmct/codelists/C78736", "title": "Version-agnostic anchor resource for codelist C78736", "type": "Root Value Domain"}], "parentClass": {"href": "/mdr/cdash/1-2/classes/Findings", "title": "Findings", "type": "Class"}, "parentProduct": {"href": "/mdr/cdash/1-2", "title": "Clinical Data Acquisition Standards Harmonization Model Version 1.2", "type": "Foundational Model"}, "priorVersion": {"href": "/mdr/cdash/1-1/classes/Findings/fields/--NRIND", "title": "Normal/Reference Range Indicator", "type": "Class Variable"}, "rootItem": {"href": "/mdr/root/cdash/classes/Findings/fields/--NRIND", "title": "Normal/Reference Range Indicator", "type": "Root Data Element"}, "sdtmClassMappingTargets": [{"href": "/mdr/sdtm/1-7/classes/Findings/variables/--NRIND", "title": "Normal/Reference Range Indicator", "type": "Class Variable"}], "self": {"href": "/mdr/cdash/1-2/classes/Findings/fields/--NRIND", "title": "Normal/Reference Range Indicator", "type": "Class Variable"}}, "definition": "An indication or description of how the value compares to the normal range or reference range.", "implementationNotes": "Reference ranges may be defined by --ORNRLO, --ORNRHI, --STNRC or other objective criteria. Reference Range Indicator (e.g., Y, N; HIGH, LOW; NORMAL; ABNORMAL) may be included if not derived or determined programmatically after data collection. Should not be used to indicate clinical significance. Should not be used to indicate clinical significance.", "label": "Normal/Reference Range Indicator", "mappingInstructions": "Maps directly to the SDTM variable listed in the SDTM Target column.", "name": "--NRIND", "ordinal": "18", "prompt": "Comparison to [Reference/Expected/Normal] Range", "questionText": "How [did/do] the reported values compare within the [reference/normal/expected] range?", "simpleDatatype": "Char"}, {"_links": {"codelist": [{"href": "/mdr/root/ct/sdtmct/codelists/C66789", "title": "Version-agnostic anchor resource for codelist C66789", "type": "Root Value Domain"}], "parentClass": {"href": "/mdr/cdash/1-2/classes/Findings", "title": "Findings", "type": "Class"}, "parentProduct": {"href": "/mdr/cdash/1-2", "title": "Clinical Data Acquisition Standards Harmonization Model Version 1.2", "type": "Foundational Model"}, "priorVersion": {"href": "/mdr/cdash/1-1/classes/Findings/fields/--STAT", "title": "Completion Status", "type": "Class Variable"}, "rootItem": {"href": "/mdr/root/cdash/classes/Findings/fields/--STAT", "title": "Completion Status", "type": "Root Data Element"}, "sdtmClassMappingTargets": [{"href": "/mdr/sdtm/1-7/classes/Findings/variables/--STAT", "title": "Completion Status", "type": "Class Variable"}], "self": {"href": "/mdr/cdash/1-2/classes/Findings/fields/--STAT", "title": "Completion Status", "type": "Class Variable"}}, "definition": "The variable used to indicate that data are not available, by having the site record the value as \"Not Done\".", "implementationNotes": "Used only when the response value is collected as NOT DONE or NULL in lieu of or in addition to the CDASH --PERF field. Typically a check box which indicates the test was NOT DONE. This field can be useful when multiple questions are asked to confirm that a blank result field is intentionally left blank.", "label": "Completion Status", "mappingInstructions": "Maps directly to the SDTM variable listed in the SDTM Target column. If collected, the Origin (a column in the Define-XML) =\"CRF\", if populated from other sources such as a free-text or sponsor-defined listing for --REASND, the Origin =\"DERIVED\".", "name": "--STAT", "ordinal": "19", "prompt": "Not Done", "questionText": "Was the [--TEST ] not [completed/answered/done/assessed/evaluated]?; Indicate if (the [--TEST] was) not [answered/assessed/done/evaluated/performed].", "simpleDatatype": "Char"}, {"_links": {"parentClass": {"href": "/mdr/cdash/1-2/classes/Findings", "title": "Findings", "type": "Class"}, "parentProduct": {"href": "/mdr/cdash/1-2", "title": "Clinical Data Acquisition Standards Harmonization Model Version 1.2", "type": "Foundational Model"}, "priorVersion": {"href": "/mdr/cdash/1-1/classes/Findings/fields/--REASND", "title": "Reason Not Done", "type": "Class Variable"}, "rootItem": {"href": "/mdr/root/cdash/classes/Findings/fields/--REASND", "title": "Reason Not Done", "type": "Root Data Element"}, "sdtmClassMappingTargets": [{"href": "/mdr/sdtm/1-7/classes/Findings/variables/--REASND", "title": "Reason Not Done", "type": "Class Variable"}], "self": {"href": "/mdr/cdash/1-2/classes/Findings/fields/--REASND", "title": "Reason Not Done", "type": "Class Variable"}}, "definition": "An explanation for why the data are not available.", "implementationNotes": "Sponsor-defined controlled terminology may be used. The reason data are not available may be chosen from a sponsor-defined codelist (e.g., broken equipment, subject refused) or entered as free text. When --REASND is used, --STAT should also be populated in the SDTM-based dataset.", "label": "Reason Not Done", "mappingInstructions": "Maps directly to the SDTM variable listed in the SDTM Target column.", "name": "--REASND", "ordinal": "20", "prompt": "Reason Not [Answered/Collected/Done/Evaluated/Assessed/Available]", "questionText": "What [is/was] the reason that the [Findings topic/data/information/sponsor-defined phrase] was not [collected/answered/done/assessed/evaluated]?", "simpleDatatype": "Char"}, {"_links": {"parentClass": {"href": "/mdr/cdash/1-2/classes/Findings", "title": "Findings", "type": "Class"}, "parentProduct": {"href": "/mdr/cdash/1-2", "title": "Clinical Data Acquisition Standards Harmonization Model Version 1.2", "type": "Foundational Model"}, "priorVersion": {"href": "/mdr/cdash/1-1/classes/Findings/fields/--NAM", "title": "Laboratory/Vendor Name", "type": "Class Variable"}, "rootItem": {"href": "/mdr/root/cdash/classes/Findings/fields/--NAM", "title": "Laboratory/Vendor Name", "type": "Root Data Element"}, "sdtmClassMappingTargets": [{"href": "/mdr/sdtm/1-7/classes/Findings/variables/--NAM", "title": "Laboratory/Vendor Name", "type": "Class Variable"}], "self": {"href": "/mdr/cdash/1-2/classes/Findings/fields/--NAM", "title": "Laboratory/Vendor Name", "type": "Class Variable"}}, "definition": "Name or identifier of the vendor (e.g., laboratory) providing the test results.", "implementationNotes": "Recommended to collect on the CRF if vendor name was not collected at the site/study level or if multiple vendors are used by a site", "label": "Laboratory/Vendor Name", "mappingInstructions": "Maps directly to the SDTM variable listed in the SDTM Target column.", "name": "--NAM", "ordinal": "21", "prompt": "[Vendor Name]", "questionText": "What was the name of the [vendor] used?", "simpleDatatype": "Char"}, {"_links": {"parentClass": {"href": "/mdr/cdash/1-2/classes/Findings", "title": "Findings", "type": "Class"}, "parentProduct": {"href": "/mdr/cdash/1-2", "title": "Clinical Data Acquisition Standards Harmonization Model Version 1.2", "type": "Foundational Model"}, "priorVersion": {"href": "/mdr/cdash/1-1/classes/Findings/fields/--LOINC", "title": "LOINC Code", "type": "Class Variable"}, "rootItem": {"href": "/mdr/root/cdash/classes/Findings/fields/--LOINC", "title": "LOINC Code", "type": "Root Data Element"}, "sdtmClassMappingTargets": [{"href": "/mdr/sdtm/1-7/classes/Findings/variables/--LOINC", "title": "LOINC Code", "type": "Class Variable"}], "self": {"href": "/mdr/cdash/1-2/classes/Findings/fields/--LOINC", "title": "LOINC Code", "type": "Class Variable"}}, "definition": "The Logical Observation Identifiers Names and Codes (LOINC) code for the topic variable (e.g., a lab test).", "label": "LOINC Code", "mappingInstructions": "Maps directly to the SDTM variable listed in the SDTM Target column.", "name": "--LOINC", "ordinal": "22", "prompt": "LOINC Code", "questionText": "What [is/was] the LOINC code?", "simpleDatatype": "Char"}, {"_links": {"codelist": [{"href": "/mdr/root/ct/sdtmct/codelists/C78734", "title": "Version-agnostic anchor resource for codelist C78734", "type": "Root Value Domain"}], "parentClass": {"href": "/mdr/cdash/1-2/classes/Findings", "title": "Findings", "type": "Class"}, "parentProduct": {"href": "/mdr/cdash/1-2", "title": "Clinical Data Acquisition Standards Harmonization Model Version 1.2", "type": "Foundational Model"}, "priorVersion": {"href": "/mdr/cdash/1-1/classes/Findings/fields/--SPEC", "title": "Specimen Material Type", "type": "Class Variable"}, "rootItem": {"href": "/mdr/root/cdash/classes/Findings/fields/--SPEC", "title": "Specimen Material Type", "type": "Root Data Element"}, "sdtmClassMappingTargets": [{"href": "/mdr/sdtm/1-7/classes/Findings/variables/--SPEC", "title": "Specimen Material Type", "type": "Class Variable"}], "self": {"href": "/mdr/cdash/1-2/classes/Findings/fields/--SPEC", "title": "Specimen Material Type", "type": "Class Variable"}}, "definition": "The type of specimen used for a measurement.", "label": "Specimen Material Type", "mappingInstructions": "Maps directly to the SDTM variable listed in the SDTM Target column.", "name": "--SPEC", "ordinal": "23", "prompt": "Specimen (Material) Type", "questionText": "What [is/was] the specimen (material) type?", "simpleDatatype": "Char"}, {"_links": {"parentClass": {"href": "/mdr/cdash/1-2/classes/Findings", "title": "Findings", "type": "Class"}, "parentProduct": {"href": "/mdr/cdash/1-2", "title": "Clinical Data Acquisition Standards Harmonization Model Version 1.2", "type": "Foundational Model"}, "priorVersion": {"href": "/mdr/cdash/1-1/classes/Findings/fields/--ANTREG", "title": "Anatomical Region", "type": "Class Variable"}, "rootItem": {"href": "/mdr/root/cdash/classes/Findings/fields/--ANTREG", "title": "Anatomical Region", "type": "Root Data Element"}, "sdtmClassMappingTargets": [{"href": "/mdr/sdtm/1-7/classes/Findings/variables/--ANTREG", "title": "Anatomical Region", "type": "Class Variable"}], "self": {"href": "/mdr/cdash/1-2/classes/Findings/fields/--ANTREG", "title": "Anatomical Region", "type": "Class Variable"}}, "definition": "The specific anatomical or biological region of a tissue, organ specimen, or the region from which the specimen is obtained, as defined in the protocol (e.g, a section or part of what is described in the --SPEC variable).", "implementationNotes": "The SDTM variable --ANTREG is defined as a variable qualifier of the SDTM variable --SPEC.", "label": "Anatomical Region", "mappingInstructions": "Maps directly to the SDTM variable listed in the SDTM Target column.", "name": "--ANTREG", "ordinal": "24", "prompt": "[Specimen/Organ/Tissue] Anatomical Region", "questionText": "What [is/was] the anatomical or biological region (of the [organ specimen/tissue])?", "simpleDatatype": "Char"}, {"_links": {"codelist": [{"href": "/mdr/root/ct/sdtmct/codelists/C78733", "title": "Version-agnostic anchor resource for codelist C78733", "type": "Root Value Domain"}], "parentClass": {"href": "/mdr/cdash/1-2/classes/Findings", "title": "Findings", "type": "Class"}, "parentProduct": {"href": "/mdr/cdash/1-2", "title": "Clinical Data Acquisition Standards Harmonization Model Version 1.2", "type": "Foundational Model"}, "priorVersion": {"href": "/mdr/cdash/1-1/classes/Findings/fields/--SPCCND", "title": "Specimen Condition", "type": "Class Variable"}, "rootItem": {"href": "/mdr/root/cdash/classes/Findings/fields/--SPCCND", "title": "Specimen Condition", "type": "Root Data Element"}, "sdtmClassMappingTargets": [{"href": "/mdr/sdtm/1-7/classes/Findings/variables/--SPCCND", "title": "Specimen Condition", "type": "Class Variable"}], "self": {"href": "/mdr/cdash/1-2/classes/Findings/fields/--SPCCND", "title": "Specimen Condition", "type": "Class Variable"}}, "definition": "The condition of the specimen.", "implementationNotes": "Standardized text describing the condition of the sample (e.g., HEMOLYZED, LIPEMIC)", "label": "Specimen Condition", "mappingInstructions": "Maps directly to the SDTM variable listed in the SDTM Target column.", "name": "--SPCCND", "ordinal": "25", "prompt": "Specimen Condition", "questionText": "What [is/was] the condition of the specimen?", "simpleDatatype": "Char"}, {"_links": {"codelist": [{"href": "/mdr/root/ct/sdtmct/codelists/C66742", "title": "Version-agnostic anchor resource for codelist C66742", "type": "Root Value Domain"}], "parentClass": {"href": "/mdr/cdash/1-2/classes/Findings", "title": "Findings", "type": "Class"}, "parentProduct": {"href": "/mdr/cdash/1-2", "title": "Clinical Data Acquisition Standards Harmonization Model Version 1.2", "type": "Foundational Model"}, "priorVersion": {"href": "/mdr/cdash/1-1/classes/Findings/fields/--CSPUFL", "title": "Collected Specimen Usability Flag", "type": "Class Variable"}, "rootItem": {"href": "/mdr/root/cdash/classes/Findings/fields/--CSPUFL", "title": "Collected Specimen Usability Flag", "type": "Root Data Element"}, "sdtmClassMappingTargets": [{"href": "/mdr/sdtm/1-7/classes/Findings/variables/--SPCUFL", "title": "Specimen Usability for the Test", "type": "Class Variable"}], "self": {"href": "/mdr/cdash/1-2/classes/Findings/fields/--CSPUFL", "title": "Collected Specimen Usability Flag", "type": "Class Variable"}}, "definition": "An indication about the usability of the specimen for obtaining the test result.", "label": "Collected Specimen Usability Flag", "mappingInstructions": "This does not map directly to an SDTM variable. For the SDTM dataset, if the CDASH variable --CSPUFL=\"Y\", the value of the STDM variable --CSPUFL is \"Y\". If CSPULF=\"N\", --CSPULF is null.", "name": "--CSPUFL", "ordinal": "26", "prompt": "Specimen Usability", "questionText": "What is/was the usability (of this specimen)?; [Is/Was] the specimen usable?", "simpleDatatype": "Char"}, {"_links": {"codelist": [{"href": "/mdr/root/ct/sdtmct/codelists/C71148", "title": "Version-agnostic anchor resource for codelist C71148", "type": "Root Value Domain"}], "parentClass": {"href": "/mdr/cdash/1-2/classes/Findings", "title": "Findings", "type": "Class"}, "parentProduct": {"href": "/mdr/cdash/1-2", "title": "Clinical Data Acquisition Standards Harmonization Model Version 1.2", "type": "Foundational Model"}, "priorVersion": {"href": "/mdr/cdash/1-1/classes/Findings/fields/--POS", "title": "Position of Subject During Observation", "type": "Class Variable"}, "rootItem": {"href": "/mdr/root/cdash/classes/Findings/fields/--POS", "title": "Position of Subject During Observation", "type": "Root Data Element"}, "sdtmClassMappingTargets": [{"href": "/mdr/sdtm/1-7/classes/Findings/variables/--POS", "title": "Position of Subject During Observation", "type": "Class Variable"}], "self": {"href": "/mdr/cdash/1-2/classes/Findings/fields/--POS", "title": "Position of Subject During Observation", "type": "Class Variable"}}, "definition": "The position of the subject during a measurement or examination.", "implementationNotes": "Note: CDISC Controlled Terminology (VSPOS) is used in the VS domain.", "label": "Position of Subject During Observation", "mappingInstructions": "Maps directly to the SDTM variable listed in the SDTM Target column.", "name": "--POS", "ordinal": "27", "prompt": "Position", "questionText": "In what position was the subject during the [measurement/test/examination/question/assessment/specimen collection/sample collection]?; What was the position of the subject (during the [measurement/test/examination/question/assessment/specimen collection/sample collection])?", "simpleDatatype": "Char"}, {"_links": {"codelist": [{"href": "/mdr/root/ct/sdtmct/codelists/C74456", "title": "Version-agnostic anchor resource for codelist C74456", "type": "Root Value Domain"}], "parentClass": {"href": "/mdr/cdash/1-2/classes/Findings", "title": "Findings", "type": "Class"}, "parentProduct": {"href": "/mdr/cdash/1-2", "title": "Clinical Data Acquisition Standards Harmonization Model Version 1.2", "type": "Foundational Model"}, "priorVersion": {"href": "/mdr/cdash/1-1/classes/Findings/fields/--LOC", "title": "Location Used for the Measurement", "type": "Class Variable"}, "rootItem": {"href": "/mdr/root/cdash/classes/Findings/fields/--LOC", "title": "Location Used for the Measurement", "type": "Root Data Element"}, "sdtmClassMappingTargets": [{"href": "/mdr/sdtm/1-7/classes/Findings/variables/--LOC", "title": "Location Used for the Measurement", "type": "Class Variable"}], "self": {"href": "/mdr/cdash/1-2/classes/Findings/fields/--LOC", "title": "Location Used for the Measurement", "type": "Class Variable"}}, "definition": "The anatomical location of the subject relevant to the collection of the measurement.", "implementationNotes": "This may be pre-printed or collected. --LOC is used only to specify the anatomical location. --LAT, --DIR, --PORTOT are used to further describe the anatomical location.", "label": "Location Used for the Measurement", "mappingInstructions": "Maps directly to the SDTM variable listed in the SDTM Target column.", "name": "--LOC", "ordinal": "28", "prompt": "Anatomical Location", "questionText": "What [is/was] the anatomical location (of the [measurement/test/examination/question/assessment])?; What [is/was] the anatomical location where the [measurement/specimen/question/assessment] was [taken/collected]?", "simpleDatatype": "Char"}, {"_links": {"codelist": [{"href": "/mdr/root/ct/sdtmct/codelists/C99073", "title": "Version-agnostic anchor resource for codelist C99073", "type": "Root Value Domain"}], "parentClass": {"href": "/mdr/cdash/1-2/classes/Findings", "title": "Findings", "type": "Class"}, "parentProduct": {"href": "/mdr/cdash/1-2", "title": "Clinical Data Acquisition Standards Harmonization Model Version 1.2", "type": "Foundational Model"}, "priorVersion": {"href": "/mdr/cdash/1-1/classes/Findings/fields/--LAT", "title": "Laterality", "type": "Class Variable"}, "rootItem": {"href": "/mdr/root/cdash/classes/Findings/fields/--LAT", "title": "Laterality", "type": "Root Data Element"}, "sdtmClassMappingTargets": [{"href": "/mdr/sdtm/1-7/classes/Findings/variables/--LAT", "title": "Laterality", "type": "Class Variable"}], "self": {"href": "/mdr/cdash/1-2/classes/Findings/fields/--LAT", "title": "Laterality", "type": "Class Variable"}}, "definition": "Qualifier for anatomical location, further detailing the side of the body.", "implementationNotes": "Further detailing the laterality of the location of the --TEST. This may be pre-printed or collected.", "label": "Laterality", "mappingInstructions": "Maps directly to the SDTM variable listed in the SDTM Target column.", "name": "--LAT", "ordinal": "29", "prompt": "Side", "questionText": "What [is/was] the side (of the anatomical location of the [measurement/test/examination/question/assessment])?", "simpleDatatype": "Char"}, {"_links": {"codelist": [{"href": "/mdr/root/ct/sdtmct/codelists/C99074", "title": "Version-agnostic anchor resource for codelist C99074", "type": "Root Value Domain"}], "parentClass": {"href": "/mdr/cdash/1-2/classes/Findings", "title": "Findings", "type": "Class"}, "parentProduct": {"href": "/mdr/cdash/1-2", "title": "Clinical Data Acquisition Standards Harmonization Model Version 1.2", "type": "Foundational Model"}, "priorVersion": {"href": "/mdr/cdash/1-1/classes/Findings/fields/--DIR", "title": "Directionality", "type": "Class Variable"}, "rootItem": {"href": "/mdr/root/cdash/classes/Findings/fields/--DIR", "title": "Directionality", "type": "Root Data Element"}, "sdtmClassMappingTargets": [{"href": "/mdr/sdtm/1-7/classes/Findings/variables/--DIR", "title": "Directionality", "type": "Class Variable"}], "self": {"href": "/mdr/cdash/1-2/classes/Findings/fields/--DIR", "title": "Directionality", "type": "Class Variable"}}, "definition": "Qualifier further detailing the position of the anatomical location, relative to the center of the body, organ, or specimen.", "implementationNotes": "Further detailing the directionality of the location of the --TEST (e.g., ANTERIOR, LOWER, PROXIMAL). This may be pre-printed or collected. Sponsors may collect the data using a subset list of CT on the CRF.", "label": "Directionality", "mappingInstructions": "Maps directly to the SDTM variable listed in the SDTM Target column.", "name": "--DIR", "ordinal": "30", "prompt": "Directionality", "questionText": "What [is/was] the directionality (of the anatomical location of the [measurement/test/examination/question/assessment])?", "simpleDatatype": "Char"}, {"_links": {"parentClass": {"href": "/mdr/cdash/1-2/classes/Findings", "title": "Findings", "type": "Class"}, "parentProduct": {"href": "/mdr/cdash/1-2", "title": "Clinical Data Acquisition Standards Harmonization Model Version 1.2", "type": "Foundational Model"}, "priorVersion": {"href": "/mdr/cdash/1-1/classes/Findings/fields/--LOCDTL", "title": "Location Detail", "type": "Class Variable"}, "rootItem": {"href": "/mdr/root/cdash/classes/Findings/fields/--LOCDTL", "title": "Location Detail", "type": "Root Data Element"}, "sdtmDatasetMappingTargets": [{"href": "/mdr/sdtm/1-7/datasets/SUPPQUAL/variables/QVAL", "title": "Data Value", "type": "SDTM Dataset Variable"}], "self": {"href": "/mdr/cdash/1-2/classes/Findings/fields/--LOCDTL", "title": "Location Detail", "type": "Class Variable"}}, "definition": "A detailed description of the location of the identified finding.", "implementationNotes": "Use if --LOC and --LAT and/or --DIR values cannot provide uniqueness from other identified findings. --LOCDTL is not meant to replace --LOC, --LAT, and/or --DIR, or to serve as the free-text description field for --LOC (e.g., Location, Other).", "label": "Location Detail", "mappingInstructions": "This does not map directly to an SDTM variable. This information could be submitted in a SUPP-- dataset as the value of SUPP--.QVAL where SUPP--.QNAM=\"--LOCDTL\" and SUPP--.QLABEL=\"Location Detail\".", "name": "--LOCDTL", "ordinal": "31", "prompt": "[Finding] Location Detail", "questionText": "What [were/are] additional details on the exact location of the [finding] so that it can be distinguished from other [findings] in the same anatomical location?", "simpleDatatype": "Char"}, {"_links": {"codelist": [{"href": "/mdr/root/ct/sdtmct/codelists/C99075", "title": "Version-agnostic anchor resource for codelist C99075", "type": "Root Value Domain"}], "parentClass": {"href": "/mdr/cdash/1-2/classes/Findings", "title": "Findings", "type": "Class"}, "parentProduct": {"href": "/mdr/cdash/1-2", "title": "Clinical Data Acquisition Standards Harmonization Model Version 1.2", "type": "Foundational Model"}, "priorVersion": {"href": "/mdr/cdash/1-1/classes/Findings/fields/--PORTOT", "title": "Portion or Totality", "type": "Class Variable"}, "rootItem": {"href": "/mdr/root/cdash/classes/Findings/fields/--PORTOT", "title": "Portion or Totality", "type": "Root Data Element"}, "sdtmClassMappingTargets": [{"href": "/mdr/sdtm/1-7/classes/Findings/variables/--PORTOT", "title": "Portion or Totality", "type": "Class Variable"}], "self": {"href": "/mdr/cdash/1-2/classes/Findings/fields/--PORTOT", "title": "Portion or Totality", "type": "Class Variable"}}, "definition": "Qualifier for anatomical location further detailing the distribution (i.e., arrangement of, apportioning of).", "implementationNotes": "Further detailing the portion or totality of the location of the --TEST. This may be pre-printed or collected.", "label": "Portion or Totality", "mappingInstructions": "Maps directly to the SDTM variable listed in the SDTM Target column.", "name": "--PORTOT", "ordinal": "32", "prompt": "Portion or Totality", "questionText": "What [is/was] the portion or totality (of the anatomical location of the [measurement/test/examination/question/assessment])?", "simpleDatatype": "Char"}, {"_links": {"codelist": [{"href": "/mdr/root/ct/sdtmct/codelists/C85492", "title": "Version-agnostic anchor resource for codelist C85492", "type": "Root Value Domain"}], "parentClass": {"href": "/mdr/cdash/1-2/classes/Findings", "title": "Findings", "type": "Class"}, "parentProduct": {"href": "/mdr/cdash/1-2", "title": "Clinical Data Acquisition Standards Harmonization Model Version 1.2", "type": "Foundational Model"}, "priorVersion": {"href": "/mdr/cdash/1-1/classes/Findings/fields/--METHOD", "title": "Method of Test or Examination", "type": "Class Variable"}, "rootItem": {"href": "/mdr/root/cdash/classes/Findings/fields/--METHOD", "title": "Method of Test or Examination", "type": "Root Data Element"}, "sdtmClassMappingTargets": [{"href": "/mdr/sdtm/1-7/classes/Findings/variables/--METHOD", "title": "Method of Test or Examination", "type": "Class Variable"}], "self": {"href": "/mdr/cdash/1-2/classes/Findings/fields/--METHOD", "title": "Method of Test or Examination", "type": "Class Variable"}}, "definition": "The method of the test or examination.", "implementationNotes": "Note: CDISC Controlled Terminology (EGMETHOD) is used in the EG domain.", "label": "Method of Test or Examination", "mappingInstructions": "Maps directly to the SDTM variable listed in the SDTM Target column.", "name": "--METHOD", "ordinal": "33", "prompt": "Method", "questionText": "What was the method (used for the [measurement/test/examination/question/assessment])?; What was the method (used to [measure/test/examine/question/assess/evaluate/identify] the [finding])?", "simpleDatatype": "Char"}, {"_links": {"parentClass": {"href": "/mdr/cdash/1-2/classes/Findings", "title": "Findings", "type": "Class"}, "parentProduct": {"href": "/mdr/cdash/1-2", "title": "Clinical Data Acquisition Standards Harmonization Model Version 1.2", "type": "Foundational Model"}, "priorVersion": {"href": "/mdr/cdash/1-1/classes/Findings/fields/--LEAD", "title": "Lead Identified to Collect Measurements", "type": "Class Variable"}, "rootItem": {"href": "/mdr/root/cdash/classes/Findings/fields/--LEAD", "title": "Lead Identified to Collect Measurements", "type": "Root Data Element"}, "sdtmClassMappingTargets": [{"href": "/mdr/sdtm/1-7/classes/Findings/variables/--LEAD", "title": "Lead Identified to Collect Measurements", "type": "Class Variable"}], "self": {"href": "/mdr/cdash/1-2/classes/Findings/fields/--LEAD", "title": "Lead Identified to Collect Measurements", "type": "Class Variable"}}, "definition": "The lead or leads identified to capture the measurement for a test from an instrument.", "implementationNotes": "Note: CDISC Controlled Terminology (EGLEAD) is used in the EG domain.", "label": "Lead Identified to Collect Measurements", "mappingInstructions": "Maps directly to the SDTM variable listed in the SDTM Target column.", "name": "--LEAD", "ordinal": "34", "prompt": "Lead", "questionText": "What [is/was] the lead (used to measure [measurement/test/examination/question/assessment])?", "simpleDatatype": "Char"}, {"_links": {"parentClass": {"href": "/mdr/cdash/1-2/classes/Findings", "title": "Findings", "type": "Class"}, "parentProduct": {"href": "/mdr/cdash/1-2", "title": "Clinical Data Acquisition Standards Harmonization Model Version 1.2", "type": "Foundational Model"}, "priorVersion": {"href": "/mdr/cdash/1-1/classes/Findings/fields/--CSTATE", "title": "Consciousness State", "type": "Class Variable"}, "rootItem": {"href": "/mdr/root/cdash/classes/Findings/fields/--CSTATE", "title": "Consciousness State", "type": "Root Data Element"}, "sdtmClassMappingTargets": [{"href": "/mdr/sdtm/1-7/classes/Findings/variables/--CSTATE", "title": "Consciousness State", "type": "Class Variable"}], "self": {"href": "/mdr/cdash/1-2/classes/Findings/fields/--CSTATE", "title": "Consciousness State", "type": "Class Variable"}}, "definition": "The consciousness state of the subject at the time of measurement.", "label": "Consciousness State", "mappingInstructions": "Maps directly to the SDTM variable listed in the SDTM Target column.", "name": "--CSTATE", "ordinal": "35", "prompt": "Consciousness State", "questionText": "What [is/was] the consciousness state of the subject (at the time of the [measurement/test/examination/question/assessment])?", "simpleDatatype": "Char"}, {"_links": {"codelist": [{"href": "/mdr/root/ct/sdtmct/codelists/C66742", "title": "Version-agnostic anchor resource for codelist C66742", "type": "Root Value Domain"}], "parentClass": {"href": "/mdr/cdash/1-2/classes/Findings", "title": "Findings", "type": "Class"}, "parentProduct": {"href": "/mdr/cdash/1-2", "title": "Clinical Data Acquisition Standards Harmonization Model Version 1.2", "type": "Foundational Model"}, "priorVersion": {"href": "/mdr/cdash/1-1/classes/Findings/fields/--FAST", "title": "Fasting Status", "type": "Class Variable"}, "rootItem": {"href": "/mdr/root/cdash/classes/Findings/fields/--FAST", "title": "Fasting Status", "type": "Root Data Element"}, "sdtmClassMappingTargets": [{"href": "/mdr/sdtm/1-7/classes/Findings/variables/--FAST", "title": "Fasting Status", "type": "Class Variable"}], "self": {"href": "/mdr/cdash/1-2/classes/Findings/fields/--FAST", "title": "Fasting Status", "type": "Class Variable"}}, "definition": "An indication as to whether the subject had abstained from food/water for the specified amount of time.", "label": "Fasting Status", "mappingInstructions": "Maps directly to the SDTM variable listed in the SDTM Target column.", "name": "--FAST", "ordinal": "36", "prompt": "Fasting", "questionText": "[Is/Was] the subject fasting (prior to the [test being performed/sample being collected])?", "simpleDatatype": "Char"}, {"_links": {"codelist": [{"href": "/mdr/root/ct/sdtmct/codelists/C78735", "title": "Version-agnostic anchor resource for codelist C78735", "type": "Root Value Domain"}], "parentClass": {"href": "/mdr/cdash/1-2/classes/Findings", "title": "Findings", "type": "Class"}, "parentProduct": {"href": "/mdr/cdash/1-2", "title": "Clinical Data Acquisition Standards Harmonization Model Version 1.2", "type": "Foundational Model"}, "priorVersion": {"href": "/mdr/cdash/1-1/classes/Findings/fields/--EVAL", "title": "Evaluator", "type": "Class Variable"}, "rootItem": {"href": "/mdr/root/cdash/classes/Findings/fields/--EVAL", "title": "Evaluator", "type": "Root Data Element"}, "sdtmClassMappingTargets": [{"href": "/mdr/sdtm/1-7/classes/Findings/variables/--EVAL", "title": "Evaluator", "type": "Class Variable"}], "self": {"href": "/mdr/cdash/1-2/classes/Findings/fields/--EVAL", "title": "Evaluator", "type": "Class Variable"}}, "definition": "The role of the person providing the evaluation.", "implementationNotes": "Used only for results that are subjective (e.g., assigned by a person or a group). May be a pre-printed or collected. Sponsors may collect the data using a subset list of CT on the CRF.", "label": "Evaluator", "mappingInstructions": "Maps directly to the SDTM variable listed in the SDTM Target column.", "name": "--EVAL", "ordinal": "37", "prompt": "[Evaluator/Reporter]", "questionText": "Who provided the (sponsor-defined phrase) information?; Who was the evaluator?", "simpleDatatype": "Char"}, {"_links": {"codelist": [{"href": "/mdr/root/ct/sdtmct/codelists/C96777", "title": "Version-agnostic anchor resource for codelist C96777", "type": "Root Value Domain"}], "parentClass": {"href": "/mdr/cdash/1-2/classes/Findings", "title": "Findings", "type": "Class"}, "parentProduct": {"href": "/mdr/cdash/1-2", "title": "Clinical Data Acquisition Standards Harmonization Model Version 1.2", "type": "Foundational Model"}, "priorVersion": {"href": "/mdr/cdash/1-1/classes/Findings/fields/--EVALID", "title": "Evaluator Identifier", "type": "Class Variable"}, "rootItem": {"href": "/mdr/root/cdash/classes/Findings/fields/--EVALID", "title": "Evaluator Identifier", "type": "Root Data Element"}, "sdtmClassMappingTargets": [{"href": "/mdr/sdtm/1-7/classes/Findings/variables/--EVALID", "title": "Evaluator Identifier", "type": "Class Variable"}], "self": {"href": "/mdr/cdash/1-2/classes/Findings/fields/--EVALID", "title": "Evaluator Identifier", "type": "Class Variable"}}, "definition": "An identifier used to distinguish multiple evaluators with the same role, recorded in --EVAL.", "label": "Evaluator Identifier", "mappingInstructions": "Maps directly to the SDTM variable listed in the SDTM Target column.", "name": "--EVALID", "ordinal": "38", "prompt": "[Evaluator/Reporter] Identifier", "questionText": "What [is/was] the identifier of the [evaluator name/reporter name] (providing the-sponsor-defined phrase- information)?", "simpleDatatype": "Char"}, {"_links": {"codelist": [{"href": "/mdr/root/ct/sdtmct/codelists/C66742", "title": "Version-agnostic anchor resource for codelist C66742", "type": "Root Value Domain"}], "parentClass": {"href": "/mdr/cdash/1-2/classes/Findings", "title": "Findings", "type": "Class"}, "parentProduct": {"href": "/mdr/cdash/1-2", "title": "Clinical Data Acquisition Standards Harmonization Model Version 1.2", "type": "Foundational Model"}, "priorVersion": {"href": "/mdr/cdash/1-1/classes/Findings/fields/--ACPTFL", "title": "Accepted Record Flag", "type": "Class Variable"}, "rootItem": {"href": "/mdr/root/cdash/classes/Findings/fields/--ACPTFL", "title": "Accepted Record Flag", "type": "Root Data Element"}, "sdtmClassMappingTargets": [{"href": "/mdr/sdtm/1-7/classes/Findings/variables/--ACPTFL", "title": "Accepted Record Flag", "type": "Class Variable"}], "self": {"href": "/mdr/cdash/1-2/classes/Findings/fields/--ACPTFL", "title": "Accepted Record Flag", "type": "Class Variable"}}, "definition": "An indication that the evaluation is considered, by an independent assessor, to be the accepted or final evaluation.", "implementationNotes": "Used where more than 1 assessor provides an evaluation of a result or response. Typically a checkbox with the value of \"Y\" or \"NULL\", which indicates the evaluation was accepted.", "label": "Accepted Record Flag", "mappingInstructions": "Maps directly to the SDTM variable listed in the SDTM Target column.", "name": "--ACPTFL", "ordinal": "39", "prompt": "[Accepted/Final] Evaluation", "questionText": "[Is/Was] this record considered to be the [accepted/final] evaluation?", "simpleDatatype": "Char"}, {"_links": {"parentClass": {"href": "/mdr/cdash/1-2/classes/Findings", "title": "Findings", "type": "Class"}, "parentProduct": {"href": "/mdr/cdash/1-2", "title": "Clinical Data Acquisition Standards Harmonization Model Version 1.2", "type": "Foundational Model"}, "priorVersion": {"href": "/mdr/cdash/1-1/classes/Findings/fields/--TOX", "title": "Toxicity", "type": "Class Variable"}, "rootItem": {"href": "/mdr/root/cdash/classes/Findings/fields/--TOX", "title": "Toxicity", "type": "Root Data Element"}, "sdtmClassMappingTargets": [{"href": "/mdr/sdtm/1-7/classes/Findings/variables/--TOX", "title": "Toxicity", "type": "Class Variable"}], "self": {"href": "/mdr/cdash/1-2/classes/Findings/fields/--TOX", "title": "Toxicity", "type": "Class Variable"}}, "definition": "The description of toxicity quantified by --TOXGR (e.g., NCI CTCAE Short Name).", "implementationNotes": "Sponsors may choose not to collect --TOX. If collected, sponsors should specify which scale and version is used in the Sponsor Comments column of the Define-XML document.", "label": "Toxicity", "mappingInstructions": "Maps directly to the SDTM variable listed in the SDTM Target column.", "name": "--TOX", "ordinal": "40", "prompt": "[NCI CTCAE/Scale Name ] Toxicity", "questionText": "What [is/was] the description of the [NCI CTCAE/scale name] toxicity?", "simpleDatatype": "Char"}, {"_links": {"parentClass": {"href": "/mdr/cdash/1-2/classes/Findings", "title": "Findings", "type": "Class"}, "parentProduct": {"href": "/mdr/cdash/1-2", "title": "Clinical Data Acquisition Standards Harmonization Model Version 1.2", "type": "Foundational Model"}, "priorVersion": {"href": "/mdr/cdash/1-1/classes/Findings/fields/--TOXGR", "title": "Toxicity Grade", "type": "Class Variable"}, "rootItem": {"href": "/mdr/root/cdash/classes/Findings/fields/--TOXGR", "title": "Toxicity Grade", "type": "Root Data Element"}, "sdtmClassMappingTargets": [{"href": "/mdr/sdtm/1-7/classes/Findings/variables/--TOXGR", "title": "Toxicity Grade", "type": "Class Variable"}], "self": {"href": "/mdr/cdash/1-2/classes/Findings/fields/--TOXGR", "title": "Toxicity Grade", "type": "Class Variable"}}, "definition": "The toxicity grade using a standard toxicity scale (e.g., NCI CTCAE).", "implementationNotes": "Sponsors may choose not to collect --TOXGR. If collected, sponsors should specify which scale and version is used in the Sponsor Comments column of the Define- XML document. Note: CDISC Controlled Terminology (TOXGRV3 or TOXGRV4) may be used for this variable.", "label": "Toxicity Grade", "mappingInstructions": "Maps directly to the SDTM variable listed in the SDTM Target column.", "name": "--TOXGR", "ordinal": "41", "prompt": "[NCI CTCAE Toxicity/scale name] Grade", "questionText": "What [is/was] the [NCI CTCAE Toxicity/scale name] grade?", "simpleDatatype": "Char"}, {"_links": {"parentClass": {"href": "/mdr/cdash/1-2/classes/Findings", "title": "Findings", "type": "Class"}, "parentProduct": {"href": "/mdr/cdash/1-2", "title": "Clinical Data Acquisition Standards Harmonization Model Version 1.2", "type": "Foundational Model"}, "priorVersion": {"href": "/mdr/cdash/1-1/classes/Findings/fields/--SEV", "title": "Severity", "type": "Class Variable"}, "rootItem": {"href": "/mdr/root/cdash/classes/Findings/fields/--SEV", "title": "Severity", "type": "Root Data Element"}, "sdtmClassMappingTargets": [{"href": "/mdr/sdtm/1-7/classes/Findings/variables/--SEV", "title": "Severity", "type": "Class Variable"}], "self": {"href": "/mdr/cdash/1-2/classes/Findings/fields/--SEV", "title": "Severity", "type": "Class Variable"}}, "definition": "The severity or intensity of a particular finding.", "label": "Severity", "mappingInstructions": "Maps directly to the SDTM variable listed in the SDTM Target column.", "name": "--SEV", "ordinal": "42", "prompt": "Severity", "questionText": "What [is/was] the severity (of the finding)?", "simpleDatatype": "Char"}, {"_links": {"codelist": [{"href": "/mdr/root/ct/sdtmct/codelists/C66742", "title": "Version-agnostic anchor resource for codelist C66742", "type": "Root Value Domain"}], "parentClass": {"href": "/mdr/cdash/1-2/classes/Findings", "title": "Findings", "type": "Class"}, "parentProduct": {"href": "/mdr/cdash/1-2", "title": "Clinical Data Acquisition Standards Harmonization Model Version 1.2", "type": "Foundational Model"}, "priorVersion": {"href": "/mdr/cdash/1-1/classes/Findings/fields/--DTHREL", "title": "Relationship to Death", "type": "Class Variable"}, "rootItem": {"href": "/mdr/root/cdash/classes/Findings/fields/--DTHREL", "title": "Relationship to Death", "type": "Root Data Element"}, "sdtmClassMappingTargets": [{"href": "/mdr/sdtm/1-7/classes/Findings/variables/--DTHREL", "title": "Relationship to Death", "type": "Class Variable"}], "self": {"href": "/mdr/cdash/1-2/classes/Findings/fields/--DTHREL", "title": "Relationship to Death", "type": "Class Variable"}}, "definition": "An indication of the relationship of a particular finding to the death of a subject.", "label": "Relationship to Death", "mappingInstructions": "Maps directly to the SDTM variable listed in the SDTM Target column.", "name": "--DTHREL", "ordinal": "43", "prompt": "Related to Death", "questionText": "[Is/Was] this findings related to the death of the subject?", "simpleDatatype": "Char"}, {"_links": {"parentClass": {"href": "/mdr/cdash/1-2/classes/Findings", "title": "Findings", "type": "Class"}, "parentProduct": {"href": "/mdr/cdash/1-2", "title": "Clinical Data Acquisition Standards Harmonization Model Version 1.2", "type": "Foundational Model"}, "priorVersion": {"href": "/mdr/cdash/1-1/classes/Findings/fields/--CLLOQ", "title": "Collected Lower Limit of Quantitation", "type": "Class Variable"}, "rootItem": {"href": "/mdr/root/cdash/classes/Findings/fields/--CLLOQ", "title": "Collected Lower Limit of Quantitation", "type": "Root Data Element"}, "sdtmClassMappingTargets": [{"href": "/mdr/sdtm/1-7/classes/Findings/variables/--LLOQ", "title": "Lower Limit of Quantitation", "type": "Class Variable"}], "self": {"href": "/mdr/cdash/1-2/classes/Findings/fields/--CLLOQ", "title": "Collected Lower Limit of Quantitation", "type": "Class Variable"}}, "definition": "The collected lower limit of quantitation for an assay, represented in text format or as a range, such as less than a specified numeric value.", "implementationNotes": "These data may be obtained directly from the lab or the electronic equipment and not collected on the CRF. The units are those used for the SDTM variable --STRESU. This is not the lower limit of normal of the reference range for the test. The SDTM variable --LLOQ must be populated as a numeric.", "label": "Collected Lower Limit of Quantitation", "mappingInstructions": "This does not map directly to an SDTM variable. For the SDTM dataset, the CDASH variable, --CLLOQ maps to the SDTM variable --LLOQ. The units will be those used for --STRESU.", "name": "--CLLOQ", "ordinal": "44", "prompt": "Lower Limit of Quantification", "questionText": "What [is/was] the lower limit of quantification (for the [measurement/test/examination])?", "simpleDatatype": "Num"}, {"_links": {"parentClass": {"href": "/mdr/cdash/1-2/classes/Findings", "title": "Findings", "type": "Class"}, "parentProduct": {"href": "/mdr/cdash/1-2", "title": "Clinical Data Acquisition Standards Harmonization Model Version 1.2", "type": "Foundational Model"}, "priorVersion": {"href": "/mdr/cdash/1-1/classes/Findings/fields/--CULOQ", "title": "Collected Upper Limit of Quantitation", "type": "Class Variable"}, "rootItem": {"href": "/mdr/root/cdash/classes/Findings/fields/--CULOQ", "title": "Collected Upper Limit of Quantitation", "type": "Root Data Element"}, "sdtmClassMappingTargets": [{"href": "/mdr/sdtm/1-7/classes/Findings/variables/--ULOQ", "title": "Upper Limit of Quantitation", "type": "Class Variable"}], "self": {"href": "/mdr/cdash/1-2/classes/Findings/fields/--CULOQ", "title": "Collected Upper Limit of Quantitation", "type": "Class Variable"}}, "definition": "The collected upper limit of quantitation for an assay, represented in text format or as a range, such as greater than a specified numeric value.", "implementationNotes": "These data may be obtained directly from the lab or the electronic equipment and not collected on the CRF. The units are those used for the SDTM variable --STRESU. This is not the upper limit of normal of the reference range for the test. The SDTM variable --ULOQ must be populated as a numeric.", "label": "Collected Upper Limit of Quantitation", "mappingInstructions": "This does not map directly to an SDTM variable. For the SDTM dataset, the CDASH variable, --CULOQ maps to the SDTM variable --ULOQ. The units will be those used for --STRESU.", "name": "--CULOQ", "ordinal": "45", "prompt": "Upper Limit of Quantification", "questionText": "What [is/was] the upper limit of quantification (for the [measurement/test/examination])?", "simpleDatatype": "Num"}, {"_links": {"codelist": [{"href": "/mdr/root/ct/sdtmct/codelists/C66742", "title": "Version-agnostic anchor resource for codelist C66742", "type": "Root Value Domain"}], "parentClass": {"href": "/mdr/cdash/1-2/classes/Findings", "title": "Findings", "type": "Class"}, "parentProduct": {"href": "/mdr/cdash/1-2", "title": "Clinical Data Acquisition Standards Harmonization Model Version 1.2", "type": "Foundational Model"}, "priorVersion": {"href": "/mdr/cdash/1-1/classes/Findings/fields/--COND", "title": "Test Condition Met", "type": "Class Variable"}, "rootItem": {"href": "/mdr/root/cdash/classes/Findings/fields/--COND", "title": "Test Condition Met", "type": "Root Data Element"}, "sdtmDatasetMappingTargets": [{"href": "/mdr/sdtm/1-7/datasets/SUPPQUAL/variables/QVAL", "title": "Data Value", "type": "SDTM Dataset Variable"}], "self": {"href": "/mdr/cdash/1-2/classes/Findings/fields/--COND", "title": "Test Condition Met", "type": "Class Variable"}}, "definition": "An indication whether the testing conditions defined in the protocol were met (e.g., low-fat diet).", "label": "Test Condition Met", "mappingInstructions": "This information could be submitted in a SUPP--dataset as the value of SUPP--.QVAL when SUPP--.QNAM = --COND and SUPP.QLABEL=\"Test Condition Met\". Refer to the current SDTM and SDTMIG for instructions on placement of NSVs in SDTM domains.", "name": "--COND", "ordinal": "46", "prompt": "Defined Testing Condition Met", "questionText": "[Are/Were] the protocol-defined testing conditions met?", "simpleDatatype": "Char"}, {"_links": {"codelist": [{"href": "/mdr/root/ct/sdtmct/codelists/C66742", "title": "Version-agnostic anchor resource for codelist C66742", "type": "Root Value Domain"}], "parentClass": {"href": "/mdr/cdash/1-2/classes/Findings", "title": "Findings", "type": "Class"}, "parentProduct": {"href": "/mdr/cdash/1-2", "title": "Clinical Data Acquisition Standards Harmonization Model Version 1.2", "type": "Foundational Model"}, "priorVersion": {"href": "/mdr/cdash/1-1/classes/Findings/fields/--CLSIG", "title": "Clinical Significance", "type": "Class Variable"}, "rootItem": {"href": "/mdr/root/cdash/classes/Findings/fields/--CLSIG", "title": "Clinical Significance", "type": "Root Data Element"}, "sdtmDatasetMappingTargets": [{"href": "/mdr/sdtm/1-7/datasets/SUPPQUAL/variables/QVAL", "title": "Data Value", "type": "SDTM Dataset Variable"}], "self": {"href": "/mdr/cdash/1-2/classes/Findings/fields/--CLSIG", "title": "Clinical Significance", "type": "Class Variable"}}, "definition": "An indication whether the test results were clinically significant.", "label": "Clinical Significance", "mappingInstructions": "This information could be submitted in a SUPP--dataset as the value of SUPP--.QVAL when SUPP--.QNAM = \"CLSIG\" and SUPP--.QLABEL=\"Clinical Significance\". Refer to the current SDTM and SDTMIG for instructions on placement of NSVs in SDTM domains.", "name": "--CLSIG", "ordinal": "47", "prompt": "([Measurement/Test/Examination/])/Clinically Significant", "questionText": "[Is/Was] the ([measurement/test/examination/question/assessment]) result clinically significant?", "simpleDatatype": "Char"}, {"_links": {"parentClass": {"href": "/mdr/cdash/1-2/classes/Findings", "title": "Findings", "type": "Class"}, "parentProduct": {"href": "/mdr/cdash/1-2", "title": "Clinical Data Acquisition Standards Harmonization Model Version 1.2", "type": "Foundational Model"}, "priorVersion": {"href": "/mdr/cdash/1-1/classes/Findings/fields/--REPNUM", "title": "Repetition Number", "type": "Class Variable"}, "rootItem": {"href": "/mdr/root/cdash/classes/Findings/fields/--REPNUM", "title": "Repetition Number", "type": "Root Data Element"}, "sdtmDatasetMappingTargets": [{"href": "/mdr/sdtm/1-7/datasets/SUPPQUAL/variables/QVAL", "title": "Data Value", "type": "SDTM Dataset Variable"}], "self": {"href": "/mdr/cdash/1-2/classes/Findings/fields/--REPNUM", "title": "Repetition Number", "type": "Class Variable"}}, "definition": "The instance number of a test that is repeated within a given timeframe for the same test. The level of granularity can vary (e.g., within a time point or within a visit).", "implementationNotes": "The repetition number of the test/measurement within the time point may be pre-printed on the CRF (e.g., multiple measurements of blood pressure, multiple analyses of a sample).", "label": "Repetition Number", "mappingInstructions": "This does not map directly to an SDTM variable. This information could be submitted in a SUPP-- dataset as the value of SUPP--.QVAL where SUPP--.QNAM = \"--REPNUM\" and SUPP--.QLABEL=\"Repetition Number within Time Point\". Refer to the current SDTM and SDTMIG for instructions on placement of NSVs in SDTM domains.", "name": "--REPNUM", "ordinal": "48", "prompt": "Repetition Number within (the) [time point/visit/timeframe]", "questionText": "What was the repetition number within (the) [time point/visit/timeframe] (for this [measurement/test/examination/question/assessment])?", "simpleDatatype": "Char"}, {"_links": {"parentClass": {"href": "/mdr/cdash/1-2/classes/Findings", "title": "Findings", "type": "Class"}, "parentProduct": {"href": "/mdr/cdash/1-2", "title": "Clinical Data Acquisition Standards Harmonization Model Version 1.2", "type": "Foundational Model"}, "priorVersion": {"href": "/mdr/cdash/1-1/classes/Findings/fields/--DATFL", "title": "Same as Previous Sample Collection Date", "type": "Class Variable"}, "rootItem": {"href": "/mdr/root/cdash/classes/Findings/fields/--DATFL", "title": "Same as Previous Sample Collection Date", "type": "Root Data Element"}, "self": {"href": "/mdr/cdash/1-2/classes/Findings/fields/--DATFL", "title": "Same as Previous Sample Collection Date", "type": "Class Variable"}}, "definition": "A flag indicating that the date (or start date) is the same as the previous specimen collection date (or start date).", "implementationNotes": "When a series of specimens are recorded on a single CRF, this field is tied to the collection date to allow for the flag to be used as a surrogate for the date field. Its selection means that the date of this specimen is the same as the date of the last specimen collected (in the series). Usually a checkbox or tick box on the CRF. This would typically be used in the PC domain.", "label": "Same as Previous Sample Collection Date", "mappingInstructions": "Does not map to an SDTM variable. The SDTM annotated CRF indicates that this field is NOT SUBMITTED.", "name": "--DATFL", "ordinal": "49", "prompt": "Same as ([Last/Previous]) ([Specimen/Sample]) ([Collection/Collection End]) Date", "questionText": "[Is/Was] this specimen/sample collected on the same date as the (last/previous specimen/sample) (collected/collection ended)?", "simpleDatatype": "Char"}, {"_links": {"parentClass": {"href": "/mdr/cdash/1-2/classes/Findings", "title": "Findings", "type": "Class"}, "parentProduct": {"href": "/mdr/cdash/1-2", "title": "Clinical Data Acquisition Standards Harmonization Model Version 1.2", "type": "Foundational Model"}, "priorVersion": {"href": "/mdr/cdash/1-1/classes/Findings/fields/--ENDATF", "title": "Same as Current Sample Collection Start Date", "type": "Class Variable"}, "rootItem": {"href": "/mdr/root/cdash/classes/Findings/fields/--ENDATF", "title": "Same as Current Sample Collection Start Date", "type": "Root Data Element"}, "self": {"href": "/mdr/cdash/1-2/classes/Findings/fields/--ENDATF", "title": "Same as Current Sample Collection Start Date", "type": "Class Variable"}}, "definition": "A flag indicating that the specimen/sample collection ended on the same date the current/previous specimen collection started.", "implementationNotes": "When a series of interval sample/specimen collections are recorded on a single CRF, this field is tied to the start of the current collection to allow for the flag to be used as a surrogate for the date field. Its selection means that the end date of this specimen/sample collection is the same as the start date of the current specimen/sample collected. Usually a checkbox or tick box on the CRF. This would typically be used in the PC domain.", "label": "Same as Current Sample Collection Start Date", "mappingInstructions": "Does not map to an SDTM variable. The SDTM annotated CRF indicates that this field is NOT SUBMITTED.", "name": "--ENDATF", "ordinal": "50", "prompt": "Same as Current (Specimen's/Sample Collection) Start Date", "questionText": "[Is/Was] this specimen/sample collection ended on the same day as the current specimen's/sample's start date?", "simpleDatatype": "Char"}, {"_links": {"parentClass": {"href": "/mdr/cdash/1-2/classes/Findings", "title": "Findings", "type": "Class"}, "parentProduct": {"href": "/mdr/cdash/1-2", "title": "Clinical Data Acquisition Standards Harmonization Model Version 1.2", "type": "Foundational Model"}, "priorVersion": {"href": "/mdr/cdash/1-1/classes/Findings/fields/COVAL", "title": "Comment", "type": "Class Variable"}, "rootItem": {"href": "/mdr/root/cdash/classes/Findings/fields/COVAL", "title": "Comment", "type": "Root Data Element"}, "sdtmDatasetMappingTargets": [{"href": "/mdr/sdtm/1-7/datasets/CO/variables/COVAL", "title": "Comment", "type": "SDTM Dataset Variable"}], "self": {"href": "/mdr/cdash/1-2/classes/Findings/fields/COVAL", "title": "Comment", "type": "Class Variable"}}, "definition": "A free-text comment.", "implementationNotes": "If an additional free-text field is needed to provide a comment about a particular record, use the COVAL(n) field to collect the free text, and associate the free-text comment with the original record using SDTM variables RDOMAIN, IDVAR, IDVARVAL, COREF. See SDTMIG for additional information.", "label": "Comment", "mappingInstructions": "This does not map directly to an SDTM variable. For the SDTM dataset, the CDASH variable --COVAL maps to the SDTM variable COVAL (COVAL2, COVAL3) in the CO domain. Associate the free-text comment in the CO domain with the original record using RDOMAIN, IDVAR, IDVARVAL, COREF.", "name": "COVAL", "ordinal": "51", "prompt": "[abbreviated version of the protocol-specified targeted question]", "questionText": "[Protocol-specified Targeted Question]?", "simpleDatatype": "Char"}, {"_links": {"parentClass": {"href": "/mdr/cdash/1-2/classes/Findings", "title": "Findings", "type": "Class"}, "parentProduct": {"href": "/mdr/cdash/1-2", "title": "Clinical Data Acquisition Standards Harmonization Model Version 1.2", "type": "Foundational Model"}, "priorVersion": {"href": "/mdr/cdash/1-1/classes/Findings/fields/--MODIFY", "title": "Modified Term", "type": "Class Variable"}, "rootItem": {"href": "/mdr/root/cdash/classes/Findings/fields/--MODIFY", "title": "Modified Term", "type": "Root Data Element"}, "sdtmClassMappingTargets": [{"href": "/mdr/sdtm/1-7/classes/Findings/variables/--MODIFY", "title": "Modified Term", "type": "Class Variable"}], "self": {"href": "/mdr/cdash/1-2/classes/Findings/fields/--MODIFY", "title": "Modified Term", "type": "Class Variable"}}, "definition": "If the value for --ORRES is modified for coding purposes, then the modified text is placed here.", "implementationNotes": "This is not a data collection field that will appear on the CRF; sponsors will populate this through the coding process. The rationale for adding coding variables to CDASH is to provide a more complete data management package.", "label": "Modified Term", "mappingInstructions": "Maps directly to the SDTM variable listed in the SDTM Target column.", "name": "--MODIFY", "ordinal": "52", "simpleDatatype": "Char"}, {"_links": {"parentClass": {"href": "/mdr/cdash/1-2/classes/Findings", "title": "Findings", "type": "Class"}, "parentProduct": {"href": "/mdr/cdash/1-2", "title": "Clinical Data Acquisition Standards Harmonization Model Version 1.2", "type": "Foundational Model"}, "priorVersion": {"href": "/mdr/cdash/1-1/classes/Findings/fields/--BODSYS", "title": "Body System or Organ Class", "type": "Class Variable"}, "rootItem": {"href": "/mdr/root/cdash/classes/Findings/fields/--BODSYS", "title": "Body System or Organ Class", "type": "Root Data Element"}, "sdtmClassMappingTargets": [{"href": "/mdr/sdtm/1-7/classes/Findings/variables/--BODSYS", "title": "Body System or Organ Class", "type": "Class Variable"}], "self": {"href": "/mdr/cdash/1-2/classes/Findings/fields/--BODSYS", "title": "Body System or Organ Class", "type": "Class Variable"}}, "definition": "Body system or organ class that is involved for a finding, from the standard hierarchy for dictionary-coded results.", "implementationNotes": "--BODSYS should be assigned using a coding system. If included on the CRF, it is pre-populated and must be paired by the sponsor with specific pre-specified verbatim terms. If not included on the CRF, --BODSYS is assigned through the coding process.", "label": "Body System or Organ Class", "mappingInstructions": "Maps directly to the SDTM variable listed in the SDTM Target column.", "name": "--BODSYS", "ordinal": "53", "prompt": "[Body System/Organ System]", "questionText": "What is/was the [body system/organ system]?", "simpleDatatype": "Char"}], "description": "This SDTM class captures the observations resulting from planned evaluations to address specific tests or questions such as laboratory tests, ECG testing, and questions listed on questionnaires. (Source: CDISC Controlled Terminology, GNRLOBSC, C103373, 2021-06-25)", "label": "Findings", "name": "Findings", "ordinal": "3"}
