{"_links": {"parentProduct": {"href": "/mdr/cdash/1-2", "title": "Clinical Data Acquisition Standards Harmonization Model Version 1.2", "type": "Foundational Model"}, "priorVersion": {"href": "/mdr/cdash/1-1/classes/Identifiers", "title": "Identifiers", "type": "Class"}, "self": {"href": "/mdr/cdash/1-2/classes/Identifiers", "title": "Identifiers", "type": "Class"}}, "cdashModelFields": [{"_links": {"parentClass": {"href": "/mdr/cdash/1-2/classes/Identifiers", "title": "Identifiers", "type": "Class"}, "parentProduct": {"href": "/mdr/cdash/1-2", "title": "Clinical Data Acquisition Standards Harmonization Model Version 1.2", "type": "Foundational Model"}, "priorVersion": {"href": "/mdr/cdash/1-1/classes/Identifiers/fields/SPONSOR", "title": "Sponsor", "type": "Class Variable"}, "rootItem": {"href": "/mdr/root/cdash/classes/Identifiers/fields/SPONSOR", "title": "Sponsor", "type": "Root Data Element"}, "sdtmDatasetMappingTargets": [{"href": "/mdr/sdtm/1-7/datasets/TS/variables/TSVAL", "title": "Parameter Value", "type": "SDTM Dataset Variable"}], "self": {"href": "/mdr/cdash/1-2/classes/Identifiers/fields/SPONSOR", "title": "Sponsor", "type": "Class Variable"}}, "definition": "An identifier for the entity with the overall regulatory responsibility for the protocol.", "implementationNotes": "In some cases, the combination of Sponsor ID with Study ID and Site ID might be needed by external parties (e.g., CRO or for a multisponsor study) to uniquely identify sites belonging to the study for the given sponsor.", "label": "Sponsor", "mappingInstructions": "For the SDTM dataset, the value in the CDASH field SPONSOR maps to the SDTM variable TSVAL. The SDTM variable TSPARMCD is populated with \"SPONSOR\" and the SDTM variable TSPARM is populated with \"Clinical Study Sponsor\".", "name": "SPONSOR", "ordinal": "1", "prompt": "Sponsor", "questionText": "What is the sponsor identifier?", "simpleDatatype": "Char"}, {"_links": {"codelist": [{"href": "/mdr/root/ct/sdtmct/codelists/C66734", "title": "Version-agnostic anchor resource for codelist C66734", "type": "Root Value Domain"}], "parentClass": {"href": "/mdr/cdash/1-2/classes/Identifiers", "title": "Identifiers", "type": "Class"}, "parentProduct": {"href": "/mdr/cdash/1-2", "title": "Clinical Data Acquisition Standards Harmonization Model Version 1.2", "type": "Foundational Model"}, "priorVersion": {"href": "/mdr/cdash/1-1/classes/Identifiers/fields/DOMAIN", "title": "Domain Abbreviation", "type": "Class Variable"}, "rootItem": {"href": "/mdr/root/cdash/classes/Identifiers/fields/DOMAIN", "title": "Domain Abbreviation", "type": "Root Data Element"}, "sdtmClassMappingTargets": [{"href": "/mdr/sdtm/1-7/classes/GeneralObservations/variables/DOMAIN", "title": "Domain Abbreviation", "type": "Class Variable"}], "self": {"href": "/mdr/cdash/1-2/classes/Identifiers/fields/DOMAIN", "title": "Domain Abbreviation", "type": "Class Variable"}}, "definition": "A 2-character abbreviation for the domain most relevant to the observation.", "implementationNotes": "This field can be derived into the database or created during SDTM dataset creation before submission. The domain abbreviation is also used as a prefix for variables to ensure uniqueness when datasets are merged.", "label": "Domain Abbreviation", "mappingInstructions": "Maps directly to the SDTM variable listed in the SDTM Target column.", "name": "DOMAIN", "ordinal": "2", "simpleDatatype": "Char"}, {"_links": {"parentClass": {"href": "/mdr/cdash/1-2/classes/Identifiers", "title": "Identifiers", "type": "Class"}, "parentProduct": {"href": "/mdr/cdash/1-2", "title": "Clinical Data Acquisition Standards Harmonization Model Version 1.2", "type": "Foundational Model"}, "priorVersion": {"href": "/mdr/cdash/1-1/classes/Identifiers/fields/STUDYID", "title": "Study Identifier", "type": "Class Variable"}, "rootItem": {"href": "/mdr/root/cdash/classes/Identifiers/fields/STUDYID", "title": "Study Identifier", "type": "Root Data Element"}, "sdtmClassMappingTargets": [{"href": "/mdr/sdtm/1-7/classes/GeneralObservations/variables/STUDYID", "title": "Study Identifier", "type": "Class Variable"}], "self": {"href": "/mdr/cdash/1-2/classes/Identifiers/fields/STUDYID", "title": "Study Identifier", "type": "Class Variable"}}, "definition": "A unique identifier for a study.", "implementationNotes": "Although this field is not typically captured on a CRF, it should be displayed clearly on the CRF and/or the EDC system. This field can be included into the database or populated during SDTM-based dataset creation before submission.", "label": "Study Identifier", "mappingInstructions": "Maps directly to the SDTM variable listed in the SDTM Target column.", "name": "STUDYID", "ordinal": "3", "prompt": "[Protocol/Study]", "questionText": "What [is/was] the study identifier?", "simpleDatatype": "Char"}, {"_links": {"parentClass": {"href": "/mdr/cdash/1-2/classes/Identifiers", "title": "Identifiers", "type": "Class"}, "parentProduct": {"href": "/mdr/cdash/1-2", "title": "Clinical Data Acquisition Standards Harmonization Model Version 1.2", "type": "Foundational Model"}, "priorVersion": {"href": "/mdr/cdash/1-1/classes/Identifiers/fields/SITEID", "title": "Study Site Identifier", "type": "Class Variable"}, "rootItem": {"href": "/mdr/root/cdash/classes/Identifiers/fields/SITEID", "title": "Study Site Identifier", "type": "Root Data Element"}, "sdtmDatasetMappingTargets": [{"href": "/mdr/sdtm/1-7/datasets/DM/variables/SITEID", "title": "Study Site Identifier", "type": "SDTM Dataset Variable"}], "self": {"href": "/mdr/cdash/1-2/classes/Identifiers/fields/SITEID", "title": "Study Site Identifier", "type": "Class Variable"}}, "definition": "A unique identifier for a site within a study.", "implementationNotes": "Paper: This is typically pre-printed in the header of each CRF page for single site studies. For studies with multiple sites, this field may be left blank so that the number can be recorded by the site, or it may be pre-printed for the CRFs that are shipped to each site. EDC: This should be prepopulated.", "label": "Study Site Identifier", "mappingInstructions": "For the SDTM dataset, the value in the CDASH field SITEID maps to the SDTM variable DM.SITEID.", "name": "SITEID", "ordinal": "4", "prompt": "Site (Identifier)", "questionText": "What [is/was] the site identifier?", "simpleDatatype": "Char"}, {"_links": {"parentClass": {"href": "/mdr/cdash/1-2/classes/Identifiers", "title": "Identifiers", "type": "Class"}, "parentProduct": {"href": "/mdr/cdash/1-2", "title": "Clinical Data Acquisition Standards Harmonization Model Version 1.2", "type": "Foundational Model"}, "priorVersion": {"href": "/mdr/cdash/1-1/classes/Identifiers/fields/INVID", "title": "Investigator Identifier", "type": "Class Variable"}, "rootItem": {"href": "/mdr/root/cdash/classes/Identifiers/fields/INVID", "title": "Investigator Identifier", "type": "Root Data Element"}, "sdtmDatasetMappingTargets": [{"href": "/mdr/sdtm/1-7/datasets/DM/variables/INVID", "title": "Investigator Identifier", "type": "SDTM Dataset Variable"}], "self": {"href": "/mdr/cdash/1-2/classes/Identifiers/fields/INVID", "title": "Investigator Identifier", "type": "Class Variable"}}, "definition": "An identifier to describe the investigator for the study.", "implementationNotes": "May be used in addition to the SITEID. Not needed if SITEID is equivalent to INVID.", "label": "Investigator Identifier", "mappingInstructions": "For the SDTM dataset, the value in the CDASH field SITEID maps to the SDTM variable DM.INVID.", "name": "INVID", "ordinal": "5", "prompt": "Investigator (Identifier)", "questionText": "What [is/was] the investigator identifier?", "simpleDatatype": "Char"}, {"_links": {"parentClass": {"href": "/mdr/cdash/1-2/classes/Identifiers", "title": "Identifiers", "type": "Class"}, "parentProduct": {"href": "/mdr/cdash/1-2", "title": "Clinical Data Acquisition Standards Harmonization Model Version 1.2", "type": "Foundational Model"}, "priorVersion": {"href": "/mdr/cdash/1-1/classes/Identifiers/fields/SUBJID", "title": "Subject Identifier for the Study", "type": "Class Variable"}, "rootItem": {"href": "/mdr/root/cdash/classes/Identifiers/fields/SUBJID", "title": "Subject Identifier for the Study", "type": "Root Data Element"}, "sdtmDatasetMappingTargets": [{"href": "/mdr/sdtm/1-7/datasets/DM/variables/SUBJID", "title": "Subject Identifier for the Study", "type": "SDTM Dataset Variable"}], "self": {"href": "/mdr/cdash/1-2/classes/Identifiers/fields/SUBJID", "title": "Subject Identifier for the Study", "type": "Class Variable"}}, "definition": "A unique subject identifier within a site and a study.", "implementationNotes": "This CDASH variable is typically collected in all CDASH domains. However, this CDASH variable is populated only in the SDTMIG DM domain. The recording of multiple SUBJID for the same subject is a known SDTM issue. If a subject is screened more than once, there may be more than one SUBJID per instance of being screened within the trial. See FDA Study Data Technical Conformance Guide, Section 4.1.1.2.a", "label": "Subject Identifier for the Study", "mappingInstructions": "For the SDTM dataset, the value in the CDASH field SUBJID maps to the SDTM variable DM.SUBJID.", "name": "SUBJID", "ordinal": "6", "prompt": "[Subject/Participant] (Identifier)", "questionText": "What [is/was] the (study) [subject/participant] identifier?", "simpleDatatype": "Char"}, {"_links": {"parentClass": {"href": "/mdr/cdash/1-2/classes/Identifiers", "title": "Identifiers", "type": "Class"}, "parentProduct": {"href": "/mdr/cdash/1-2", "title": "Clinical Data Acquisition Standards Harmonization Model Version 1.2", "type": "Foundational Model"}, "priorVersion": {"href": "/mdr/cdash/1-1/classes/Identifiers/fields/FOCID", "title": "Focus of Study Specific Interest", "type": "Class Variable"}, "rootItem": {"href": "/mdr/root/cdash/classes/Identifiers/fields/FOCID", "title": "Focus of Study Specific Interest", "type": "Root Data Element"}, "sdtmClassMappingTargets": [{"href": "/mdr/sdtm/1-7/classes/GeneralObservations/variables/FOCID", "title": "Focus of Study-Specific Interest", "type": "Class Variable"}], "self": {"href": "/mdr/cdash/1-2/classes/Identifiers/fields/FOCID", "title": "Focus of Study Specific Interest", "type": "Class Variable"}}, "definition": "An identifier used to indicate a focus of study-specific interest on or within a subject or specimen (as described in the protocol), for which a measurement, test, or examination was performed, such as a drug application site (e.g., \"Injection site 1\", \"Biopsy site 1\", \"Treated site 1\") or a more specific focus (e.g., \"OD\" (right eye) or \"Upper left quadrant of the back\"). The value in this variable should have inherent semantic meaning.", "implementationNotes": "This SDTM variable was defined in SDTM v1.5, but was not included in SDTMIG 3.2. Sponsors should consider the SDTM version being used when creating submission datasets. If using pre-SDTM 1.5, the CDASH-to-SDTM mapping may need to be defined by the sponsor because FOCID was not a valid SDTM variable in these versions.", "label": "Focus of Study Specific Interest", "mappingInstructions": "Maps directly to the SDTM variable listed in the SDTM Target column.", "name": "FOCID", "ordinal": "7", "prompt": "[Protocol Specific Prompt]", "questionText": "[Protocol specific question]?", "simpleDatatype": "Char"}, {"_links": {"parentClass": {"href": "/mdr/cdash/1-2/classes/Identifiers", "title": "Identifiers", "type": "Class"}, "parentProduct": {"href": "/mdr/cdash/1-2", "title": "Clinical Data Acquisition Standards Harmonization Model Version 1.2", "type": "Foundational Model"}, "priorVersion": {"href": "/mdr/cdash/1-1/classes/Identifiers/fields/--SPID", "title": "Sponsor-Defined Identifier", "type": "Class Variable"}, "rootItem": {"href": "/mdr/root/cdash/classes/Identifiers/fields/--SPID", "title": "Sponsor-Defined Identifier", "type": "Root Data Element"}, "sdtmClassMappingTargets": [{"href": "/mdr/sdtm/1-7/classes/GeneralObservations/variables/--SPID", "title": "Sponsor-Defined Identifier", "type": "Class Variable"}], "self": {"href": "/mdr/cdash/1-2/classes/Identifiers/fields/--SPID", "title": "Sponsor-Defined Identifier", "type": "Class Variable"}}, "definition": "A sponsor-defined identifier. In CDASH, This is typically used for pre-printed or auto-generated numbers on the CRF, or any other type of identifier that does not already have a defined CDASH identifier field.", "implementationNotes": "Because SPID is a sponsor-defined identifier, conformance to Question Text or Item Prompt is not applicable. Typically used as an identifier in a data query to communicate clearly to the site the specific record in question or to reconcile data. May be used to record pre-printed number (e.g., line number, record number) on the CRF. This field may be populated by the sponsor's data collection system.", "label": "Sponsor-Defined Identifier", "mappingInstructions": "Maps directly to the SDTM variable listed in the SDTM Target column. May be used to create RELREC to link this record with a record in another domain.", "name": "--SPID", "ordinal": "8", "prompt": "[Sponsor defined]", "questionText": "[Sponsor-defined question]", "simpleDatatype": "Char"}, {"_links": {"parentClass": {"href": "/mdr/cdash/1-2/classes/Identifiers", "title": "Identifiers", "type": "Class"}, "parentProduct": {"href": "/mdr/cdash/1-2", "title": "Clinical Data Acquisition Standards Harmonization Model Version 1.2", "type": "Foundational Model"}, "priorVersion": {"href": "/mdr/cdash/1-1/classes/Identifiers/fields/--GRPID", "title": "Group ID", "type": "Class Variable"}, "rootItem": {"href": "/mdr/root/cdash/classes/Identifiers/fields/--GRPID", "title": "Group ID", "type": "Root Data Element"}, "sdtmClassMappingTargets": [{"href": "/mdr/sdtm/1-7/classes/GeneralObservations/variables/--GRPID", "title": "Group ID", "type": "Class Variable"}], "self": {"href": "/mdr/cdash/1-2/classes/Identifiers/fields/--GRPID", "title": "Group ID", "type": "Class Variable"}}, "definition": "A group identifier used to link together a block of related records within a subject in a domain.", "implementationNotes": "Used to link together a block of related records in a single domain for a subject. This group identifier may be used to tie together all the tests collected in a Findings domain using a denormalized approach (see CDASHIG Section 8.3.1, General CDASH Assumptions for Findings Domains). This field may be populated by the sponsor's data management system.", "label": "Group ID", "mappingInstructions": "Maps directly to the SDTM variable listed in the SDTM Target column.", "name": "--GRPID", "ordinal": "9", "prompt": "[Test/Procedure/Observation] Group Identifier", "questionText": "What [is/was] the [test/procedure/observation] group identifier?", "simpleDatatype": "Char"}, {"_links": {"parentClass": {"href": "/mdr/cdash/1-2/classes/Identifiers", "title": "Identifiers", "type": "Class"}, "parentProduct": {"href": "/mdr/cdash/1-2", "title": "Clinical Data Acquisition Standards Harmonization Model Version 1.2", "type": "Foundational Model"}, "priorVersion": {"href": "/mdr/cdash/1-1/classes/Identifiers/fields/--LNKID", "title": "Link ID", "type": "Class Variable"}, "rootItem": {"href": "/mdr/root/cdash/classes/Identifiers/fields/--LNKID", "title": "Link ID", "type": "Root Data Element"}, "sdtmClassMappingTargets": [{"href": "/mdr/sdtm/1-7/classes/GeneralObservations/variables/--LNKID", "title": "Link ID", "type": "Class Variable"}], "self": {"href": "/mdr/cdash/1-2/classes/Identifiers/fields/--LNKID", "title": "Link ID", "type": "Class Variable"}}, "definition": "An identifier used to link related records across domains.", "implementationNotes": "This may be a one-to- one or a one-to-many relationship. Example: A single tumor may have multiple measurements/assessments performed at each study visit.", "label": "Link ID", "mappingInstructions": "Maps directly to the SDTM variable listed in the SDTM Target column.", "name": "--LNKID", "ordinal": "10", "prompt": "[Domain/Observation] Link Identifier", "questionText": "What [is/was] the [test/procedure/observation] identifier?", "simpleDatatype": "Char"}, {"_links": {"parentClass": {"href": "/mdr/cdash/1-2/classes/Identifiers", "title": "Identifiers", "type": "Class"}, "parentProduct": {"href": "/mdr/cdash/1-2", "title": "Clinical Data Acquisition Standards Harmonization Model Version 1.2", "type": "Foundational Model"}, "priorVersion": {"href": "/mdr/cdash/1-1/classes/Identifiers/fields/--LNKGRP", "title": "Link Group ID", "type": "Class Variable"}, "rootItem": {"href": "/mdr/root/cdash/classes/Identifiers/fields/--LNKGRP", "title": "Link Group ID", "type": "Root Data Element"}, "sdtmClassMappingTargets": [{"href": "/mdr/sdtm/1-7/classes/GeneralObservations/variables/--LNKGRP", "title": "Link Group ID", "type": "Class Variable"}], "self": {"href": "/mdr/cdash/1-2/classes/Identifiers/fields/--LNKGRP", "title": "Link Group ID", "type": "Class Variable"}}, "definition": "An identifier used to link related records across domains.", "implementationNotes": "This will usually be a many-to-one relationship. Example: Multiple tumor measurements/assessments will contribute to a single response-to-therapy determination record.", "label": "Link Group ID", "mappingInstructions": "Maps directly to the SDTM variable listed in the SDTM Target column.", "name": "--LNKGRP", "ordinal": "11", "prompt": "[Domain/Observation] Link Group Identifier", "questionText": "What [is/was] the [domain/observation] link group ID?", "simpleDatatype": "Char"}, {"_links": {"parentClass": {"href": "/mdr/cdash/1-2/classes/Identifiers", "title": "Identifiers", "type": "Class"}, "parentProduct": {"href": "/mdr/cdash/1-2", "title": "Clinical Data Acquisition Standards Harmonization Model Version 1.2", "type": "Foundational Model"}, "priorVersion": {"href": "/mdr/cdash/1-1/classes/Identifiers/fields/--REFID", "title": "Reference ID", "type": "Class Variable"}, "rootItem": {"href": "/mdr/root/cdash/classes/Identifiers/fields/--REFID", "title": "Reference ID", "type": "Root Data Element"}, "sdtmClassMappingTargets": [{"href": "/mdr/sdtm/1-7/classes/GeneralObservations/variables/--REFID", "title": "Reference ID", "type": "Class Variable"}], "self": {"href": "/mdr/cdash/1-2/classes/Identifiers/fields/--REFID", "title": "Reference ID", "type": "Class Variable"}}, "definition": "An internal or external identifier (e.g., lab specimen ID, UUID for an ECG waveform or a medical image).", "label": "Reference ID", "mappingInstructions": "Maps directly to the SDTM variable listed in the SDTM Target column.", "name": "--REFID", "ordinal": "12", "prompt": "[Test/Procedure/Domain/Observation/Specimen/Sample/Report] [Reference/Accession Number/Identifier]", "questionText": "What [is/was] the [test/procedure/domain/observation/specimen/sample/report] [reference identifier/accession number/identifier]?", "simpleDatatype": "Char"}, {"_links": {"parentClass": {"href": "/mdr/cdash/1-2/classes/Identifiers", "title": "Identifiers", "type": "Class"}, "parentProduct": {"href": "/mdr/cdash/1-2", "title": "Clinical Data Acquisition Standards Harmonization Model Version 1.2", "type": "Foundational Model"}, "priorVersion": {"href": "/mdr/cdash/1-1/classes/Identifiers/fields/--AENO", "title": "Related Adverse Event ID", "type": "Class Variable"}, "rootItem": {"href": "/mdr/root/cdash/classes/Identifiers/fields/--AENO", "title": "Related Adverse Event ID", "type": "Root Data Element"}, "self": {"href": "/mdr/cdash/1-2/classes/Identifiers/fields/--AENO", "title": "Related Adverse Event ID", "type": "Class Variable"}}, "definition": "A numerical identifier for the adverse event that is associated with/related to this intervention/finding/event.", "implementationNotes": "Name of the identifying variable is stored in the SDTM variable IDVAR (e.g., --AENO) and the value of the SDTM variable IDVAR is stored in SDTM variable IDVARVAL. Example question text: What was the identifier for the adverse event associated with this concomitant medication?", "label": "Related Adverse Event ID", "mappingInstructions": "This does not map directly to an SDTM variable. For the SDTM submission datasets, may be used to create the RELREC dataset to link this record with a record in the associated Adverse Events domain.", "name": "--AENO", "ordinal": "13", "prompt": "Related Adverse Event Identifier", "questionText": "What [is/was] the identifier for the adverse event(s) [associated with/related to this intervention/finding/event]?", "simpleDatatype": "Char"}, {"_links": {"parentClass": {"href": "/mdr/cdash/1-2/classes/Identifiers", "title": "Identifiers", "type": "Class"}, "parentProduct": {"href": "/mdr/cdash/1-2", "title": "Clinical Data Acquisition Standards Harmonization Model Version 1.2", "type": "Foundational Model"}, "priorVersion": {"href": "/mdr/cdash/1-1/classes/Identifiers/fields/--MHNO", "title": "Related Medical History Event ID", "type": "Class Variable"}, "rootItem": {"href": "/mdr/root/cdash/classes/Identifiers/fields/--MHNO", "title": "Related Medical History Event ID", "type": "Root Data Element"}, "self": {"href": "/mdr/cdash/1-2/classes/Identifiers/fields/--MHNO", "title": "Related Medical History Event ID", "type": "Class Variable"}}, "definition": "A numerical identifier for the medical history event that is associated with/related to this intervention/finding/event.", "implementationNotes": "Name of the identifying variable is stored as a value in the SDTM variable IDVAR (e.g., \"--MHNO\") and the value of the IDVAR is stored in the STDM variable IDVARVAL. Example question text prompt: What was the identifier for the medical history event associated with this concomitant medication?", "label": "Related Medical History Event ID", "mappingInstructions": "This does not map directly to an SDTM variable. For the SDTM submission datasets, may be used to create the RELREC dataset to link this record with a record in the associated Medical History domain.", "name": "--MHNO", "ordinal": "14", "prompt": "Related Medical History Event Identifier", "questionText": "What [is/was] the identifier for the medical history event(s) [associated with/related to this intervention/finding/event]?", "simpleDatatype": "Char"}, {"_links": {"parentClass": {"href": "/mdr/cdash/1-2/classes/Identifiers", "title": "Identifiers", "type": "Class"}, "parentProduct": {"href": "/mdr/cdash/1-2", "title": "Clinical Data Acquisition Standards Harmonization Model Version 1.2", "type": "Foundational Model"}, "priorVersion": {"href": "/mdr/cdash/1-1/classes/Identifiers/fields/--PRNO", "title": "Related Procedure ID", "type": "Class Variable"}, "rootItem": {"href": "/mdr/root/cdash/classes/Identifiers/fields/--PRNO", "title": "Related Procedure ID", "type": "Root Data Element"}, "self": {"href": "/mdr/cdash/1-2/classes/Identifiers/fields/--PRNO", "title": "Related Procedure ID", "type": "Class Variable"}}, "definition": "A numerical identifier for the procedure that is associated with/related to this intervention/finding/event.", "implementationNotes": "Name of the identifying variable is stored as a value in the SDTM variable IDVAR (e.g., \"--PRNO\") and the value of the IDVAR is stored in the SDTM variable IDVARVAL. Example question text for an Adverse Event CRF: What was the identifier for the procedure associated with this adverse event?", "label": "Related Procedure ID", "mappingInstructions": "This does not map directly to an SDTM variable. For the SDTM submission datasets, may be used to create the RELREC dataset to link this record with a record in the associated Procedures domain.", "name": "--PRNO", "ordinal": "15", "prompt": "Related Procedure Identifier", "questionText": "What [is/was] the identifier for the procedure(s) [associated with/related to this intervention/finding/event]?", "simpleDatatype": "Char"}, {"_links": {"parentClass": {"href": "/mdr/cdash/1-2/classes/Identifiers", "title": "Identifiers", "type": "Class"}, "parentProduct": {"href": "/mdr/cdash/1-2", "title": "Clinical Data Acquisition Standards Harmonization Model Version 1.2", "type": "Foundational Model"}, "priorVersion": {"href": "/mdr/cdash/1-1/classes/Identifiers/fields/--CENO", "title": "Related Clinical Event ID", "type": "Class Variable"}, "rootItem": {"href": "/mdr/root/cdash/classes/Identifiers/fields/--CENO", "title": "Related Clinical Event ID", "type": "Root Data Element"}, "self": {"href": "/mdr/cdash/1-2/classes/Identifiers/fields/--CENO", "title": "Related Clinical Event ID", "type": "Class Variable"}}, "definition": "A numerical identifier for the clinical event that is associated with/related to this intervention/finding/event.", "implementationNotes": "Name of the identifying variable is stored as a value in the SDTM variable IDVAR (\"--CENO\") and the value of the IDVAR is stored in the SDTM variable IDVARVAL Example question text: What was the identifier for the clinical event associated with this procedure?", "label": "Related Clinical Event ID", "mappingInstructions": "This does not map directly to an SDTM variable. For the SDTM submission datasets, may be used to create the RELREC dataset to link this record with a record in the associated Clinical Events domain.", "name": "--CENO", "ordinal": "16", "prompt": "Related Clinical Event Identifier", "questionText": "What [is/was] the identifier for the clinical event(s) [associated with/related to this intervention/finding/event]?", "simpleDatatype": "Char"}, {"_links": {"parentClass": {"href": "/mdr/cdash/1-2/classes/Identifiers", "title": "Identifiers", "type": "Class"}, "parentProduct": {"href": "/mdr/cdash/1-2", "title": "Clinical Data Acquisition Standards Harmonization Model Version 1.2", "type": "Foundational Model"}, "priorVersion": {"href": "/mdr/cdash/1-1/classes/Identifiers/fields/SPDEVID", "title": "Sponsor Device Identifier", "type": "Class Variable"}, "rootItem": {"href": "/mdr/root/cdash/classes/Identifiers/fields/SPDEVID", "title": "Sponsor Device Identifier", "type": "Root Data Element"}, "sdtmClassMappingTargets": [{"href": "/mdr/sdtm/1-7/classes/GeneralObservations/variables/SPDEVID", "title": "Sponsor Device Identifier", "type": "Class Variable"}], "self": {"href": "/mdr/cdash/1-2/classes/Identifiers/fields/SPDEVID", "title": "Sponsor Device Identifier", "type": "Class Variable"}}, "definition": "A sponsor-defined identifier for a device.", "implementationNotes": "SPDEVID is a constructed variable consisting of elements that may not be available at the time of data capture (e.g., device type, manufacturer). Other device identifiers, such as serial number, may instead be used on the CRF. If this is the case, sponsors should use controlled terminology for the SPDEVID elements as variable names where possible. Sponsors should also ensure that, when necessary, those elements required for deriving SPDEVID are captured.", "label": "Sponsor Device Identifier", "mappingInstructions": "Maps directly to the SDTM variable listed in the SDTM Target column.", "name": "SPDEVID", "ordinal": "17", "prompt": "Sponsor Device Identifier", "questionText": "What [is/was] the sponsor identifier for the device?", "simpleDatatype": "Char"}, {"_links": {"parentClass": {"href": "/mdr/cdash/1-2/classes/Identifiers", "title": "Identifiers", "type": "Class"}, "parentProduct": {"href": "/mdr/cdash/1-2", "title": "Clinical Data Acquisition Standards Harmonization Model Version 1.2", "type": "Foundational Model"}, "rootItem": {"href": "/mdr/root/cdash/classes/Identifiers/fields/NHOID", "title": "Non-host Organism ID", "type": "Root Data Element"}, "sdtmClassMappingTargets": [{"href": "/mdr/sdtm/1-7/classes/GeneralObservations/variables/NHOID", "title": "Non-Host Organism Identifier", "type": "Class Variable"}], "self": {"href": "/mdr/cdash/1-2/classes/Identifiers/fields/NHOID", "title": "Non-host Organism ID", "type": "Class Variable"}}, "definition": "The identifier for a non-host organism; should only be used when the organism is the subject of the test.", "implementationNotes": "This sponsor-defined identifier for a non-host organism should only be used when the organism is the subject of the test.", "label": "Non-host Organism ID", "mappingInstructions": "Maps directly to the SDTM variable listed in the SDTM Target column.", "name": "NHOID", "ordinal": "18", "prompt": "Non-host Organism ID", "questionText": "What [is/was] the Non-host Organism ID?", "simpleDatatype": "Char"}], "label": "Identifiers", "name": "Identifiers", "ordinal": "6"}
