{"_links": {"parentProduct": {"href": "/mdr/cdash/1-2", "title": "Clinical Data Acquisition Standards Harmonization Model Version 1.2", "type": "Foundational Model"}, "priorVersion": {"href": "/mdr/cdash/1-1/classes/Timing", "title": "Timing", "type": "Class"}, "self": {"href": "/mdr/cdash/1-2/classes/Timing", "title": "Timing", "type": "Class"}}, "cdashModelFields": [{"_links": {"parentClass": {"href": "/mdr/cdash/1-2/classes/Timing", "title": "Timing", "type": "Class"}, "parentProduct": {"href": "/mdr/cdash/1-2", "title": "Clinical Data Acquisition Standards Harmonization Model Version 1.2", "type": "Foundational Model"}, "priorVersion": {"href": "/mdr/cdash/1-1/classes/Timing/fields/VISITNUM", "title": "Visit Number", "type": "Class Variable"}, "rootItem": {"href": "/mdr/root/cdash/classes/Timing/fields/VISITNUM", "title": "Visit Number", "type": "Root Data Element"}, "sdtmClassMappingTargets": [{"href": "/mdr/sdtm/1-7/classes/GeneralObservations/variables/VISITNUM", "title": "Visit Number", "type": "Class Variable"}], "self": {"href": "/mdr/cdash/1-2/classes/Timing/fields/VISITNUM", "title": "Visit Number", "type": "Class Variable"}}, "definition": "Clinical encounter number. Numeric version of VISIT can be used for sorting.", "implementationNotes": "This is not a data collection field that would appear on the CRF. This field may be populated by the sponsor's data collection system or derived from the variable VISIT. Note: Sponsors may have CDASH visit numbering or visit naming conventions to handle special circumstances (e.g., unscheduled visits). In these cases, the appropriate visit numbers and visit names may need to be populated when the SDTM submission datasets are created.", "label": "Visit Number", "mappingInstructions": "Maps directly to the SDTM variable listed in the SDTM Target column.", "name": "VISITNUM", "ordinal": "1", "prompt": "Visit Number", "questionText": "What is the visit number?", "simpleDatatype": "Num"}, {"_links": {"parentClass": {"href": "/mdr/cdash/1-2/classes/Timing", "title": "Timing", "type": "Class"}, "parentProduct": {"href": "/mdr/cdash/1-2", "title": "Clinical Data Acquisition Standards Harmonization Model Version 1.2", "type": "Foundational Model"}, "priorVersion": {"href": "/mdr/cdash/1-1/classes/Timing/fields/VISIT", "title": "Visit Name", "type": "Class Variable"}, "rootItem": {"href": "/mdr/root/cdash/classes/Timing/fields/VISIT", "title": "Visit Name", "type": "Root Data Element"}, "sdtmClassMappingTargets": [{"href": "/mdr/sdtm/1-7/classes/GeneralObservations/variables/VISIT", "title": "Visit Name", "type": "Class Variable"}], "self": {"href": "/mdr/cdash/1-2/classes/Timing/fields/VISIT", "title": "Visit Name", "type": "Class Variable"}}, "definition": "Protocol-defined description of the clinical encounter. May be used in addition to VISITNUM and/or VISITDY as a text description of the clinical encounter.", "implementationNotes": "The name of the visit is typically pre-printed on the CRF, and should match the name of the visit in the protocol. May be used to derive the SDTM variable VISITNUM. Note: Sponsors may have CDASH visit numbering or visit naming conventions to handle special circumstances (e.g., unscheduled visits). In these cases, the appropriate visit numbers and visit names may need to be populated when the SDTM submission datasets are created.", "label": "Visit Name", "mappingInstructions": "Maps directly to the SDTM variable listed in the SDTM Target column.", "name": "VISIT", "ordinal": "2", "prompt": "[Visit]", "questionText": "What [is/was] the visit name?", "simpleDatatype": "Char"}, {"_links": {"parentClass": {"href": "/mdr/cdash/1-2/classes/Timing", "title": "Timing", "type": "Class"}, "parentProduct": {"href": "/mdr/cdash/1-2", "title": "Clinical Data Acquisition Standards Harmonization Model Version 1.2", "type": "Foundational Model"}, "priorVersion": {"href": "/mdr/cdash/1-1/classes/Timing/fields/VISDAT", "title": "Visit Date", "type": "Class Variable"}, "rootItem": {"href": "/mdr/root/cdash/classes/Timing/fields/VISDAT", "title": "Visit Date", "type": "Root Data Element"}, "self": {"href": "/mdr/cdash/1-2/classes/Timing/fields/VISDAT", "title": "Visit Date", "type": "Class Variable"}}, "definition": "Date the clinical encounter occurred (or started).", "implementationNotes": "This may be recorded in either the header of the CRF or in the body of the CRF. A date/time can be collected once for the whole visit using the Visit Date/Time field and applying that date/time to all of the observations at that visit. The date (--DTC) of a measurement, test, or observation can be determined from the date/time of visit (VISDAT/VISTIM) and then concatenating the CDASH VISDAT/VISTIM components, and populating the STDMIG variable --DTC in ISO 8601 format.", "label": "Visit Date", "mappingInstructions": "This field does not map directly to an SDTM variable. For the SDTMIG SV dataset, the SDTMIG variable SVSTDTC may be derived by concatenating all collected CDASH VISDAT and VISTIM components and populating the SDTM variable SVSTDTC in ISO 8601 format.", "name": "VISDAT", "ordinal": "3", "prompt": "(Visit) Date", "questionText": "What [is/was] the date of the visit?", "simpleDatatype": "Char"}, {"_links": {"parentClass": {"href": "/mdr/cdash/1-2/classes/Timing", "title": "Timing", "type": "Class"}, "parentProduct": {"href": "/mdr/cdash/1-2", "title": "Clinical Data Acquisition Standards Harmonization Model Version 1.2", "type": "Foundational Model"}, "priorVersion": {"href": "/mdr/cdash/1-1/classes/Timing/fields/VISTIM", "title": "Visit Time", "type": "Class Variable"}, "rootItem": {"href": "/mdr/root/cdash/classes/Timing/fields/VISTIM", "title": "Visit Time", "type": "Root Data Element"}, "self": {"href": "/mdr/cdash/1-2/classes/Timing/fields/VISTIM", "title": "Visit Time", "type": "Class Variable"}}, "definition": "Time the clinical encounter took place (or started).", "implementationNotes": "This may be recorded in either the header of the CRF or in the body of the CRF. A date/time can be collected once for the whole visit using the Visit Date/Time field and applying that date/time to all of the observations at that visit. The date (--DTC) of a measurement, test, or observation can be determined from the date/time of visit (VISDAT/VISTIM). For SDTM submission datasets, concatenate CDASH VISDAT/VISTIM components, and populate the STDMIG variable --DTC in ISO 8601 format. May be used to populate SVSTDTC, and SVENDTC in the SDTMIG SV domain.", "label": "Visit Time", "mappingInstructions": "This field does not map directly to an SDTM variable. For the SDTMIG SV dataset, the SDTMIG variable SVSTDTC may be derived by concatenating all collected CDASH VISDAT and VISTIM components and populating the SDTM variable SVSTDTC in ISO 8601 format.", "name": "VISTIM", "ordinal": "4", "prompt": "(Visit) Time", "questionText": "What [is/was] the (start) time of the visit?", "simpleDatatype": "Char"}, {"_links": {"parentClass": {"href": "/mdr/cdash/1-2/classes/Timing", "title": "Timing", "type": "Class"}, "parentProduct": {"href": "/mdr/cdash/1-2", "title": "Clinical Data Acquisition Standards Harmonization Model Version 1.2", "type": "Foundational Model"}, "priorVersion": {"href": "/mdr/cdash/1-1/classes/Timing/fields/VISENDAT", "title": "Visit End Date", "type": "Class Variable"}, "rootItem": {"href": "/mdr/root/cdash/classes/Timing/fields/VISENDAT", "title": "Visit End Date", "type": "Root Data Element"}, "self": {"href": "/mdr/cdash/1-2/classes/Timing/fields/VISENDAT", "title": "Visit End Date", "type": "Class Variable"}}, "definition": "Date the clinical encounter ended.", "implementationNotes": "This may be recorded in either the header of the CRF or in the body of the CRF. This is the end date of the visit. This may be useful when a study extends over 2 or more days.", "label": "Visit End Date", "mappingInstructions": "This field does not map directly to an SDTM variable. For the SDTM SV dataset, the SDTMIG variable SVENDTC may be derived by concatenating all collected CDASH VISENDAT and VISENTIM components and populating the SDTM variable SVENDTC in ISO 8601 format.", "name": "VISENDAT", "ordinal": "5", "prompt": "(Visit) End Date", "questionText": "What [is/was] the end date of the visit?", "simpleDatatype": "Char"}, {"_links": {"parentClass": {"href": "/mdr/cdash/1-2/classes/Timing", "title": "Timing", "type": "Class"}, "parentProduct": {"href": "/mdr/cdash/1-2", "title": "Clinical Data Acquisition Standards Harmonization Model Version 1.2", "type": "Foundational Model"}, "priorVersion": {"href": "/mdr/cdash/1-1/classes/Timing/fields/VISENTIM", "title": "Visit End Time", "type": "Class Variable"}, "rootItem": {"href": "/mdr/root/cdash/classes/Timing/fields/VISENTIM", "title": "Visit End Time", "type": "Root Data Element"}, "self": {"href": "/mdr/cdash/1-2/classes/Timing/fields/VISENTIM", "title": "Visit End Time", "type": "Class Variable"}}, "definition": "Time the clinical encounter ended.", "implementationNotes": "This may be recorded in either the header of the CRF or in the body of the CRF. This is the end time of the visit, and may be useful when a study extends over 2 or more days.", "label": "Visit End Time", "mappingInstructions": "This field does not map directly to an SDTM variable. For the SDTM SV dataset, the SDTMIG variable SVENDTC may be derived by concatenating all collected CDASH VISENDAT and VISENTIM components and populating the SDTM variable SVENDTC in ISO 8601 format.", "name": "VISENTIM", "ordinal": "6", "prompt": "(Visit) End Time", "questionText": "What [is/was] the end time of the visit?", "simpleDatatype": "Char"}, {"_links": {"codelist": [{"href": "/mdr/root/ct/sdtmct/codelists/C99079", "title": "Version-agnostic anchor resource for codelist C99079", "type": "Root Value Domain"}], "parentClass": {"href": "/mdr/cdash/1-2/classes/Timing", "title": "Timing", "type": "Class"}, "parentProduct": {"href": "/mdr/cdash/1-2", "title": "Clinical Data Acquisition Standards Harmonization Model Version 1.2", "type": "Foundational Model"}, "priorVersion": {"href": "/mdr/cdash/1-1/classes/Timing/fields/EPOCH", "title": "Epoch", "type": "Class Variable"}, "rootItem": {"href": "/mdr/root/cdash/classes/Timing/fields/EPOCH", "title": "Epoch", "type": "Root Data Element"}, "sdtmClassMappingTargets": [{"href": "/mdr/sdtm/1-7/classes/GeneralObservations/variables/EPOCH", "title": "Epoch", "type": "Class Variable"}], "self": {"href": "/mdr/cdash/1-2/classes/Timing/fields/EPOCH", "title": "Epoch", "type": "Class Variable"}}, "definition": "Name of the trial epoch with which this element of the arm is associated.", "implementationNotes": "If the same information is collected more than once in different periods/parts of a study (e.g., Disposition), EPOCH may be needed to differentiate these parts. Typically, the trial epoch will be pre-printed on the CRF as the title of the page. See SDTMIG EPOCH Variable Guidance for additional information.", "label": "Epoch", "mappingInstructions": "Maps directly to the SDTM variable listed in the SDTM Target column.", "name": "EPOCH", "ordinal": "7", "prompt": "[Study/Trial] Period", "questionText": "What [is/was] the [study/trial] [period/phase/sponsor-defined phrase] (for this [event/intervention/finding])?", "simpleDatatype": "Char"}, {"_links": {"parentClass": {"href": "/mdr/cdash/1-2/classes/Timing", "title": "Timing", "type": "Class"}, "parentProduct": {"href": "/mdr/cdash/1-2", "title": "Clinical Data Acquisition Standards Harmonization Model Version 1.2", "type": "Foundational Model"}, "priorVersion": {"href": "/mdr/cdash/1-1/classes/Timing/fields/--DAT", "title": "Collection Date", "type": "Class Variable"}, "rootItem": {"href": "/mdr/root/cdash/classes/Timing/fields/--DAT", "title": "Collection Date", "type": "Root Data Element"}, "sdtmClassMappingTargets": [{"href": "/mdr/sdtm/1-7/classes/GeneralObservations/variables/--DTC", "title": "Date/Time of Collection", "type": "Class Variable"}], "self": {"href": "/mdr/cdash/1-2/classes/Timing/fields/--DAT", "title": "Collection Date", "type": "Class Variable"}}, "definition": "Collection date of an observation.", "implementationNotes": "This is a generic DATE field that can be implemented in a system that will store partial dates. Use this for date of data collection, visit date, visit start date, point-in-time collection (e.g., vital signs measurements, lab sample collection date), or start date for interval collection of measurements or tests (e.g., start date of a 24-hour urine collection). Section 4.1.4.1 of the FDA Study Data Technical Conformance Guide v2.2a indicates that when dates have the role of a timing variable, the matching Study Day variables (--DY, --STDY, or --ENDY, respectively) are included in the SDTM dataset.", "label": "Collection Date", "mappingInstructions": "This field does not map directly to an SDTM variable. For the SDTM dataset, concatenate all collected CDASH DATE and TIME components and populate the SDTM variable --DTC in ISO 8601 format. Section 4.1.4.1 of the FDA Study Data Technical Conformance Guidea indicates that when dates have the role of a timing variable, the matching Study Day variables (--DY, --STDY, or --ENDY, respectively) should be included in the SDTM dataset.", "name": "--DAT", "ordinal": "8", "prompt": "[Event/Intervention] Collection Date; [Finding] (Start) Date", "questionText": "What [is/was] the date the [event or intervention] [is/was] collected?; What [is/was] the (start) date (of the [Finding])?", "simpleDatatype": "Char"}, {"_links": {"parentClass": {"href": "/mdr/cdash/1-2/classes/Timing", "title": "Timing", "type": "Class"}, "parentProduct": {"href": "/mdr/cdash/1-2", "title": "Clinical Data Acquisition Standards Harmonization Model Version 1.2", "type": "Foundational Model"}, "priorVersion": {"href": "/mdr/cdash/1-1/classes/Timing/fields/--DATDD", "title": "Collection Day", "type": "Class Variable"}, "rootItem": {"href": "/mdr/root/cdash/classes/Timing/fields/--DATDD", "title": "Collection Day", "type": "Root Data Element"}, "sdtmClassMappingTargets": [{"href": "/mdr/sdtm/1-7/classes/GeneralObservations/variables/--DTC", "title": "Date/Time of Collection", "type": "Class Variable"}], "self": {"href": "/mdr/cdash/1-2/classes/Timing/fields/--DATDD", "title": "Collection Day", "type": "Class Variable"}}, "definition": "Collection day of an observation.", "implementationNotes": "This is a generic DAY (DD) field that can be implemented in a system that will not store partial dates. Use this for date of data collection, visit date, visit start date, point-in-time collection (e.g., vital signs measurements, lab sample collection date), or start date for interval collection of measurements or tests (e.g., start date of a 24-hour urine collection).", "label": "Collection Day", "mappingInstructions": "This field does not map directly to an SDTM variable. For the SDTM dataset, concatenate all collected CDASH DATE and TIME components and populate the SDTM variable --DTC in ISO 8601 format. Section 4.1.4.1 of the FDA Study Data Technical Conformance Guidea indicates that when dates have the role of a timing variable, the matching Study Day variables (--DY, --STDY, or --ENDY, respectively) should be included in the SDTM dataset.", "name": "--DATDD", "ordinal": "9", "prompt": "[Event/Intervention] Collection Day; [Finding] (Start) Day", "questionText": "What [is/was] the day the [event or intervention] [is/was] collected?; What [is/was] was the (start) day (of the [Finding])?", "simpleDatatype": "Char"}, {"_links": {"parentClass": {"href": "/mdr/cdash/1-2/classes/Timing", "title": "Timing", "type": "Class"}, "parentProduct": {"href": "/mdr/cdash/1-2", "title": "Clinical Data Acquisition Standards Harmonization Model Version 1.2", "type": "Foundational Model"}, "priorVersion": {"href": "/mdr/cdash/1-1/classes/Timing/fields/--DATMO", "title": "Collection Month", "type": "Class Variable"}, "rootItem": {"href": "/mdr/root/cdash/classes/Timing/fields/--DATMO", "title": "Collection Month", "type": "Root Data Element"}, "sdtmClassMappingTargets": [{"href": "/mdr/sdtm/1-7/classes/GeneralObservations/variables/--DTC", "title": "Date/Time of Collection", "type": "Class Variable"}], "self": {"href": "/mdr/cdash/1-2/classes/Timing/fields/--DATMO", "title": "Collection Month", "type": "Class Variable"}}, "definition": "Collection month of an observation.", "implementationNotes": "This is a generic MONTH (MO) field that can be implemented in a system that will not store partial dates. Use this for date of collection, visit date, visit start date, point-in-time collection (e.g., vital signs measurements, lab sample collection date), or start date for interval collection of measurements or tests (e.g., start date of a 24-hour urine collection).", "label": "Collection Month", "mappingInstructions": "This field does not map directly to an SDTM variable. For the SDTM dataset, concatenate all collected CDASH DATE and TIME components and populate the SDTM variable --DTC in ISO 8601 format. Section 4.1.4.1 of the FDA Study Data Technical Conformance Guidea indicates that when dates have the role of a timing variable, the matching Study Day variables (--DY, --STDY, or --ENDY, respectively) should be included in the SDTM dataset.", "name": "--DATMO", "ordinal": "10", "prompt": "[Event/Intervention] Collection Month; [Finding] (Start) Month", "questionText": "What [is/was] the month the [event or Intervention] [is/was] collected?; What [is/was] the (start) month (of the [Finding])?", "simpleDatatype": "Char"}, {"_links": {"parentClass": {"href": "/mdr/cdash/1-2/classes/Timing", "title": "Timing", "type": "Class"}, "parentProduct": {"href": "/mdr/cdash/1-2", "title": "Clinical Data Acquisition Standards Harmonization Model Version 1.2", "type": "Foundational Model"}, "priorVersion": {"href": "/mdr/cdash/1-1/classes/Timing/fields/--DATYY", "title": "Collection Year", "type": "Class Variable"}, "rootItem": {"href": "/mdr/root/cdash/classes/Timing/fields/--DATYY", "title": "Collection Year", "type": "Root Data Element"}, "sdtmClassMappingTargets": [{"href": "/mdr/sdtm/1-7/classes/GeneralObservations/variables/--DTC", "title": "Date/Time of Collection", "type": "Class Variable"}], "self": {"href": "/mdr/cdash/1-2/classes/Timing/fields/--DATYY", "title": "Collection Year", "type": "Class Variable"}}, "definition": "Collection year of an observation.", "implementationNotes": "This is a generic YEAR (YY) field that can be implemented in a system that will not store partial dates. Use this for date of data collection, visit date, visit start date, point-in-time collection (e.g., vital signs measurements, lab sample collection date), or start date for interval collection of measurements or tests (e.g., start date of a 24-hour urine collection).", "label": "Collection Year", "mappingInstructions": "This field does not map directly to an SDTM variable. For the SDTM dataset, concatenate all collected CDASH DATE and TIME components and populate the SDTM variable --DTC in ISO 8601 format. Section 4.1.4.1 of the FDA Study Data Technical Conformance Guidea indicates that when dates have the role of a timing variable, the matching Study Day variables (--DY, --STDY, or --ENDY, respectively) should be included in the SDTM dataset.", "name": "--DATYY", "ordinal": "11", "prompt": "[Event/Intervention] Collection Year; [Finding] (Start) Year", "questionText": "What [is/was] the year the [event or intervention] [is/was] collected?; What [is/was] the (start) year (of the [Finding])?", "simpleDatatype": "Char"}, {"_links": {"parentClass": {"href": "/mdr/cdash/1-2/classes/Timing", "title": "Timing", "type": "Class"}, "parentProduct": {"href": "/mdr/cdash/1-2", "title": "Clinical Data Acquisition Standards Harmonization Model Version 1.2", "type": "Foundational Model"}, "priorVersion": {"href": "/mdr/cdash/1-1/classes/Timing/fields/--TIM", "title": "Collection Time", "type": "Class Variable"}, "rootItem": {"href": "/mdr/root/cdash/classes/Timing/fields/--TIM", "title": "Collection Time", "type": "Root Data Element"}, "sdtmClassMappingTargets": [{"href": "/mdr/sdtm/1-7/classes/GeneralObservations/variables/--DTC", "title": "Date/Time of Collection", "type": "Class Variable"}], "self": {"href": "/mdr/cdash/1-2/classes/Timing/fields/--TIM", "title": "Collection Time", "type": "Class Variable"}}, "definition": "Collection time of an observation.", "implementationNotes": "This is a generic TIME (TIM) field that can be implemented in a system that will store partial times. Use this for time of data collection, visit time, visit start time, point-in-time collection (e.g., vital signs measurements, lab sample collection time), or start time for interval collection of measurements or tests (e.g., start time of a 24-hour urine collection).", "label": "Collection Time", "mappingInstructions": "This field does not map directly to an SDTM variable. For the SDTM dataset, concatenate all collected CDASH DATE and TIME components and populate the SDTM variable --DTC in ISO 8601 format. Section 4.1.4.1 of the FDA Study Data Technical Conformance Guidea indicates that when dates have the role of a timing variable, the matching Study Day variables (--DY, --STDY, or --ENDY, respectively) should be included in the SDTM dataset.", "name": "--TIM", "ordinal": "12", "prompt": "[Event/Intervention] Collection Time; [Finding] (Start) Time", "questionText": "What [is/was] the time the [event or intervention] [is/was] collected?; What [is/was] the (start) time (of the [Finding])?", "simpleDatatype": "Char"}, {"_links": {"parentClass": {"href": "/mdr/cdash/1-2/classes/Timing", "title": "Timing", "type": "Class"}, "parentProduct": {"href": "/mdr/cdash/1-2", "title": "Clinical Data Acquisition Standards Harmonization Model Version 1.2", "type": "Foundational Model"}, "priorVersion": {"href": "/mdr/cdash/1-1/classes/Timing/fields/--TIMHR", "title": "Collection Hour", "type": "Class Variable"}, "rootItem": {"href": "/mdr/root/cdash/classes/Timing/fields/--TIMHR", "title": "Collection Hour", "type": "Root Data Element"}, "sdtmClassMappingTargets": [{"href": "/mdr/sdtm/1-7/classes/GeneralObservations/variables/--DTC", "title": "Date/Time of Collection", "type": "Class Variable"}], "self": {"href": "/mdr/cdash/1-2/classes/Timing/fields/--TIMHR", "title": "Collection Hour", "type": "Class Variable"}}, "definition": "Collection hour of an observation.", "implementationNotes": "This is a generic HOUR (HR) field that can be implemented in a system that will not store partial times. Use this for time of data collection, visit time, visit start time, point-in-time collection (e.g., vital signs measurements, lab sample collection time), or start time for interval collection of measurements or tests (e.g., start time of a 24-hour urine collection).", "label": "Collection Hour", "mappingInstructions": "This field does not map directly to an SDTM variable. For the SDTM dataset, concatenate all collected CDASH DATE and TIME components and populate the SDTM variable --DTC in ISO 8601 format. Section 4.1.4.1 of the FDA Study Data Technical Conformance Guidea indicates that when dates have the role of a timing variable, the matching Study Day variables (--DY, --STDY, or --ENDY, respectively) should be included in the SDTM dataset.", "name": "--TIMHR", "ordinal": "13", "prompt": "[Event/Intervention] Collection Hour; [Finding] (Start) Hour", "questionText": "What [is/was] the hour the [event or intervention] [is/was] collected?; What [is/was] the (start) hour (of the [Finding])?", "simpleDatatype": "Char"}, {"_links": {"parentClass": {"href": "/mdr/cdash/1-2/classes/Timing", "title": "Timing", "type": "Class"}, "parentProduct": {"href": "/mdr/cdash/1-2", "title": "Clinical Data Acquisition Standards Harmonization Model Version 1.2", "type": "Foundational Model"}, "priorVersion": {"href": "/mdr/cdash/1-1/classes/Timing/fields/--TIMMI", "title": "Collection Minute", "type": "Class Variable"}, "rootItem": {"href": "/mdr/root/cdash/classes/Timing/fields/--TIMMI", "title": "Collection Minute", "type": "Root Data Element"}, "sdtmClassMappingTargets": [{"href": "/mdr/sdtm/1-7/classes/GeneralObservations/variables/--DTC", "title": "Date/Time of Collection", "type": "Class Variable"}], "self": {"href": "/mdr/cdash/1-2/classes/Timing/fields/--TIMMI", "title": "Collection Minute", "type": "Class Variable"}}, "definition": "Collection minute of an observation.", "implementationNotes": "This is a generic MINUTE (MI) field that can be implemented in a system that will not store partial times. Use this for time of data collection, visit time, visit start time, point-in-time collection (e.g., vital signs measurements, lab sample collection time), or start time for interval collection of measurements or tests (e.g., start time of a 24-hour urine collection).", "label": "Collection Minute", "mappingInstructions": "This field does not map directly to an SDTM variable. For the SDTM dataset, concatenate all collected CDASH DATE and TIME components and populate the SDTM variable --DTC in ISO 8601 format. Section 4.1.4.1 of the FDA Study Data Technical Conformance Guidea indicates that when dates have the role of a timing variable, the matching Study Day variables (--DY, --STDY, or --ENDY, respectively) should be included in the SDTM dataset.", "name": "--TIMMI", "ordinal": "14", "prompt": "[Event/Intervention] Collection Minute; [Finding] (Start) Minute", "questionText": "What [is/was] the minute the [event or intervention] [is/was] collected?; What [is/was] the (start) minute (of the [Finding])?", "simpleDatatype": "Char"}, {"_links": {"parentClass": {"href": "/mdr/cdash/1-2/classes/Timing", "title": "Timing", "type": "Class"}, "parentProduct": {"href": "/mdr/cdash/1-2", "title": "Clinical Data Acquisition Standards Harmonization Model Version 1.2", "type": "Foundational Model"}, "priorVersion": {"href": "/mdr/cdash/1-1/classes/Timing/fields/--TIMSS", "title": "Collection Second", "type": "Class Variable"}, "rootItem": {"href": "/mdr/root/cdash/classes/Timing/fields/--TIMSS", "title": "Collection Second", "type": "Root Data Element"}, "sdtmClassMappingTargets": [{"href": "/mdr/sdtm/1-7/classes/GeneralObservations/variables/--DTC", "title": "Date/Time of Collection", "type": "Class Variable"}], "self": {"href": "/mdr/cdash/1-2/classes/Timing/fields/--TIMSS", "title": "Collection Second", "type": "Class Variable"}}, "definition": "Collection second of an observation.", "implementationNotes": "This is a generic SECONDS (SS) field that can be implemented in a system that will not store partial times. Use this for time of data collection, visit time, visit start time, point in time collection (e.g., vital signs measurements, lab sample collection time), start time for interval collection of measurements or tests (e.g., start time of a 24-hour urine collection).", "label": "Collection Second", "mappingInstructions": "This field does not map directly to an SDTM variable. For the SDTM dataset, concatenate all collected CDASH DATE and TIME components and populate the SDTM variable --DTC in ISO 8601 format. Section 4.1.4.1 of the FDA Study Data Technical Conformance Guidea indicates that when dates have the role of a timing variable, the matching Study Day variables (--DY, --STDY, or --ENDY, respectively) should be included in the SDTM dataset.", "name": "--TIMSS", "ordinal": "15", "prompt": "[Event/Intervention] Collection Second; [Finding] (Start) Second", "questionText": "What [is/was] the second the [event or intervention] [is/was] collected?; Or What [is/was] the (start) second (of the [Finding])?", "simpleDatatype": "Char"}, {"_links": {"parentClass": {"href": "/mdr/cdash/1-2/classes/Timing", "title": "Timing", "type": "Class"}, "parentProduct": {"href": "/mdr/cdash/1-2", "title": "Clinical Data Acquisition Standards Harmonization Model Version 1.2", "type": "Foundational Model"}, "priorVersion": {"href": "/mdr/cdash/1-1/classes/Timing/fields/--STDAT", "title": "Observation Start Date", "type": "Class Variable"}, "rootItem": {"href": "/mdr/root/cdash/classes/Timing/fields/--STDAT", "title": "Observation Start Date", "type": "Root Data Element"}, "sdtmClassMappingTargets": [{"href": "/mdr/sdtm/1-7/classes/GeneralObservations/variables/--STDTC", "title": "Start Date/Time of Observation", "type": "Class Variable"}], "self": {"href": "/mdr/cdash/1-2/classes/Timing/fields/--STDAT", "title": "Observation Start Date", "type": "Class Variable"}}, "definition": "Start date of an observation.", "implementationNotes": "This is a generic START DATE field that can be implemented in a system that will store partial dates. Use this for start date of events or interventions (e.g., AE start date, substance use start date), start date of interval dosing (e.g., date/time of infusion start), dates of protocol milestones (e.g., informed consent date), dates of Disposition events (e.g., date of study completion, date of discontinuation).", "label": "Observation Start Date", "mappingInstructions": "This field does not map directly to an SDTM variable. For the SDTM dataset, concatenate all collected CDASH START DATE and TIME components and populate the SDTM variable --STDTC in ISO 8601 format. Section 4.1.4.1 of the FDA Study Data Technical Conformance Guidea indicates that when dates have the role of a timing variable, the matching Study Day variables (--DY, --STDY, or --ENDY, respectively) should be included in the SDTM dataset.", "name": "--STDAT", "ordinal": "16", "prompt": "([Intended/Planned/Actual]) ([MHEVDTYP]/Start/Admission) Date", "questionText": "What [is/was] the ([intended/planned/actual]) ([event/intervention]) ([MHEVDTYP]/start/admission) date (of the observation)?", "simpleDatatype": "Char"}, {"_links": {"parentClass": {"href": "/mdr/cdash/1-2/classes/Timing", "title": "Timing", "type": "Class"}, "parentProduct": {"href": "/mdr/cdash/1-2", "title": "Clinical Data Acquisition Standards Harmonization Model Version 1.2", "type": "Foundational Model"}, "priorVersion": {"href": "/mdr/cdash/1-1/classes/Timing/fields/--STDD", "title": "Observation Start Day", "type": "Class Variable"}, "rootItem": {"href": "/mdr/root/cdash/classes/Timing/fields/--STDD", "title": "Observation Start Day", "type": "Root Data Element"}, "sdtmClassMappingTargets": [{"href": "/mdr/sdtm/1-7/classes/GeneralObservations/variables/--STDTC", "title": "Start Date/Time of Observation", "type": "Class Variable"}], "self": {"href": "/mdr/cdash/1-2/classes/Timing/fields/--STDD", "title": "Observation Start Day", "type": "Class Variable"}}, "definition": "Start day of an observation.", "implementationNotes": "This is a generic START DAY (STDD) field that can be implemented in a system that will not store partial dates. Use this for start date of events or interventions (e.g., AE start date, substance use start date), start date of interval dosing (e.g., date/time of infusion start), dates of protocol milestones (e.g., informed consent date), dates of Disposition events (e.g., date of study completion, date of discontinuation).", "label": "Observation Start Day", "mappingInstructions": "This field does not map directly to an SDTM variable. For the SDTM dataset, concatenate all collected CDASH DATE and TIME components and populate the SDTM variable--STDTC in ISO 8601 format. Section 4.1.4.1 of the FDA Study Data Technical Conformance Guidea indicates that when dates have the role of a timing variable, the matching Study Day variables (--DY, --STDY, or --ENDY, respectively) should be included in the SDTM dataset.", "name": "--STDD", "ordinal": "17", "prompt": "([Intended/Planned/Actual]) ([MHEVDTYP]/Start/Admission) Day", "questionText": "What [is/was] the ([intended/planned/actual]) ([event/intervention]) ([MHEVDTYP]/start/admission) day?", "simpleDatatype": "Char"}, {"_links": {"parentClass": {"href": "/mdr/cdash/1-2/classes/Timing", "title": "Timing", "type": "Class"}, "parentProduct": {"href": "/mdr/cdash/1-2", "title": "Clinical Data Acquisition Standards Harmonization Model Version 1.2", "type": "Foundational Model"}, "priorVersion": {"href": "/mdr/cdash/1-1/classes/Timing/fields/--STMO", "title": "Observation Start Month", "type": "Class Variable"}, "rootItem": {"href": "/mdr/root/cdash/classes/Timing/fields/--STMO", "title": "Observation Start Month", "type": "Root Data Element"}, "sdtmClassMappingTargets": [{"href": "/mdr/sdtm/1-7/classes/GeneralObservations/variables/--STDTC", "title": "Start Date/Time of Observation", "type": "Class Variable"}], "self": {"href": "/mdr/cdash/1-2/classes/Timing/fields/--STMO", "title": "Observation Start Month", "type": "Class Variable"}}, "definition": "Start month of an observation.", "implementationNotes": "This is a generic START MONTH (STMO) field that can be implemented in a system that will not store partial dates. Use this for start date of events or interventions (e.g., AE start date, substance use start date), start date of interval dosing (e.g., date/time of infusion start), dates of protocol milestones (e.g., informed consent date), dates of Disposition events (e.g., date of study completion, date of discontinuation).", "label": "Observation Start Month", "mappingInstructions": "This field does not map directly to an SDTM variable. For the SDTM dataset, concatenate all collected CDASH DATE and TIME components and populate the SDTM variable --STDTC in ISO 8601 format. Section 4.1.4.1 of the FDA Study Data Technical Conformance Guidea indicates that when dates have the role of a timing variable, the matching Study Day variables (--DY, --STDY, or --ENDY, respectively) should be included in the SDTM dataset.", "name": "--STMO", "ordinal": "18", "prompt": "([Intended/Planned/Actual]) ([MHEVDTYP]/Start/Admission) Month", "questionText": "What [is/was] the ([intended/planned/actual]) ([event/intervention]) ([MHEVDTYP]/start/admission) month?", "simpleDatatype": "Char"}, {"_links": {"parentClass": {"href": "/mdr/cdash/1-2/classes/Timing", "title": "Timing", "type": "Class"}, "parentProduct": {"href": "/mdr/cdash/1-2", "title": "Clinical Data Acquisition Standards Harmonization Model Version 1.2", "type": "Foundational Model"}, "priorVersion": {"href": "/mdr/cdash/1-1/classes/Timing/fields/--STYY", "title": "Observation Start Year", "type": "Class Variable"}, "rootItem": {"href": "/mdr/root/cdash/classes/Timing/fields/--STYY", "title": "Observation Start Year", "type": "Root Data Element"}, "sdtmClassMappingTargets": [{"href": "/mdr/sdtm/1-7/classes/GeneralObservations/variables/--STDTC", "title": "Start Date/Time of Observation", "type": "Class Variable"}], "self": {"href": "/mdr/cdash/1-2/classes/Timing/fields/--STYY", "title": "Observation Start Year", "type": "Class Variable"}}, "definition": "Start year of an observation.", "implementationNotes": "This is a generic START YEAR (STYY) field that can be implemented in a system that will not store partial dates. Use this for start date of events of interventions (e.g., AE start date, substance use start date), start date of interval dosing (e.g., date/time of infusion start), dates of protocol milestones (e.g., informed consent date), dates of Disposition events (e.g., date of study completion, date of discontinuation).", "label": "Observation Start Year", "mappingInstructions": "This field does not map directly to an SDTM variable. For the SDTM dataset, concatenate all collected CDASH START DATE and TIME components and populate the SDTM variable --STDTC in ISO 8601 format. Section 4.1.4.1 of the FDA Study Data Technical Conformance Guidea indicates that when dates have the role of a timing variable, the matching Study Day variables (--DY, --STDY, or --ENDY, respectively) should be included in the SDTM dataset.", "name": "--STYY", "ordinal": "19", "prompt": "([Intended/Planned/Actual]) ([MHEVDTYP]/Start/Admission) Year", "questionText": "What [is/was] the ([intended/planned/actual]) ([event/intervention]) ([MHEVDTYP]/start/admission) year?", "simpleDatatype": "Char"}, {"_links": {"parentClass": {"href": "/mdr/cdash/1-2/classes/Timing", "title": "Timing", "type": "Class"}, "parentProduct": {"href": "/mdr/cdash/1-2", "title": "Clinical Data Acquisition Standards Harmonization Model Version 1.2", "type": "Foundational Model"}, "priorVersion": {"href": "/mdr/cdash/1-1/classes/Timing/fields/--STTIM", "title": "Observation Start Time", "type": "Class Variable"}, "rootItem": {"href": "/mdr/root/cdash/classes/Timing/fields/--STTIM", "title": "Observation Start Time", "type": "Root Data Element"}, "sdtmClassMappingTargets": [{"href": "/mdr/sdtm/1-7/classes/GeneralObservations/variables/--STDTC", "title": "Start Date/Time of Observation", "type": "Class Variable"}], "self": {"href": "/mdr/cdash/1-2/classes/Timing/fields/--STTIM", "title": "Observation Start Time", "type": "Class Variable"}}, "definition": "Start time of an observation.", "implementationNotes": "This is a generic START TIME field that can be implemented in a system that will store partial dates. Use this for start time of events or interventions (e.g., AE start time, substance use start time), start time of interval dosing (e.g., time of infusion start), time of protocol milestones (e.g., informed consent time), time of Disposition events (e.g., time of study completion, time of discontinuation).", "label": "Observation Start Time", "mappingInstructions": "This field does not map directly to an SDTM variable. For the SDTM dataset, concatenate all collected CDASH START DATE and TIME components and populate the SDTM variable --STDTC in ISO 8601 format. Section 4.1.4.1 of the FDA Study Data Technical Conformance Guidea indicates that when dates have the role of a timing variable, the matching Study Day variables (--DY, --STDY, or --ENDY, respectively) should be included in the SDTM dataset.", "name": "--STTIM", "ordinal": "20", "prompt": "([Intended/Planned/Actual]) ([MHEVDTYP]/Start/Admission) Time", "questionText": "What [is/was] the ([intended/planned/actual]) ([event/intervention]) ([MHEVDTYP]/start/admission) time?", "simpleDatatype": "Char"}, {"_links": {"parentClass": {"href": "/mdr/cdash/1-2/classes/Timing", "title": "Timing", "type": "Class"}, "parentProduct": {"href": "/mdr/cdash/1-2", "title": "Clinical Data Acquisition Standards Harmonization Model Version 1.2", "type": "Foundational Model"}, "priorVersion": {"href": "/mdr/cdash/1-1/classes/Timing/fields/--STHR", "title": "Observation Start Hour", "type": "Class Variable"}, "rootItem": {"href": "/mdr/root/cdash/classes/Timing/fields/--STHR", "title": "Observation Start Hour", "type": "Root Data Element"}, "sdtmClassMappingTargets": [{"href": "/mdr/sdtm/1-7/classes/GeneralObservations/variables/--STDTC", "title": "Start Date/Time of Observation", "type": "Class Variable"}], "self": {"href": "/mdr/cdash/1-2/classes/Timing/fields/--STHR", "title": "Observation Start Hour", "type": "Class Variable"}}, "definition": "Start hour of an observation.", "implementationNotes": "This is a generic START HOUR (STHR) field that can be implemented in a system that will not store partial dates. Use this for start time of events or interventions (e.g., AE start time, substance use start time), start time of interval dosing (e.g., time of infusion start), time of protocol milestones (e.g., informed consent time), time of Disposition events (e.g., time of study completion, time of discontinuation).", "label": "Observation Start Hour", "mappingInstructions": "This field does not map directly to an SDTM variable. For the SDTM dataset, concatenate all collected CDASH START DATE and TIME components and populate the SDTM variable --STDTC in ISO 8601 format. Section 4.1.4.1 of the FDA Study Data Technical Conformance Guidea indicates that when dates have the role of a timing variable, the matching Study Day variables (--DY, --STDY, or --ENDY, respectively) should be included in the SDTM dataset.", "name": "--STHR", "ordinal": "21", "prompt": "([Intended/Planned/Actual]) ([MHEVDTYP]/Start/Admission) Hour", "questionText": "What [is/was] the ([intended/planned/actual]) ([event/intervention]) ([MHEVDTYP]/start/admission) hour?", "simpleDatatype": "Char"}, {"_links": {"parentClass": {"href": "/mdr/cdash/1-2/classes/Timing", "title": "Timing", "type": "Class"}, "parentProduct": {"href": "/mdr/cdash/1-2", "title": "Clinical Data Acquisition Standards Harmonization Model Version 1.2", "type": "Foundational Model"}, "priorVersion": {"href": "/mdr/cdash/1-1/classes/Timing/fields/--STMI", "title": "Observation Start Minute", "type": "Class Variable"}, "rootItem": {"href": "/mdr/root/cdash/classes/Timing/fields/--STMI", "title": "Observation Start Minute", "type": "Root Data Element"}, "sdtmClassMappingTargets": [{"href": "/mdr/sdtm/1-7/classes/GeneralObservations/variables/--STDTC", "title": "Start Date/Time of Observation", "type": "Class Variable"}], "self": {"href": "/mdr/cdash/1-2/classes/Timing/fields/--STMI", "title": "Observation Start Minute", "type": "Class Variable"}}, "definition": "Start minute of an observation.", "implementationNotes": "This is a generic START MINUTE (STMI) field that can be implemented in a system that will not store partial dates. Use this for time of events or interventions (e.g., AE start time, substance use start time), start time of interval dosing (e.g., time of infusion start), time of protocol milestones (e.g., informed consent time), time of Disposition events (e.g., time of study completion, time of discontinuation).", "label": "Observation Start Minute", "mappingInstructions": "This field does not map directly to an SDTM variable. For the SDTM dataset, concatenate all collected CDASH START DATE and TIME components and populate the SDTM variable --STDTC in ISO 8601 format. Section 4.1.4.1 of the FDA Study Data Technical Conformance Guidea indicates that when dates have the role of a timing variable, the matching Study Day variables (--DY, --STDY, or --ENDY, respectively) should be included in the SDTM dataset.", "name": "--STMI", "ordinal": "22", "prompt": "([Intended/Planned/Actual]) ([MHEVDTYP]/Start/Admission) Minute", "questionText": "What [is/was] the ([intended/planned/actual]) ([event/intervention]) ([MHEVDTYP]/start/admission) minute?", "simpleDatatype": "Char"}, {"_links": {"parentClass": {"href": "/mdr/cdash/1-2/classes/Timing", "title": "Timing", "type": "Class"}, "parentProduct": {"href": "/mdr/cdash/1-2", "title": "Clinical Data Acquisition Standards Harmonization Model Version 1.2", "type": "Foundational Model"}, "priorVersion": {"href": "/mdr/cdash/1-1/classes/Timing/fields/--STSS", "title": "Observation Start Second", "type": "Class Variable"}, "rootItem": {"href": "/mdr/root/cdash/classes/Timing/fields/--STSS", "title": "Observation Start Second", "type": "Root Data Element"}, "sdtmClassMappingTargets": [{"href": "/mdr/sdtm/1-7/classes/GeneralObservations/variables/--STDTC", "title": "Start Date/Time of Observation", "type": "Class Variable"}], "self": {"href": "/mdr/cdash/1-2/classes/Timing/fields/--STSS", "title": "Observation Start Second", "type": "Class Variable"}}, "definition": "Start second of an observation.", "implementationNotes": "This is a generic START SECOND (STSS) field that can be implemented in a system that will not store partial dates. Use this for time of events or interventions (e.g., AE start time, substance use start time), start time of interval dosing (e.g., time of infusion start), time of protocol milestones (e.g., informed consent time), time of Disposition events (e.g., time of study completion, time of discontinuation).", "label": "Observation Start Second", "mappingInstructions": "This field does not map directly to an SDTM variable. For the SDTM dataset, concatenate all collected CDASH START DATE and TIME components and populate the SDTM variable --STDTC in ISO 8601 format. Section 4.1.4.1 of the FDA Study Data Technical Conformance Guidea indicates that when dates have the role of a timing variable, the matching Study Day variables (--DY, --STDY, or --ENDY, respectively) should be included in the SDTM dataset.", "name": "--STSS", "ordinal": "23", "prompt": "([Intended/Planned/Actual]) ([MHEVDTYP]/Start/Admission) Second \\n", "questionText": "What [is/was] the ([intended/planned/actual]) ([event/intervention]) ([MHEVDTYP]/start/admission) second?", "simpleDatatype": "Char"}, {"_links": {"parentClass": {"href": "/mdr/cdash/1-2/classes/Timing", "title": "Timing", "type": "Class"}, "parentProduct": {"href": "/mdr/cdash/1-2", "title": "Clinical Data Acquisition Standards Harmonization Model Version 1.2", "type": "Foundational Model"}, "priorVersion": {"href": "/mdr/cdash/1-1/classes/Timing/fields/--ENDAT", "title": "Observation End Date", "type": "Class Variable"}, "rootItem": {"href": "/mdr/root/cdash/classes/Timing/fields/--ENDAT", "title": "Observation End Date", "type": "Root Data Element"}, "sdtmClassMappingTargets": [{"href": "/mdr/sdtm/1-7/classes/GeneralObservations/variables/--ENDTC", "title": "End Date/Time of Observation", "type": "Class Variable"}], "self": {"href": "/mdr/cdash/1-2/classes/Timing/fields/--ENDAT", "title": "Observation End Date", "type": "Class Variable"}}, "definition": "End date of an observation.", "implementationNotes": "This is a generic END DATE field that can be implemented in a system that will store partial dates. Use this for end date of events (e.g., AE end date) or interventions (e.g., CM end date), end date of interval dosing (e.g., date of infusion end), end visit date, or end date for interval collection of measurements or tests (e.g., end date of 24-hour urine collection).", "label": "Observation End Date", "mappingInstructions": "This field does not map directly to an SDTM variable. For the SDTM dataset, concatenate all collected CDASH End DATE and TIME components and populate the SDTM variable --ENDTC in ISO 8601 format. Section 4.1.4.1 of the FDA Study Data Technical Conformance Guidea indicates that when dates have the role of a timing variable, the matching Study Day variables (--DY, --STDY, or --ENDY, respectively) should be included in the SDTM dataset.", "name": "--ENDAT", "ordinal": "24", "prompt": "([Intended/Planned/Actual]) ([End/Discharge/Stop]) Date", "questionText": "What [is/was] the ([intended/planned/actual]) ([event/intervention/finding]) ([end/discharge/stop]) date (of the observation)?", "simpleDatatype": "Char"}, {"_links": {"parentClass": {"href": "/mdr/cdash/1-2/classes/Timing", "title": "Timing", "type": "Class"}, "parentProduct": {"href": "/mdr/cdash/1-2", "title": "Clinical Data Acquisition Standards Harmonization Model Version 1.2", "type": "Foundational Model"}, "priorVersion": {"href": "/mdr/cdash/1-1/classes/Timing/fields/--ENDD", "title": "Observation End Day", "type": "Class Variable"}, "rootItem": {"href": "/mdr/root/cdash/classes/Timing/fields/--ENDD", "title": "Observation End Day", "type": "Root Data Element"}, "sdtmClassMappingTargets": [{"href": "/mdr/sdtm/1-7/classes/GeneralObservations/variables/--ENDTC", "title": "End Date/Time of Observation", "type": "Class Variable"}], "self": {"href": "/mdr/cdash/1-2/classes/Timing/fields/--ENDD", "title": "Observation End Day", "type": "Class Variable"}}, "definition": "End day of an observation.", "implementationNotes": "This is a generic END DAY (ENDD) field that can be implemented in a system that will not store partial dates. Use this for end date of events (e.g., AE end date) or interventions (e.g., CM end date), end date of interval dosing (e.g., date of infusion end), end visit date, or end date for interval collection of measurements or tests (e.g., end date of 24-hour urine collection)..", "label": "Observation End Day", "mappingInstructions": "This field does not map directly to an SDTM variable. For the SDTM dataset, concatenate all collected CDASH End DATE and TIME components and populate the SDTM variable --ENDTC in ISO 8601 format. Section 4.1.4.1 of the FDA Study Data Technical Conformance Guidea indicates that when dates have the role of a timing variable, the matching Study Day variables (--DY, --STDY, or --ENDY, respectively) should be included in the SDTM dataset.", "name": "--ENDD", "ordinal": "25", "prompt": "([Intended/Planned/Actual]) ([End/Discharge/Stop]) Day", "questionText": "What [is/was] the ([intended/planned/actual]) ([event/intervention/finding]) ([end/discharge/stop]) day (of the observation)?", "simpleDatatype": "Char"}, {"_links": {"parentClass": {"href": "/mdr/cdash/1-2/classes/Timing", "title": "Timing", "type": "Class"}, "parentProduct": {"href": "/mdr/cdash/1-2", "title": "Clinical Data Acquisition Standards Harmonization Model Version 1.2", "type": "Foundational Model"}, "priorVersion": {"href": "/mdr/cdash/1-1/classes/Timing/fields/--ENMO", "title": "Observation End Month", "type": "Class Variable"}, "rootItem": {"href": "/mdr/root/cdash/classes/Timing/fields/--ENMO", "title": "Observation End Month", "type": "Root Data Element"}, "sdtmClassMappingTargets": [{"href": "/mdr/sdtm/1-7/classes/GeneralObservations/variables/--ENDTC", "title": "End Date/Time of Observation", "type": "Class Variable"}], "self": {"href": "/mdr/cdash/1-2/classes/Timing/fields/--ENMO", "title": "Observation End Month", "type": "Class Variable"}}, "definition": "End month of an observation.", "implementationNotes": "This is a generic END MONTH (ENMO) field that can be implemented in a system that will not store partial dates. Use this for end date of events (e.g., AE end date) or interventions (e.g., CM end date), end date of interval dosing (e.g., date of infusion end), end visit date, or end date for interval collection of measurements or tests (e.g., end date of 24-hour urine collection).", "label": "Observation End Month", "mappingInstructions": "This field does not map directly to an SDTM variable. For the SDTM dataset, concatenate all collected CDASH End DATE and TIME components and populate the SDTM variable --ENDTC in ISO 8601 format. Section 4.1.4.1 of the FDA Study Data Technical Conformance Guidea indicates that when dates have the role of a timing variable, the matching Study Day variables (--DY, --STDY, or --ENDY, respectively) should be included in the SDTM dataset.", "name": "--ENMO", "ordinal": "26", "prompt": "([Intended/Planned/Actual]) ([End/Discharge/Stop]) Month", "questionText": "What [is/was] the ([intended/planned/actual]) ([event/intervention/finding]) ([end/discharge/stop]) month (of the observation)?", "simpleDatatype": "Char"}, {"_links": {"parentClass": {"href": "/mdr/cdash/1-2/classes/Timing", "title": "Timing", "type": "Class"}, "parentProduct": {"href": "/mdr/cdash/1-2", "title": "Clinical Data Acquisition Standards Harmonization Model Version 1.2", "type": "Foundational Model"}, "priorVersion": {"href": "/mdr/cdash/1-1/classes/Timing/fields/--ENYY", "title": "Observation End Year", "type": "Class Variable"}, "rootItem": {"href": "/mdr/root/cdash/classes/Timing/fields/--ENYY", "title": "Observation End Year", "type": "Root Data Element"}, "sdtmClassMappingTargets": [{"href": "/mdr/sdtm/1-7/classes/GeneralObservations/variables/--ENDTC", "title": "End Date/Time of Observation", "type": "Class Variable"}], "self": {"href": "/mdr/cdash/1-2/classes/Timing/fields/--ENYY", "title": "Observation End Year", "type": "Class Variable"}}, "definition": "End year of an observation.", "implementationNotes": "This is a generic END YEAR (ENYY) field that can be implemented in a system that will not store partial dates. Use this for end date of events (e.g., AE end date) or interventions (e.g., CM end date), end date of interval dosing (e.g., date of infusion end), end visit date, or end date for interval collection of measurements or tests (e.g., end date of 24-hour urine collection).", "label": "Observation End Year", "mappingInstructions": "This field does not map directly to an SDTM variable. For the SDTM dataset, concatenate all collected CDASH End DATE and TIME components and populate the SDTM variable --ENDTC in ISO 8601 format. Section 4.1.4.1 of the FDA Study Data Technical Conformance Guidea indicates that when dates have the role of a timing variable, the matching Study Day variables (--DY, --STDY, or --ENDY, respectively) should be included in the SDTM dataset.", "name": "--ENYY", "ordinal": "27", "prompt": "([Intended/Planned/Actual]) ([End/Discharge/Stop]) Year", "questionText": "What [is/was] the ([intended/planned/actual]) ([event/intervention/finding]) ([end/discharge/stop]) year (of the observation)?", "simpleDatatype": "Char"}, {"_links": {"parentClass": {"href": "/mdr/cdash/1-2/classes/Timing", "title": "Timing", "type": "Class"}, "parentProduct": {"href": "/mdr/cdash/1-2", "title": "Clinical Data Acquisition Standards Harmonization Model Version 1.2", "type": "Foundational Model"}, "priorVersion": {"href": "/mdr/cdash/1-1/classes/Timing/fields/--ENTIM", "title": "Observation End Time", "type": "Class Variable"}, "rootItem": {"href": "/mdr/root/cdash/classes/Timing/fields/--ENTIM", "title": "Observation End Time", "type": "Root Data Element"}, "sdtmClassMappingTargets": [{"href": "/mdr/sdtm/1-7/classes/GeneralObservations/variables/--ENDTC", "title": "End Date/Time of Observation", "type": "Class Variable"}], "self": {"href": "/mdr/cdash/1-2/classes/Timing/fields/--ENTIM", "title": "Observation End Time", "type": "Class Variable"}}, "definition": "End time of an observation.", "implementationNotes": "This is a generic END TIME (ENTIM) field that can be implemented in a system that will store partial times. Use this for end time of events (e.g., AE end time) or Interventions (e.g., CM end time), end time of interval dosing (e.g., time of infusion end), end visit time, end time for interval collection of measurements or tests (e.g., and time of 24-hour urine collection).", "label": "Observation End Time", "mappingInstructions": "This field does not map directly to an SDTM variable. For the SDTM dataset, concatenate all collected CDASH End DATE and TIME components and populate the SDTM variable --ENDTC in ISO 8601 format. Section 4.1.4.1 of the FDA Study Data Technical Conformance Guidea indicates that when dates have the role of a timing variable, the matching Study Day variables (--DY, --STDY, or --ENDY, respectively) should be included in the SDTM dataset.", "name": "--ENTIM", "ordinal": "28", "prompt": "([Intended/Planned/Actual]) ([End/Discharge/Stop]) Time", "questionText": "What [is/was] the ([intended/planned/actual]) ([event/intervention/finding]) ([end/discharge/stop]) time (of the observation)?", "simpleDatatype": "Char"}, {"_links": {"parentClass": {"href": "/mdr/cdash/1-2/classes/Timing", "title": "Timing", "type": "Class"}, "parentProduct": {"href": "/mdr/cdash/1-2", "title": "Clinical Data Acquisition Standards Harmonization Model Version 1.2", "type": "Foundational Model"}, "priorVersion": {"href": "/mdr/cdash/1-1/classes/Timing/fields/--ENHR", "title": "Observation End Hour", "type": "Class Variable"}, "rootItem": {"href": "/mdr/root/cdash/classes/Timing/fields/--ENHR", "title": "Observation End Hour", "type": "Root Data Element"}, "sdtmClassMappingTargets": [{"href": "/mdr/sdtm/1-7/classes/GeneralObservations/variables/--ENDTC", "title": "End Date/Time of Observation", "type": "Class Variable"}], "self": {"href": "/mdr/cdash/1-2/classes/Timing/fields/--ENHR", "title": "Observation End Hour", "type": "Class Variable"}}, "definition": "End hour of an observation.", "implementationNotes": "This is a generic END HOUR (ENHR) field that can be implemented in a system that will not store partial times. Use this for end time of events (e.g., AE end time) or Interventions (e.g., CM end time), end time of interval dosing (e.g., time of infusion end), end visit time, end time for interval collection of measurements or tests (e.g., and time of 24-hour urine collection).", "label": "Observation End Hour", "mappingInstructions": "This field does not map directly to an SDTM variable. For the SDTM dataset, concatenate all collected CDASH End DATE and TIME components and populate the SDTM variable --ENDTC in ISO 8601 format. Section 4.1.4.1 of the FDA Study Data Technical Conformance Guidea indicates that when dates have the role of a timing variable, the matching Study Day variables (--DY, --STDY, or --ENDY, respectively) should be included in the SDTM dataset.", "name": "--ENHR", "ordinal": "29", "prompt": "([Intended/Planned/Actual]) ([End/Discharge/Stop]) Hour", "questionText": "What [is/was] the ([intended/planned/actual]) ([event/intervention/finding]) ([end/discharge/stop]) hour (of the observation)?", "simpleDatatype": "Char"}, {"_links": {"parentClass": {"href": "/mdr/cdash/1-2/classes/Timing", "title": "Timing", "type": "Class"}, "parentProduct": {"href": "/mdr/cdash/1-2", "title": "Clinical Data Acquisition Standards Harmonization Model Version 1.2", "type": "Foundational Model"}, "priorVersion": {"href": "/mdr/cdash/1-1/classes/Timing/fields/--ENMI", "title": "Observation End Minute", "type": "Class Variable"}, "rootItem": {"href": "/mdr/root/cdash/classes/Timing/fields/--ENMI", "title": "Observation End Minute", "type": "Root Data Element"}, "sdtmClassMappingTargets": [{"href": "/mdr/sdtm/1-7/classes/GeneralObservations/variables/--ENDTC", "title": "End Date/Time of Observation", "type": "Class Variable"}], "self": {"href": "/mdr/cdash/1-2/classes/Timing/fields/--ENMI", "title": "Observation End Minute", "type": "Class Variable"}}, "definition": "End minute of an observation.", "implementationNotes": "This is a generic END MINUTE (ENMI) field that can be implemented in a system that will not store partial times. Use this for time of events (e.g., AE end time) or Interventions (e.g., CM end time), end time of interval dosing (e.g., time of infusion end), end visit time, end time for interval collection of measurements or tests (e.g., end time of 24-hour urine collection).", "label": "Observation End Minute", "mappingInstructions": "This field does not map directly to an SDTM variable. For the SDTM dataset, concatenate all collected CDASH End DATE and TIME components and populate the SDTM variable --ENDTC in ISO 8601 format. Section 4.1.4.1 of the FDA Study Data Technical Conformance Guidea indicates that when dates have the role of a timing variable, the matching Study Day variables (--DY, --STDY, or --ENDY, respectively) should be included in the SDTM dataset.", "name": "--ENMI", "ordinal": "30", "prompt": "([Intended/Planned/Actual]) ([End/Discharge/Stop]) Minute", "questionText": "What [is/was] the ([intended/planned/actual]) ([event/intervention/finding]) ([end/discharge/stop]) minute (of the observation)?", "simpleDatatype": "Char"}, {"_links": {"parentClass": {"href": "/mdr/cdash/1-2/classes/Timing", "title": "Timing", "type": "Class"}, "parentProduct": {"href": "/mdr/cdash/1-2", "title": "Clinical Data Acquisition Standards Harmonization Model Version 1.2", "type": "Foundational Model"}, "priorVersion": {"href": "/mdr/cdash/1-1/classes/Timing/fields/--ENSS", "title": "Observation End Second", "type": "Class Variable"}, "rootItem": {"href": "/mdr/root/cdash/classes/Timing/fields/--ENSS", "title": "Observation End Second", "type": "Root Data Element"}, "sdtmClassMappingTargets": [{"href": "/mdr/sdtm/1-7/classes/GeneralObservations/variables/--ENDTC", "title": "End Date/Time of Observation", "type": "Class Variable"}], "self": {"href": "/mdr/cdash/1-2/classes/Timing/fields/--ENSS", "title": "Observation End Second", "type": "Class Variable"}}, "definition": "End second of an observation.", "implementationNotes": "This is a generic END SECOND (ENSS) field that can be implemented in a system that will not store partial dates. Use this for end time of events (e.g., AE end time) or Interventions (e.g., CM end time), end time of interval dosing (e.g., time of infusion end), end visit time, end time for interval collection of measurements or tests (e.g., and time of 24-hour urine collection).", "label": "Observation End Second", "mappingInstructions": "This field does not map directly to an SDTM variable. For the SDTM dataset, concatenate all collected CDASH End DATE and TIME components and populate the SDTM variable --ENDTC in ISO 8601 format. Section 4.1.4.1 of the FDA Study Data Technical Conformance Guidea indicates that when dates have the role of a timing variable, the matching Study Day variables (--DY, --STDY, or --ENDY, respectively) should be included in the SDTM dataset.", "name": "--ENSS", "ordinal": "31", "prompt": "([Intended/Planned/Actual]) ([End/Discharge/Stop]) Second", "questionText": "What [is/was] the ([intended/planned/actual]) ([event/intervention/finding]) ([end/discharge/stop]) second (of the observation)?", "simpleDatatype": "Char"}, {"_links": {"parentClass": {"href": "/mdr/cdash/1-2/classes/Timing", "title": "Timing", "type": "Class"}, "parentProduct": {"href": "/mdr/cdash/1-2", "title": "Clinical Data Acquisition Standards Harmonization Model Version 1.2", "type": "Foundational Model"}, "priorVersion": {"href": "/mdr/cdash/1-1/classes/Timing/fields/--CDUR", "title": "Collected Duration", "type": "Class Variable"}, "rootItem": {"href": "/mdr/root/cdash/classes/Timing/fields/--CDUR", "title": "Collected Duration", "type": "Root Data Element"}, "sdtmClassMappingTargets": [{"href": "/mdr/sdtm/1-7/classes/GeneralObservations/variables/--DUR", "title": "Duration", "type": "Class Variable"}], "self": {"href": "/mdr/cdash/1-2/classes/Timing/fields/--CDUR", "title": "Collected Duration", "type": "Class Variable"}}, "definition": "Collected duration of an event, intervention, or finding. Used only if collected on the CRF and not derived.", "implementationNotes": "Use only if collected on the CRF and not derived.", "label": "Collected Duration", "mappingInstructions": "This field does not map directly to an SDTM variable. For the SDTM dataset, concatenate the collected CDASH duration and the CDASH duration unit components and populate the SDTM variable --DUR in ISO 8601 period format.", "name": "--CDUR", "ordinal": "32", "prompt": "Duration", "questionText": "What [is/was] the duration of the [event/intervention]?", "simpleDatatype": "Char"}, {"_links": {"codelist": [{"href": "/mdr/root/ct/sdtmct/codelists/C71620", "title": "Version-agnostic anchor resource for codelist C71620", "type": "Root Value Domain"}], "parentClass": {"href": "/mdr/cdash/1-2/classes/Timing", "title": "Timing", "type": "Class"}, "parentProduct": {"href": "/mdr/cdash/1-2", "title": "Clinical Data Acquisition Standards Harmonization Model Version 1.2", "type": "Foundational Model"}, "priorVersion": {"href": "/mdr/cdash/1-1/classes/Timing/fields/--CDURU", "title": "Collected Duration Unit", "type": "Class Variable"}, "rootItem": {"href": "/mdr/root/cdash/classes/Timing/fields/--CDURU", "title": "Collected Duration Unit", "type": "Root Data Element"}, "sdtmClassMappingTargets": [{"href": "/mdr/sdtm/1-7/classes/GeneralObservations/variables/--DUR", "title": "Duration", "type": "Class Variable"}], "self": {"href": "/mdr/cdash/1-2/classes/Timing/fields/--CDURU", "title": "Collected Duration Unit", "type": "Class Variable"}}, "definition": "The unit of time associated with the collected duration of an event, intervention, or finding.", "implementationNotes": "Use only if collected on the CRF and not derived.", "label": "Collected Duration Unit", "mappingInstructions": "This field does not map directly to an SDTM variable. For the SDTM dataset, concatenate the collected CDASH duration and the CDASH duration unit components and populate the SDTM variable --DUR in ISO 8601 period format.", "name": "--CDURU", "ordinal": "33", "prompt": "[Duration Unit]", "questionText": "What [is/was] the duration unit of the [event/intervention]?", "simpleDatatype": "Char"}, {"_links": {"codelist": [{"href": "/mdr/root/ct/sdtmct/codelists/C66742", "title": "Version-agnostic anchor resource for codelist C66742", "type": "Root Value Domain"}], "parentClass": {"href": "/mdr/cdash/1-2/classes/Timing", "title": "Timing", "type": "Class"}, "parentProduct": {"href": "/mdr/cdash/1-2", "title": "Clinical Data Acquisition Standards Harmonization Model Version 1.2", "type": "Foundational Model"}, "priorVersion": {"href": "/mdr/cdash/1-1/classes/Timing/fields/--PRIOR", "title": "Prior", "type": "Class Variable"}, "rootItem": {"href": "/mdr/root/cdash/classes/Timing/fields/--PRIOR", "title": "Prior", "type": "Root Data Element"}, "sdtmClassMappingTargets": [{"href": "/mdr/sdtm/1-7/classes/GeneralObservations/variables/--STRTPT", "title": "Start Relative to Reference Time Point", "type": "Class Variable"}, {"href": "/mdr/sdtm/1-7/classes/GeneralObservations/variables/--STRF", "title": "Start Relative to Reference Period", "type": "Class Variable"}], "self": {"href": "/mdr/cdash/1-2/classes/Timing/fields/--PRIOR", "title": "Prior", "type": "Class Variable"}}, "definition": "An indication whether the event/intervention/finding started or occurred prior to a specified time point.", "implementationNotes": "The CDASH field --PRIOR allows specific question text and prompt about interventions, events or findings that were prior to a specified timepoint. --PRIOR is used in conjunction with either a reference timepoint (--STTPT, --ENTPT) or the Study Reference Period (described as RFSTDTC to RFENDTC). See CDASHIG Section 3.7 for more information.", "label": "Prior", "mappingInstructions": "This does not map directly to an SDTM variable. May be used to populate a value into an SDTM relative timing variable such as --STRF or --STRTPT. When populating --STRF, or --STRTPT, if the value of the CDASH field --PRIOR is \"Y\" a value from the CDISC CT (STENRF) may be used. When --PRIOR refers to the Study Reference Period (defined in DM.RFSTDTC to DM.RFENDTC) the SDTM variable --STRF should be populated. When --PRIOR is compared to another timepoint, the SDTM variables --STRTPT and --STTPT should be used. Note: --STRTPT must refer to the time point anchor described in --STTPT.", "name": "--PRIOR", "ordinal": "34", "prompt": "[Taken/Performed/Used/Administered/Consumed/Started/Occurred] Prior to a [specified timepoint]", "questionText": "Was the [--TRT/Intervention] [taken/performed/used/administered/consumed/started/occurred] prior to a [specified timepoint]?; Did the [--TERM/event topic/--TRT/Intervention/Finding] [start/occur] prior to [specified timepoint]?", "simpleDatatype": "Char"}, {"_links": {"parentClass": {"href": "/mdr/cdash/1-2/classes/Timing", "title": "Timing", "type": "Class"}, "parentProduct": {"href": "/mdr/cdash/1-2", "title": "Clinical Data Acquisition Standards Harmonization Model Version 1.2", "type": "Foundational Model"}, "priorVersion": {"href": "/mdr/cdash/1-1/classes/Timing/fields/--TPT", "title": "Planned Time Point Name", "type": "Class Variable"}, "rootItem": {"href": "/mdr/root/cdash/classes/Timing/fields/--TPT", "title": "Planned Time Point Name", "type": "Root Data Element"}, "sdtmClassMappingTargets": [{"href": "/mdr/sdtm/1-7/classes/GeneralObservations/variables/--TPT", "title": "Planned Time Point Name", "type": "Class Variable"}], "self": {"href": "/mdr/cdash/1-2/classes/Timing/fields/--TPT", "title": "Planned Time Point Name", "type": "Class Variable"}}, "definition": "Text description of time when a measurement or observation should be taken, as defined in the protocol. This may be represented as an elapsed time relative to a fixed reference point (e.g., time of last dose). See --TPTNUM and --TPTREF.", "implementationNotes": "Planned time point names are needed to differentiate multiple sequential assessments. It is recommended that time point names be pre-printed on the CRF rather than collected in a free-text field. If the form is laid out as a grid, then words such as Planned Time Point can be included as the column header. In the SDTM submission dataset, time points can be represented using the time point variables --TPT, --TPTNUM,-- ELTM. See SDTMIG for additional information.", "label": "Planned Time Point Name", "mappingInstructions": "Maps directly to the SDTM variable listed in the SDTM Target column. See the SDTMIG for additional information on representing time points. SDTM time point anchors --TPTREF (text description) and --RFTDTC (date/time) may be needed, as well as SDTM variables --TPTNUM, --ELTM.", "name": "--TPT", "ordinal": "35", "prompt": "[Planned Time Point Name]", "questionText": "What [is/was] the planned time point [of the/for the] [measurement/observation/collection]?", "simpleDatatype": "Char"}, {"_links": {"parentClass": {"href": "/mdr/cdash/1-2/classes/Timing", "title": "Timing", "type": "Class"}, "parentProduct": {"href": "/mdr/cdash/1-2", "title": "Clinical Data Acquisition Standards Harmonization Model Version 1.2", "type": "Foundational Model"}, "priorVersion": {"href": "/mdr/cdash/1-1/classes/Timing/fields/--TPTNUM", "title": "Planned Time Point Number", "type": "Class Variable"}, "rootItem": {"href": "/mdr/root/cdash/classes/Timing/fields/--TPTNUM", "title": "Planned Time Point Number", "type": "Root Data Element"}, "sdtmClassMappingTargets": [{"href": "/mdr/sdtm/1-7/classes/GeneralObservations/variables/--TPTNUM", "title": "Planned Time Point Number", "type": "Class Variable"}], "self": {"href": "/mdr/cdash/1-2/classes/Timing/fields/--TPTNUM", "title": "Planned Time Point Number", "type": "Class Variable"}}, "definition": "Numeric version of planned time point, used in sorting.", "implementationNotes": "Planned time point numbers may be needed to differentiate multiple sequential assessments. If collected, it is recommended that time point numbers be pre-printed on the CRF. In the SDTM submission dataset, time points can be represented using the time point variables --TPT, --TPTNUM,-- ELTM. See SDTMIG for additional information.", "label": "Planned Time Point Number", "mappingInstructions": "Maps directly to the SDTM variable listed in the SDTM Target column. See SDTMIG for additional information on representing time points. SDTM time point anchors --TPTREF (text description) and --RFTDTC (date/time) may be needed, as well as SDTM variables --TPTNUM, --ELTM.", "name": "--TPTNUM", "ordinal": "36", "prompt": "[Planned Time Point Number]", "questionText": "What [is/was] the planned time point number [of the/for the] [measurement/observation/collection]?", "simpleDatatype": "Num"}, {"_links": {"parentClass": {"href": "/mdr/cdash/1-2/classes/Timing", "title": "Timing", "type": "Class"}, "parentProduct": {"href": "/mdr/cdash/1-2", "title": "Clinical Data Acquisition Standards Harmonization Model Version 1.2", "type": "Foundational Model"}, "priorVersion": {"href": "/mdr/cdash/1-1/classes/Timing/fields/--TPTREF", "title": "Time Point Reference", "type": "Class Variable"}, "rootItem": {"href": "/mdr/root/cdash/classes/Timing/fields/--TPTREF", "title": "Time Point Reference", "type": "Root Data Element"}, "sdtmClassMappingTargets": [{"href": "/mdr/sdtm/1-7/classes/GeneralObservations/variables/--TPTREF", "title": "Time Point Reference", "type": "Class Variable"}], "self": {"href": "/mdr/cdash/1-2/classes/Timing/fields/--TPTREF", "title": "Time Point Reference", "type": "Class Variable"}}, "definition": "Description of the fixed reference point referred to by --ELTM, --TPTNUM, and --TPT.", "implementationNotes": "Planned reference point referred to by time point variables --TPT, TPTNUM, --ELTM. See SDTMIG for additional information. This would most commonly be pre-specified on the CRF, and not a question to which the site would provide an answer.", "label": "Time Point Reference", "mappingInstructions": "Maps directly to the SDTM variable listed in the SDTM Target column.", "name": "--TPTREF", "ordinal": "37", "prompt": "[Reference Time Point]", "questionText": "What is the description of the fixed reference point?", "simpleDatatype": "Char"}, {"_links": {"parentClass": {"href": "/mdr/cdash/1-2/classes/Timing", "title": "Timing", "type": "Class"}, "parentProduct": {"href": "/mdr/cdash/1-2", "title": "Clinical Data Acquisition Standards Harmonization Model Version 1.2", "type": "Foundational Model"}, "priorVersion": {"href": "/mdr/cdash/1-1/classes/Timing/fields/--RFTDAT", "title": "Reference Time Point Date", "type": "Class Variable"}, "rootItem": {"href": "/mdr/root/cdash/classes/Timing/fields/--RFTDAT", "title": "Reference Time Point Date", "type": "Root Data Element"}, "sdtmClassMappingTargets": [{"href": "/mdr/sdtm/1-7/classes/GeneralObservations/variables/--RFTDTC", "title": "Date/Time of Reference Time Point", "type": "Class Variable"}], "self": {"href": "/mdr/cdash/1-2/classes/Timing/fields/--RFTDAT", "title": "Reference Time Point Date", "type": "Class Variable"}}, "definition": "Date for a fixed reference time point defined by --TPTREF.", "implementationNotes": "Date of the fix reference time point defined by --TPTREF", "label": "Reference Time Point Date", "mappingInstructions": "This field does not map directly to an SDTM variable. For the SDTM dataset, the SDTMIG variable --RFTDTC is derived by concatenating all collected CDASH --RFTDAT, and --RFTTIM components and populating the SDTM variable --RFTDTC in ISO 8601 format.", "name": "--RFTDAT", "ordinal": "38", "prompt": "[Reference Time point]", "questionText": "What was the date of the [Reference Time point]?", "simpleDatatype": "Char"}, {"_links": {"parentClass": {"href": "/mdr/cdash/1-2/classes/Timing", "title": "Timing", "type": "Class"}, "parentProduct": {"href": "/mdr/cdash/1-2", "title": "Clinical Data Acquisition Standards Harmonization Model Version 1.2", "type": "Foundational Model"}, "priorVersion": {"href": "/mdr/cdash/1-1/classes/Timing/fields/--RFTTIM", "title": "Reference Time Point Time", "type": "Class Variable"}, "rootItem": {"href": "/mdr/root/cdash/classes/Timing/fields/--RFTTIM", "title": "Reference Time Point Time", "type": "Root Data Element"}, "sdtmClassMappingTargets": [{"href": "/mdr/sdtm/1-7/classes/GeneralObservations/variables/--RFTDTC", "title": "Date/Time of Reference Time Point", "type": "Class Variable"}], "self": {"href": "/mdr/cdash/1-2/classes/Timing/fields/--RFTTIM", "title": "Reference Time Point Time", "type": "Class Variable"}}, "definition": "Time for a fixed reference time point defined by --TPTREF.", "implementationNotes": "Time of the fix reference time point defined by --TPTREF", "label": "Reference Time Point Time", "mappingInstructions": "This field does not map directly to an SDTM variable. For the SDTM dataset, the SDTMIG variable --RFTDTC is derived by concatenating all collected CDASH --RFTDAT, and --RFTTIM components and populating the SDTM variable --RFTDTC in ISO 8601 format.", "name": "--RFTTIM", "ordinal": "39", "prompt": "[Reference Time point]", "questionText": "What was the time of the [Reference Time point]?", "simpleDatatype": "Char"}, {"_links": {"parentClass": {"href": "/mdr/cdash/1-2/classes/Timing", "title": "Timing", "type": "Class"}, "parentProduct": {"href": "/mdr/cdash/1-2", "title": "Clinical Data Acquisition Standards Harmonization Model Version 1.2", "type": "Foundational Model"}, "priorVersion": {"href": "/mdr/cdash/1-1/classes/Timing/fields/--CEVINT", "title": "Collected Evaluation Interval", "type": "Class Variable"}, "rootItem": {"href": "/mdr/root/cdash/classes/Timing/fields/--CEVINT", "title": "Collected Evaluation Interval", "type": "Root Data Element"}, "sdtmClassMappingTargets": [{"href": "/mdr/sdtm/1-7/classes/GeneralObservations/variables/--EVLINT", "title": "Evaluation Interval", "type": "Class Variable"}, {"href": "/mdr/sdtm/1-7/classes/GeneralObservations/variables/--EVINTX", "title": "Evaluation Interval Text", "type": "Class Variable"}], "self": {"href": "/mdr/cdash/1-2/classes/Timing/fields/--CEVINT", "title": "Collected Evaluation Interval", "type": "Class Variable"}}, "definition": "The collected or pre-populated text description of an interval associated with an observation such as a finding --TESTCD.", "implementationNotes": "The CDASH field --CEVINT (which is stored as free text) indicates a period of time during which an observation is being made or about which a question is being asked (e.g., \"During the past 6 months what was the subject's average sleep time?\" or \"Record any significant cardiovascular medical history over the subject's lifetime.\"). The evaluation interval free text is defaulted in the hidden CDASH field --CEVINT (e.g., PAST 6 MONTHS, LIFETIME). Intervals that can be converted to ISO format (e.g., PAST 6 WEEKS), are mapped to the SDTM variable --EVLINT (-P6W), and free-text interval are mapped to --EVINTX (LIFETIME). See SDTMIG for additional information.", "label": "Collected Evaluation Interval", "mappingInstructions": "This field does not map directly to an SDTM variable. For the SDTM dataset, convert the collect evaluation interval into an ISO 8601 period format and populate the SDTM variable --EVLINT or if the interval can not be converted to an ISO format, populate the SDTM variable --EVINTX.", "name": "--CEVINT", "ordinal": "40", "prompt": "[Evaluation Interval]", "questionText": "[Included as part of a protocol-specified question]", "simpleDatatype": "Char"}, {"_links": {"parentClass": {"href": "/mdr/cdash/1-2/classes/Timing", "title": "Timing", "type": "Class"}, "parentProduct": {"href": "/mdr/cdash/1-2", "title": "Clinical Data Acquisition Standards Harmonization Model Version 1.2", "type": "Foundational Model"}, "priorVersion": {"href": "/mdr/cdash/1-1/classes/Timing/fields/--EVLINT", "title": "Evaluation Interval", "type": "Class Variable"}, "rootItem": {"href": "/mdr/root/cdash/classes/Timing/fields/--EVLINT", "title": "Evaluation Interval", "type": "Root Data Element"}, "sdtmClassMappingTargets": [{"href": "/mdr/sdtm/1-7/classes/GeneralObservations/variables/--EVLINT", "title": "Evaluation Interval", "type": "Class Variable"}], "self": {"href": "/mdr/cdash/1-2/classes/Timing/fields/--EVLINT", "title": "Evaluation Interval", "type": "Class Variable"}}, "definition": "Duration of interval associated with an observation, such as a finding --TESTCD.", "implementationNotes": "The CDASH field --EVLINT indicates a period of time during which an observation is being made or about which a question is being asked which is represented in an ISO format. This would be a hidden field on the CRF or screen, not a question to which the site would provide an answer. The evaluation interval is included in the question text and the hidden CDASH field --EVLINT is defaulted using the appropriate ISO format for the interval. Example: \"During the past 6 months, what was the subject's average sleep time?\" is the question text; the hidden CDASH field --EVLINT would be \"-P6M\". See SDTMIG for additional information.", "label": "Evaluation Interval", "mappingInstructions": "Maps directly to the SDTM variable listed in the SDTM Target column.", "name": "--EVLINT", "ordinal": "41", "simpleDatatype": "Char"}, {"_links": {"parentClass": {"href": "/mdr/cdash/1-2/classes/Timing", "title": "Timing", "type": "Class"}, "parentProduct": {"href": "/mdr/cdash/1-2", "title": "Clinical Data Acquisition Standards Harmonization Model Version 1.2", "type": "Foundational Model"}, "priorVersion": {"href": "/mdr/cdash/1-1/classes/Timing/fields/DTHDAT", "title": "Death Date", "type": "Class Variable"}, "rootItem": {"href": "/mdr/root/cdash/classes/Timing/fields/DTHDAT", "title": "Death Date", "type": "Root Data Element"}, "sdtmDatasetMappingTargets": [{"href": "/mdr/sdtm/1-7/datasets/DM/variables/DTHDTC", "title": "Date/Time of Death", "type": "SDTM Dataset Variable"}], "self": {"href": "/mdr/cdash/1-2/classes/Timing/fields/DTHDAT", "title": "Death Date", "type": "Class Variable"}}, "definition": "Date of death for any subject who died.", "implementationNotes": "The CDASH model defines Death Date as a timing variable. It is not included as a timing variable in the SDTMIG. It may be collected on any CRF deemed appropriate by the sponsor, but should only be collected once. The SDTM variables DTHDTC and DTHFL are mapped to the DM domain during the SDTM submission dataset creation process. Death Date may be mapped to other SDTM domains (e.g., DS), as deemed appropriate by the sponsor. Death Date can be collected as a single field, or as three fields (DTHMO, DTHDD and DTHYY).", "label": "Death Date", "mappingInstructions": "This field does not map directly to an SDTM variable. For the SDTM dataset, concatenate all collected CDASH DATE and TIME components and populate the SDTM variable DM.DTHDTC in ISO 8601 format.", "name": "DTHDAT", "ordinal": "42", "prompt": "Death Date", "questionText": "What [is/was] the subject's date of death?", "simpleDatatype": "Char"}, {"_links": {"parentClass": {"href": "/mdr/cdash/1-2/classes/Timing", "title": "Timing", "type": "Class"}, "parentProduct": {"href": "/mdr/cdash/1-2", "title": "Clinical Data Acquisition Standards Harmonization Model Version 1.2", "type": "Foundational Model"}, "priorVersion": {"href": "/mdr/cdash/1-1/classes/Timing/fields/DTHDD", "title": "Death Day", "type": "Class Variable"}, "rootItem": {"href": "/mdr/root/cdash/classes/Timing/fields/DTHDD", "title": "Death Day", "type": "Root Data Element"}, "sdtmDatasetMappingTargets": [{"href": "/mdr/sdtm/1-7/datasets/DM/variables/DTHDTC", "title": "Date/Time of Death", "type": "SDTM Dataset Variable"}], "self": {"href": "/mdr/cdash/1-2/classes/Timing/fields/DTHDD", "title": "Death Day", "type": "Class Variable"}}, "definition": "Day of death for any subject who died.", "implementationNotes": "The CDASH model defines Death Date as a timing variable. It is not included as a timing variable in the SDTMIG. It may be collected on any CRF deemed appropriate by the sponsor. The SDTM variables DTHDTC and DTHFL are mapped to the DM domain during the SDTM submission dataset creation process. Death Date may be mapped to other SDTM domains (e.g., DS), as deemed appropriate by the sponsor. Death Date can be collected as a single field, or as three fields (DTHMO, DTHDD and DTHYY).", "label": "Death Day", "mappingInstructions": "This field does not map directly to an SDTM variable. For the SDTM dataset, concatenate all collected CDASH DATE and TIME components and populate the SDTM variable DM.DTHDTC in ISO 8601 format.", "name": "DTHDD", "ordinal": "43", "prompt": "Death Day", "questionText": "What [is/was] the subject's day of death?", "simpleDatatype": "Char"}, {"_links": {"parentClass": {"href": "/mdr/cdash/1-2/classes/Timing", "title": "Timing", "type": "Class"}, "parentProduct": {"href": "/mdr/cdash/1-2", "title": "Clinical Data Acquisition Standards Harmonization Model Version 1.2", "type": "Foundational Model"}, "priorVersion": {"href": "/mdr/cdash/1-1/classes/Timing/fields/DTHMO", "title": "Death Month", "type": "Class Variable"}, "rootItem": {"href": "/mdr/root/cdash/classes/Timing/fields/DTHMO", "title": "Death Month", "type": "Root Data Element"}, "sdtmDatasetMappingTargets": [{"href": "/mdr/sdtm/1-7/datasets/DM/variables/DTHDTC", "title": "Date/Time of Death", "type": "SDTM Dataset Variable"}], "self": {"href": "/mdr/cdash/1-2/classes/Timing/fields/DTHMO", "title": "Death Month", "type": "Class Variable"}}, "definition": "Month of death for any subject who died.", "implementationNotes": "The CDASH model defines Death Date as a timing variable. It is not included as a timing variable in the SDTMIG. It may be collected on any CRF deemed appropriate by the sponsor. The SDTM variables DTHDTC and DTHFL are mapped to the DM domain during the SDTM submission dataset creation process. Death Date may be mapped to other SDTM domains (e.g., DS), as deemed appropriate by the sponsor. Death Date can be collected as a single field, or as three fields (DTHMO, DTHDD and DTHYY).", "label": "Death Month", "mappingInstructions": "This field does not map directly to an SDTM variable. For the SDTM dataset, concatenate all collected CDASH DATE and TIME components and populate the SDTM variable DM.DTHDTC in ISO 8601 format.", "name": "DTHMO", "ordinal": "44", "prompt": "Death Month", "questionText": "What [is/was] the subject's month of death?", "simpleDatatype": "Char"}, {"_links": {"parentClass": {"href": "/mdr/cdash/1-2/classes/Timing", "title": "Timing", "type": "Class"}, "parentProduct": {"href": "/mdr/cdash/1-2", "title": "Clinical Data Acquisition Standards Harmonization Model Version 1.2", "type": "Foundational Model"}, "priorVersion": {"href": "/mdr/cdash/1-1/classes/Timing/fields/DTHYY", "title": "Death Year", "type": "Class Variable"}, "rootItem": {"href": "/mdr/root/cdash/classes/Timing/fields/DTHYY", "title": "Death Year", "type": "Root Data Element"}, "sdtmDatasetMappingTargets": [{"href": "/mdr/sdtm/1-7/datasets/DM/variables/DTHDTC", "title": "Date/Time of Death", "type": "SDTM Dataset Variable"}], "self": {"href": "/mdr/cdash/1-2/classes/Timing/fields/DTHYY", "title": "Death Year", "type": "Class Variable"}}, "definition": "Year of death for any subject who died.", "implementationNotes": "The CDASH model defines Death Date as a timing variable. It is not included as a timing variable in the SDTMIG. It may be collected on any CRF deemed appropriate by the sponsor. The SDTM variables DTHDTC and DTHFL are mapped to the DM domain during the SDTM submission dataset creation process. Death Date may be mapped to other SDTM domains (e.g., DS), as deemed appropriate by the sponsor. Death Date can be collected as a single field, or as three fields (DTHMO, DTHDD and DTHYY).", "label": "Death Year", "mappingInstructions": "This field does not map directly to an SDTM variable. For the SDTM dataset, concatenate all collected CDASH DATE and TIME components and populate the SDTM variable DM.DTHDTC in ISO 8601 format.", "name": "DTHYY", "ordinal": "45", "prompt": "Death Year", "questionText": "What [is/was] the subject's year of death?", "simpleDatatype": "Char"}, {"_links": {"parentClass": {"href": "/mdr/cdash/1-2/classes/Timing", "title": "Timing", "type": "Class"}, "parentProduct": {"href": "/mdr/cdash/1-2", "title": "Clinical Data Acquisition Standards Harmonization Model Version 1.2", "type": "Foundational Model"}, "priorVersion": {"href": "/mdr/cdash/1-1/classes/Timing/fields/DTHTIM", "title": "Death Time", "type": "Class Variable"}, "rootItem": {"href": "/mdr/root/cdash/classes/Timing/fields/DTHTIM", "title": "Death Time", "type": "Root Data Element"}, "sdtmDatasetMappingTargets": [{"href": "/mdr/sdtm/1-7/datasets/DM/variables/DTHDTC", "title": "Date/Time of Death", "type": "SDTM Dataset Variable"}], "self": {"href": "/mdr/cdash/1-2/classes/Timing/fields/DTHTIM", "title": "Death Time", "type": "Class Variable"}}, "definition": "Time of death for any subject who died.", "implementationNotes": "The CDASH model defines Death Date as a timing variable. It is not included as a timing variable in the SDTMIG. It may be collected on any CRF deemed appropriate by the sponsor. The SDTM variables DTHDTC and DTHFL are mapped to the DM domain during the SDTM submission dataset creation process. Death Date may be mapped to other SDTM domains (e.g., DS), as deemed appropriate by the sponsor. Death Time can be collected as a single field, or as two fields. (DTHHR, DTHMI).", "label": "Death Time", "mappingInstructions": "This field does not map directly to an SDTM variable. For the SDTM dataset, concatenate all collected CDASH DATE and TIME components and populate the SDTM variable DM.DTHDTC in ISO 8601 format.", "name": "DTHTIM", "ordinal": "46", "prompt": "Death Time", "questionText": "What [is/was] the subject's time of death?", "simpleDatatype": "Char"}, {"_links": {"parentClass": {"href": "/mdr/cdash/1-2/classes/Timing", "title": "Timing", "type": "Class"}, "parentProduct": {"href": "/mdr/cdash/1-2", "title": "Clinical Data Acquisition Standards Harmonization Model Version 1.2", "type": "Foundational Model"}, "priorVersion": {"href": "/mdr/cdash/1-1/classes/Timing/fields/DTHHR", "title": "Death Hour", "type": "Class Variable"}, "rootItem": {"href": "/mdr/root/cdash/classes/Timing/fields/DTHHR", "title": "Death Hour", "type": "Root Data Element"}, "sdtmDatasetMappingTargets": [{"href": "/mdr/sdtm/1-7/datasets/DM/variables/DTHDTC", "title": "Date/Time of Death", "type": "SDTM Dataset Variable"}], "self": {"href": "/mdr/cdash/1-2/classes/Timing/fields/DTHHR", "title": "Death Hour", "type": "Class Variable"}}, "definition": "Hour of death for any subject who died.", "implementationNotes": "The CDASH model defines Death Date as a timing variable. It is not included as a timing variable in the SDTMIG. It may be collected on any CRF deemed appropriate by the sponsor. The SDTM variables DTHDTC and DTHFL are mapped to the DM domain during the SDTM submission dataset creation process. Death Date may be mapped to other SDTM domains (e.g., DS), as deemed appropriate by the sponsor. Death Time can be collected as a single field, or as two fields. (DTHHR, DTHMI).", "label": "Death Hour", "mappingInstructions": "This field does not map directly to an SDTM variable. For the SDTM dataset, concatenate all collected CDASH DATE and TIME components and populate the SDTM variable DM.DTHDTC in ISO 8601 format.", "name": "DTHHR", "ordinal": "47", "prompt": "Hour of Death", "questionText": "What [is/was] the subject's hour of death?", "simpleDatatype": "Num"}, {"_links": {"parentClass": {"href": "/mdr/cdash/1-2/classes/Timing", "title": "Timing", "type": "Class"}, "parentProduct": {"href": "/mdr/cdash/1-2", "title": "Clinical Data Acquisition Standards Harmonization Model Version 1.2", "type": "Foundational Model"}, "priorVersion": {"href": "/mdr/cdash/1-1/classes/Timing/fields/DTHMI", "title": "Death Minute", "type": "Class Variable"}, "rootItem": {"href": "/mdr/root/cdash/classes/Timing/fields/DTHMI", "title": "Death Minute", "type": "Root Data Element"}, "sdtmDatasetMappingTargets": [{"href": "/mdr/sdtm/1-7/datasets/DM/variables/DTHDTC", "title": "Date/Time of Death", "type": "SDTM Dataset Variable"}], "self": {"href": "/mdr/cdash/1-2/classes/Timing/fields/DTHMI", "title": "Death Minute", "type": "Class Variable"}}, "definition": "Minute of death for any subject who died.", "implementationNotes": "The CDASH model defines Death Date as a timing variable. It is not included as a timing variable in the SDTMIG. It may be collected on any CRF deemed appropriate by the sponsor. The SDTM variables DTHDTC and DTHFL are mapped to the DM domain during the SDTM submission dataset creation process. Death Date may be mapped to other SDTM domains (e.g., DS), as deemed appropriate by the sponsor (e.g., DS). Death Time can be collected as a single field, or as two fields. (DTHHR, DTHMI).", "label": "Death Minute", "mappingInstructions": "This field does not map directly to an SDTM variable. For the SDTM dataset, concatenate all collected CDASH DATE and TIME components and populate the SDTM variable DM.DTHDTC in ISO 8601 format.", "name": "DTHMI", "ordinal": "48", "prompt": "Minute of Death", "questionText": "What [is/was] the subject's minute of death?", "simpleDatatype": "Num"}], "label": "Timing", "name": "Timing", "ordinal": "8"}
