{"_links": {"parentProduct": {"href": "/mdr/sdtm/2-0", "title": "Study Data Tabulation Model Version 2.0", "type": "Foundational Model"}, "priorVersion": {"href": "/mdr/sdtm/1-8/classes/Relationship", "title": "Relationship Datasets", "type": "Class"}, "self": {"href": "/mdr/sdtm/2-0/classes/Relationship", "title": "Relationship", "type": "Class"}}, "datasets": [{"_links": {"parentClass": {"href": "/mdr/sdtm/2-0/classes/Relationship", "title": "Relationship", "type": "Class"}, "parentProduct": {"href": "/mdr/sdtm/2-0", "title": "Study Data Tabulation Model Version 2.0", "type": "Foundational Model"}, "priorVersion": {"href": "/mdr/sdtm/1-8/datasets/RELREC", "title": "Related Records", "type": "SDTM Dataset"}, "self": {"href": "/mdr/sdtm/2-0/datasets/RELREC", "title": "Related Records", "type": "SDTM Dataset"}}, "datasetStructure": null, "datasetVariables": [{"_links": {"parentDataset": {"href": "/mdr/sdtm/2-0/datasets/RELREC", "title": "Related Records", "type": "SDTM Dataset"}, "parentProduct": {"href": "/mdr/sdtm/2-0", "title": "Study Data Tabulation Model Version 2.0", "type": "Foundational Model"}, "priorVersion": {"href": "/mdr/sdtm/1-8/datasets/RELREC/variables/STUDYID", "title": "Study Identifier", "type": "SDTM Dataset Variable"}, "rootItem": {"href": "/mdr/root/sdtm/datasets/RELREC/variables/STUDYID", "title": "Version-agnostic anchor resource for SDTM variable RELREC.STUDYID", "type": "Root Data Element"}, "self": {"href": "/mdr/sdtm/2-0/datasets/RELREC/variables/STUDYID", "title": "Study Identifier", "type": "SDTM Dataset Variable"}}, "definition": "A sequence of characters used by the sponsor to uniquely identify the study.", "label": "Study Identifier", "name": "STUDYID", "ordinal": "1", "role": "Identifier", "simpleDatatype": "Char", "variableCcode": "C83082"}, {"_links": {"parentDataset": {"href": "/mdr/sdtm/2-0/datasets/RELREC", "title": "Related Records", "type": "SDTM Dataset"}, "parentProduct": {"href": "/mdr/sdtm/2-0", "title": "Study Data Tabulation Model Version 2.0", "type": "Foundational Model"}, "priorVersion": {"href": "/mdr/sdtm/1-8/datasets/RELREC/variables/RDOMAIN", "title": "Related Domain Abbreviation", "type": "SDTM Dataset Variable"}, "rootItem": {"href": "/mdr/root/sdtm/datasets/RELREC/variables/RDOMAIN", "title": "Version-agnostic anchor resource for SDTM variable RELREC.RDOMAIN", "type": "Root Data Element"}, "self": {"href": "/mdr/sdtm/2-0/datasets/RELREC/variables/RDOMAIN", "title": "Related Domain Abbreviation", "type": "SDTM Dataset Variable"}}, "label": "Related Domain Abbreviation", "name": "RDOMAIN", "notes": "2-character abbreviation for the domain of the parent record(s).", "ordinal": "2", "role": "Identifier", "simpleDatatype": "Char"}, {"_links": {"parentDataset": {"href": "/mdr/sdtm/2-0/datasets/RELREC", "title": "Related Records", "type": "SDTM Dataset"}, "parentProduct": {"href": "/mdr/sdtm/2-0", "title": "Study Data Tabulation Model Version 2.0", "type": "Foundational Model"}, "priorVersion": {"href": "/mdr/sdtm/1-8/datasets/RELREC/variables/USUBJID", "title": "Unique Subject Identifier", "type": "SDTM Dataset Variable"}, "rootItem": {"href": "/mdr/root/sdtm/datasets/RELREC/variables/USUBJID", "title": "Version-agnostic anchor resource for SDTM variable RELREC.USUBJID", "type": "Root Data Element"}, "self": {"href": "/mdr/sdtm/2-0/datasets/RELREC/variables/USUBJID", "title": "Unique Subject Identifier", "type": "SDTM Dataset Variable"}}, "definition": "A sequence of characters used to uniquely identify a subject across all studies for all applications or submissions involving the product.", "label": "Unique Subject Identifier", "name": "USUBJID", "ordinal": "3", "role": "Identifier", "simpleDatatype": "Char", "variableCcode": "C69256"}, {"_links": {"parentDataset": {"href": "/mdr/sdtm/2-0/datasets/RELREC", "title": "Related Records", "type": "SDTM Dataset"}, "parentProduct": {"href": "/mdr/sdtm/2-0", "title": "Study Data Tabulation Model Version 2.0", "type": "Foundational Model"}, "priorVersion": {"href": "/mdr/sdtm/1-8/datasets/RELREC/variables/APID", "title": "Associated Persons Identifier", "type": "SDTM Dataset Variable"}, "rootItem": {"href": "/mdr/root/sdtm/datasets/RELREC/variables/APID", "title": "Version-agnostic anchor resource for SDTM variable RELREC.APID", "type": "Root Data Element"}, "self": {"href": "/mdr/sdtm/2-0/datasets/RELREC/variables/APID", "title": "Associated Persons Identifier", "type": "SDTM Dataset Variable"}}, "label": "Associated Persons Identifier", "name": "APID", "notes": "Identifier for a single associated person, a group of associated persons, or a pool of associated persons. If APID identifies a pool, POOLDEF records must exist for each associated person (see Section 6.3, Pool Definition Dataset, and Section 4, Associated Persons Data).", "ordinal": "4", "role": "Identifier", "simpleDatatype": "Char"}, {"_links": {"parentDataset": {"href": "/mdr/sdtm/2-0/datasets/RELREC", "title": "Related Records", "type": "SDTM Dataset"}, "parentProduct": {"href": "/mdr/sdtm/2-0", "title": "Study Data Tabulation Model Version 2.0", "type": "Foundational Model"}, "priorVersion": {"href": "/mdr/sdtm/1-8/datasets/RELREC/variables/POOLID", "title": "Pool Identifier", "type": "SDTM Dataset Variable"}, "rootItem": {"href": "/mdr/root/sdtm/datasets/RELREC/variables/POOLID", "title": "Version-agnostic anchor resource for SDTM variable RELREC.POOLID", "type": "Root Data Element"}, "self": {"href": "/mdr/sdtm/2-0/datasets/RELREC/variables/POOLID", "title": "Pool Identifier", "type": "SDTM Dataset Variable"}}, "definition": "A sequence of characters used to uniquely identify a group of subjects that have been pooled together.", "label": "Pool Identifier", "name": "POOLID", "ordinal": "5", "role": "Identifier", "simpleDatatype": "Char", "variableCcode": "C117053"}, {"_links": {"parentDataset": {"href": "/mdr/sdtm/2-0/datasets/RELREC", "title": "Related Records", "type": "SDTM Dataset"}, "parentProduct": {"href": "/mdr/sdtm/2-0", "title": "Study Data Tabulation Model Version 2.0", "type": "Foundational Model"}, "rootItem": {"href": "/mdr/root/sdtm/datasets/RELREC/variables/SPDEVID", "title": "Version-agnostic anchor resource for SDTM variable RELREC.SPDEVID", "type": "Root Data Element"}, "self": {"href": "/mdr/sdtm/2-0/datasets/RELREC/variables/SPDEVID", "title": "Sponsor Device Identifier", "type": "SDTM Dataset Variable"}}, "definition": "A sequence of characters used by the sponsor to uniquely identify a specific device.", "label": "Sponsor Device Identifier", "name": "SPDEVID", "ordinal": "6", "role": "Identifier", "simpleDatatype": "Char", "variableCcode": "C117060"}, {"_links": {"parentDataset": {"href": "/mdr/sdtm/2-0/datasets/RELREC", "title": "Related Records", "type": "SDTM Dataset"}, "parentProduct": {"href": "/mdr/sdtm/2-0", "title": "Study Data Tabulation Model Version 2.0", "type": "Foundational Model"}, "priorVersion": {"href": "/mdr/sdtm/1-8/datasets/RELREC/variables/IDVAR", "title": "Identifying Variable", "type": "SDTM Dataset Variable"}, "rootItem": {"href": "/mdr/root/sdtm/datasets/RELREC/variables/IDVAR", "title": "Version-agnostic anchor resource for SDTM variable RELREC.IDVAR", "type": "Root Data Element"}, "self": {"href": "/mdr/sdtm/2-0/datasets/RELREC/variables/IDVAR", "title": "Identifying Variable", "type": "SDTM Dataset Variable"}}, "examples": "--SEQ and --GRPID", "label": "Identifying Variable", "name": "IDVAR", "notes": "Name of the identifying variable in the general-observation-class dataset that identifies the related record(s).", "ordinal": "7", "role": "Identifier", "simpleDatatype": "Char"}, {"_links": {"parentDataset": {"href": "/mdr/sdtm/2-0/datasets/RELREC", "title": "Related Records", "type": "SDTM Dataset"}, "parentProduct": {"href": "/mdr/sdtm/2-0", "title": "Study Data Tabulation Model Version 2.0", "type": "Foundational Model"}, "priorVersion": {"href": "/mdr/sdtm/1-8/datasets/RELREC/variables/IDVARVAL", "title": "Identifying Variable Value", "type": "SDTM Dataset Variable"}, "rootItem": {"href": "/mdr/root/sdtm/datasets/RELREC/variables/IDVARVAL", "title": "Version-agnostic anchor resource for SDTM variable RELREC.IDVARVAL", "type": "Root Data Element"}, "self": {"href": "/mdr/sdtm/2-0/datasets/RELREC/variables/IDVARVAL", "title": "Identifying Variable Value", "type": "SDTM Dataset Variable"}}, "label": "Identifying Variable Value", "name": "IDVARVAL", "notes": "Value of identifying variable described in IDVAR. If --SEQ is the variable being used to describe this record, then the value of --SEQ is entered here.", "ordinal": "8", "role": "Identifier", "simpleDatatype": "Char"}, {"_links": {"parentDataset": {"href": "/mdr/sdtm/2-0/datasets/RELREC", "title": "Related Records", "type": "SDTM Dataset"}, "parentProduct": {"href": "/mdr/sdtm/2-0", "title": "Study Data Tabulation Model Version 2.0", "type": "Foundational Model"}, "priorVersion": {"href": "/mdr/sdtm/1-8/datasets/RELREC/variables/RELTYPE", "title": "Relationship Type", "type": "SDTM Dataset Variable"}, "rootItem": {"href": "/mdr/root/sdtm/datasets/RELREC/variables/RELTYPE", "title": "Version-agnostic anchor resource for SDTM variable RELREC.RELTYPE", "type": "Root Data Element"}, "self": {"href": "/mdr/sdtm/2-0/datasets/RELREC/variables/RELTYPE", "title": "Relationship Type", "type": "SDTM Dataset Variable"}}, "label": "Relationship Type", "name": "RELTYPE", "notes": "Identifies the hierarchical level of the records in the relationship. Values should be either ONE or MANY. However, values are only necessary when identifying a relationship between datasets.", "ordinal": "9", "role": "Record Qualifier", "simpleDatatype": "Char"}, {"_links": {"parentDataset": {"href": "/mdr/sdtm/2-0/datasets/RELREC", "title": "Related Records", "type": "SDTM Dataset"}, "parentProduct": {"href": "/mdr/sdtm/2-0", "title": "Study Data Tabulation Model Version 2.0", "type": "Foundational Model"}, "priorVersion": {"href": "/mdr/sdtm/1-8/datasets/RELREC/variables/RELID", "title": "Relationship Identifier", "type": "SDTM Dataset Variable"}, "rootItem": {"href": "/mdr/root/sdtm/datasets/RELREC/variables/RELID", "title": "Version-agnostic anchor resource for SDTM variable RELREC.RELID", "type": "Root Data Element"}, "self": {"href": "/mdr/sdtm/2-0/datasets/RELREC/variables/RELID", "title": "Relationship Identifier", "type": "SDTM Dataset Variable"}}, "label": "Relationship Identifier", "name": "RELID", "notes": "RELID value should be unique within the ID variable (e.g., USUBJID, APID, POOLID, SPDEVID) that is the subject of the relationship. All records with this ID variable that have the same RELID are considered related/associated. RELID can be any value the sponsor chooses, and is only meaningful within the RELREC dataset to identify the related/associated Domain records.", "ordinal": "10", "role": "Record Qualifier", "simpleDatatype": "Char"}], "description": "A dataset used to describe relationships between records for a subject within or across domains, and relationships of records across datasets.", "label": "Related Records", "name": "RELREC", "ordinal": "20"}, {"_links": {"parentClass": {"href": "/mdr/sdtm/2-0/classes/Relationship", "title": "Relationship", "type": "Class"}, "parentProduct": {"href": "/mdr/sdtm/2-0", "title": "Study Data Tabulation Model Version 2.0", "type": "Foundational Model"}, "priorVersion": {"href": "/mdr/sdtm/1-8/datasets/SUPPQUAL", "title": "Supplemental Qualifiers", "type": "SDTM Dataset"}, "self": {"href": "/mdr/sdtm/2-0/datasets/SUPPQUAL", "title": "Supplemental Qualifiers", "type": "SDTM Dataset"}}, "datasetStructure": null, "datasetVariables": [{"_links": {"parentDataset": {"href": "/mdr/sdtm/2-0/datasets/SUPPQUAL", "title": "Supplemental Qualifiers", "type": "SDTM Dataset"}, "parentProduct": {"href": "/mdr/sdtm/2-0", "title": "Study Data Tabulation Model Version 2.0", "type": "Foundational Model"}, "priorVersion": {"href": "/mdr/sdtm/1-8/datasets/SUPPQUAL/variables/STUDYID", "title": "Study Identifier", "type": "SDTM Dataset Variable"}, "rootItem": {"href": "/mdr/root/sdtm/datasets/SUPPQUAL/variables/STUDYID", "title": "Version-agnostic anchor resource for SDTM variable SUPPQUAL.STUDYID", "type": "Root Data Element"}, "self": {"href": "/mdr/sdtm/2-0/datasets/SUPPQUAL/variables/STUDYID", "title": "Study Identifier", "type": "SDTM Dataset Variable"}}, "definition": "A sequence of characters used by the sponsor to uniquely identify the study.", "label": "Study Identifier", "name": "STUDYID", "ordinal": "1", "role": "Identifier", "simpleDatatype": "Char", "variableCcode": "C83082"}, {"_links": {"parentDataset": {"href": "/mdr/sdtm/2-0/datasets/SUPPQUAL", "title": "Supplemental Qualifiers", "type": "SDTM Dataset"}, "parentProduct": {"href": "/mdr/sdtm/2-0", "title": "Study Data Tabulation Model Version 2.0", "type": "Foundational Model"}, "priorVersion": {"href": "/mdr/sdtm/1-8/datasets/SUPPQUAL/variables/RDOMAIN", "title": "Related Domain Abbreviation", "type": "SDTM Dataset Variable"}, "rootItem": {"href": "/mdr/root/sdtm/datasets/SUPPQUAL/variables/RDOMAIN", "title": "Version-agnostic anchor resource for SDTM variable SUPPQUAL.RDOMAIN", "type": "Root Data Element"}, "self": {"href": "/mdr/sdtm/2-0/datasets/SUPPQUAL/variables/RDOMAIN", "title": "Related Domain Abbreviation", "type": "SDTM Dataset Variable"}}, "label": "Related Domain Abbreviation", "name": "RDOMAIN", "notes": "2-character abbreviation for the domain of the parent record(s).", "ordinal": "2", "role": "Identifier", "simpleDatatype": "Char"}, {"_links": {"parentDataset": {"href": "/mdr/sdtm/2-0/datasets/SUPPQUAL", "title": "Supplemental Qualifiers", "type": "SDTM Dataset"}, "parentProduct": {"href": "/mdr/sdtm/2-0", "title": "Study Data Tabulation Model Version 2.0", "type": "Foundational Model"}, "priorVersion": {"href": "/mdr/sdtm/1-8/datasets/SUPPQUAL/variables/USUBJID", "title": "Unique Subject Identifier", "type": "SDTM Dataset Variable"}, "rootItem": {"href": "/mdr/root/sdtm/datasets/SUPPQUAL/variables/USUBJID", "title": "Version-agnostic anchor resource for SDTM variable SUPPQUAL.USUBJID", "type": "Root Data Element"}, "self": {"href": "/mdr/sdtm/2-0/datasets/SUPPQUAL/variables/USUBJID", "title": "Unique Subject Identifier", "type": "SDTM Dataset Variable"}}, "definition": "A sequence of characters used to uniquely identify a subject across all studies for all applications or submissions involving the product.", "label": "Unique Subject Identifier", "name": "USUBJID", "ordinal": "3", "role": "Identifier", "simpleDatatype": "Char", "variableCcode": "C69256"}, {"_links": {"parentDataset": {"href": "/mdr/sdtm/2-0/datasets/SUPPQUAL", "title": "Supplemental Qualifiers", "type": "SDTM Dataset"}, "parentProduct": {"href": "/mdr/sdtm/2-0", "title": "Study Data Tabulation Model Version 2.0", "type": "Foundational Model"}, "priorVersion": {"href": "/mdr/sdtm/1-8/datasets/SUPPQUAL/variables/APID", "title": "Associated Persons Identifier", "type": "SDTM Dataset Variable"}, "rootItem": {"href": "/mdr/root/sdtm/datasets/SUPPQUAL/variables/APID", "title": "Version-agnostic anchor resource for SDTM variable SUPPQUAL.APID", "type": "Root Data Element"}, "self": {"href": "/mdr/sdtm/2-0/datasets/SUPPQUAL/variables/APID", "title": "Associated Persons Identifier", "type": "SDTM Dataset Variable"}}, "label": "Associated Persons Identifier", "name": "APID", "notes": "Identifier for a single associated person, a group of associated persons, or a pool of associated persons. If APID identifies a pool, POOLDEF records must exist for each associated person (see Section 6.3, Pool Definition Dataset, and Section 4, Associated Persons Data).", "ordinal": "4", "role": "Identifier", "simpleDatatype": "Char"}, {"_links": {"parentDataset": {"href": "/mdr/sdtm/2-0/datasets/SUPPQUAL", "title": "Supplemental Qualifiers", "type": "SDTM Dataset"}, "parentProduct": {"href": "/mdr/sdtm/2-0", "title": "Study Data Tabulation Model Version 2.0", "type": "Foundational Model"}, "priorVersion": {"href": "/mdr/sdtm/1-8/datasets/SUPPQUAL/variables/POOLID", "title": "Pool Identifier", "type": "SDTM Dataset Variable"}, "rootItem": {"href": "/mdr/root/sdtm/datasets/SUPPQUAL/variables/POOLID", "title": "Version-agnostic anchor resource for SDTM variable SUPPQUAL.POOLID", "type": "Root Data Element"}, "self": {"href": "/mdr/sdtm/2-0/datasets/SUPPQUAL/variables/POOLID", "title": "Pool Identifier", "type": "SDTM Dataset Variable"}}, "definition": "A sequence of characters used to uniquely identify a group of subjects that have been pooled together.", "label": "Pool Identifier", "name": "POOLID", "ordinal": "5", "role": "Identifier", "simpleDatatype": "Char"}, {"_links": {"parentDataset": {"href": "/mdr/sdtm/2-0/datasets/SUPPQUAL", "title": "Supplemental Qualifiers", "type": "SDTM Dataset"}, "parentProduct": {"href": "/mdr/sdtm/2-0", "title": "Study Data Tabulation Model Version 2.0", "type": "Foundational Model"}, "rootItem": {"href": "/mdr/root/sdtm/datasets/SUPPQUAL/variables/SPDEVID", "title": "Version-agnostic anchor resource for SDTM variable SUPPQUAL.SPDEVID", "type": "Root Data Element"}, "self": {"href": "/mdr/sdtm/2-0/datasets/SUPPQUAL/variables/SPDEVID", "title": "Sponsor Device Identifier", "type": "SDTM Dataset Variable"}}, "definition": "A sequence of characters used by the sponsor to uniquely identify a specific device.", "label": "Sponsor Device Identifier", "name": "SPDEVID", "ordinal": "6", "role": "Identifier", "simpleDatatype": "Char", "variableCcode": "C117060"}, {"_links": {"parentDataset": {"href": "/mdr/sdtm/2-0/datasets/SUPPQUAL", "title": "Supplemental Qualifiers", "type": "SDTM Dataset"}, "parentProduct": {"href": "/mdr/sdtm/2-0", "title": "Study Data Tabulation Model Version 2.0", "type": "Foundational Model"}, "priorVersion": {"href": "/mdr/sdtm/1-8/datasets/SUPPQUAL/variables/IDVAR", "title": "Identifying Variable", "type": "SDTM Dataset Variable"}, "rootItem": {"href": "/mdr/root/sdtm/datasets/SUPPQUAL/variables/IDVAR", "title": "Version-agnostic anchor resource for SDTM variable SUPPQUAL.IDVAR", "type": "Root Data Element"}, "self": {"href": "/mdr/sdtm/2-0/datasets/SUPPQUAL/variables/IDVAR", "title": "Identifying Variable", "type": "SDTM Dataset Variable"}}, "examples": "--SEQ, --GRPID", "label": "Identifying Variable", "name": "IDVAR", "notes": "Identifying variable in the parent dataset that identifies the related record(s).", "ordinal": "7", "role": "Identifier", "simpleDatatype": "Char"}, {"_links": {"parentDataset": {"href": "/mdr/sdtm/2-0/datasets/SUPPQUAL", "title": "Supplemental Qualifiers", "type": "SDTM Dataset"}, "parentProduct": {"href": "/mdr/sdtm/2-0", "title": "Study Data Tabulation Model Version 2.0", "type": "Foundational Model"}, "priorVersion": {"href": "/mdr/sdtm/1-8/datasets/SUPPQUAL/variables/IDVARVAL", "title": "Identifying Variable Value", "type": "SDTM Dataset Variable"}, "rootItem": {"href": "/mdr/root/sdtm/datasets/SUPPQUAL/variables/IDVARVAL", "title": "Version-agnostic anchor resource for SDTM variable SUPPQUAL.IDVARVAL", "type": "Root Data Element"}, "self": {"href": "/mdr/sdtm/2-0/datasets/SUPPQUAL/variables/IDVARVAL", "title": "Identifying Variable Value", "type": "SDTM Dataset Variable"}}, "label": "Identifying Variable Value", "name": "IDVARVAL", "notes": "Value of identifying variable of the parent record(s).", "ordinal": "8", "role": "Identifier", "simpleDatatype": "Char"}, {"_links": {"parentDataset": {"href": "/mdr/sdtm/2-0/datasets/SUPPQUAL", "title": "Supplemental Qualifiers", "type": "SDTM Dataset"}, "parentProduct": {"href": "/mdr/sdtm/2-0", "title": "Study Data Tabulation Model Version 2.0", "type": "Foundational Model"}, "priorVersion": {"href": "/mdr/sdtm/1-8/datasets/SUPPQUAL/variables/QNAM", "title": "Qualifier Variable Name", "type": "SDTM Dataset Variable"}, "rootItem": {"href": "/mdr/root/sdtm/datasets/SUPPQUAL/variables/QNAM", "title": "Version-agnostic anchor resource for SDTM variable SUPPQUAL.QNAM", "type": "Root Data Element"}, "self": {"href": "/mdr/sdtm/2-0/datasets/SUPPQUAL/variables/QNAM", "title": "Qualifier Variable Name", "type": "SDTM Dataset Variable"}}, "label": "Qualifier Variable Name", "name": "QNAM", "notes": "The short name of the qualifier variable, which is used as a column name in a domain view with data from the parent domain. The value in QNAM cannot be longer than 8 characters, nor can it start with a number (e.g., \"1TEST\"). \\n QNAM cannot contain characters other than letters, numbers, or underscores. This will often be the column name in the sponsor's operational dataset. QNAM should not be the name of any standard ADaM variable.", "ordinal": "9", "role": "Topic", "simpleDatatype": "Char"}, {"_links": {"parentDataset": {"href": "/mdr/sdtm/2-0/datasets/SUPPQUAL", "title": "Supplemental Qualifiers", "type": "SDTM Dataset"}, "parentProduct": {"href": "/mdr/sdtm/2-0", "title": "Study Data Tabulation Model Version 2.0", "type": "Foundational Model"}, "priorVersion": {"href": "/mdr/sdtm/1-8/datasets/SUPPQUAL/variables/QLABEL", "title": "Qualifier Variable Label", "type": "SDTM Dataset Variable"}, "qualifiesVariables": [{"href": "/mdr/sdtm/2-0/datasets/SUPPQUAL/variables/QNAM", "title": "Qualifier Variable Name", "type": "SDTM Dataset Variable"}], "rootItem": {"href": "/mdr/root/sdtm/datasets/SUPPQUAL/variables/QLABEL", "title": "Version-agnostic anchor resource for SDTM variable SUPPQUAL.QLABEL", "type": "Root Data Element"}, "self": {"href": "/mdr/sdtm/2-0/datasets/SUPPQUAL/variables/QLABEL", "title": "Qualifier Variable Label", "type": "SDTM Dataset Variable"}}, "label": "Qualifier Variable Label", "name": "QLABEL", "notes": "This is the long name or label associated with QNAM. The value in QLABEL cannot be longer than 40 characters. This will often be the column label in the sponsor's original dataset.", "ordinal": "10", "role": "Synonym Qualifier", "simpleDatatype": "Char"}, {"_links": {"parentDataset": {"href": "/mdr/sdtm/2-0/datasets/SUPPQUAL", "title": "Supplemental Qualifiers", "type": "SDTM Dataset"}, "parentProduct": {"href": "/mdr/sdtm/2-0", "title": "Study Data Tabulation Model Version 2.0", "type": "Foundational Model"}, "priorVersion": {"href": "/mdr/sdtm/1-8/datasets/SUPPQUAL/variables/QVAL", "title": "Data Value", "type": "SDTM Dataset Variable"}, "rootItem": {"href": "/mdr/root/sdtm/datasets/SUPPQUAL/variables/QVAL", "title": "Version-agnostic anchor resource for SDTM variable SUPPQUAL.QVAL", "type": "Root Data Element"}, "self": {"href": "/mdr/sdtm/2-0/datasets/SUPPQUAL/variables/QVAL", "title": "Data Value", "type": "SDTM Dataset Variable"}}, "label": "Data Value", "name": "QVAL", "notes": "Result of, response to, or value associated with QNAM. A value for this column is required; no records can be in a SUPP-- dataset with a null value for QVAL.", "ordinal": "11", "role": "Result Qualifier", "simpleDatatype": "Char"}, {"_links": {"parentDataset": {"href": "/mdr/sdtm/2-0/datasets/SUPPQUAL", "title": "Supplemental Qualifiers", "type": "SDTM Dataset"}, "parentProduct": {"href": "/mdr/sdtm/2-0", "title": "Study Data Tabulation Model Version 2.0", "type": "Foundational Model"}, "priorVersion": {"href": "/mdr/sdtm/1-8/datasets/SUPPQUAL/variables/QORIG", "title": "Origin", "type": "SDTM Dataset Variable"}, "rootItem": {"href": "/mdr/root/sdtm/datasets/SUPPQUAL/variables/QORIG", "title": "Version-agnostic anchor resource for SDTM variable SUPPQUAL.QORIG", "type": "Root Data Element"}, "self": {"href": "/mdr/sdtm/2-0/datasets/SUPPQUAL/variables/QORIG", "title": "Origin", "type": "SDTM Dataset Variable"}}, "label": "Origin", "name": "QORIG", "notes": "Because QVAL can represent a mixture of collected (on a CRF), derived, or assigned items, QORIG is used to indicate the origin of this data.", "ordinal": "12", "role": "Record Qualifier", "simpleDatatype": "Char"}, {"_links": {"parentDataset": {"href": "/mdr/sdtm/2-0/datasets/SUPPQUAL", "title": "Supplemental Qualifiers", "type": "SDTM Dataset"}, "parentProduct": {"href": "/mdr/sdtm/2-0", "title": "Study Data Tabulation Model Version 2.0", "type": "Foundational Model"}, "priorVersion": {"href": "/mdr/sdtm/1-8/datasets/SUPPQUAL/variables/QEVAL", "title": "Evaluator", "type": "SDTM Dataset Variable"}, "rootItem": {"href": "/mdr/root/sdtm/datasets/SUPPQUAL/variables/QEVAL", "title": "Version-agnostic anchor resource for SDTM variable SUPPQUAL.QEVAL", "type": "Root Data Element"}, "self": {"href": "/mdr/sdtm/2-0/datasets/SUPPQUAL/variables/QEVAL", "title": "Evaluator", "type": "SDTM Dataset Variable"}}, "examples": "\"ADJUDICATION COMMITTEE\", \"STATISTICIAN\", \"DATABASE ADMINISTRATOR\", \"CLINICAL COORDINATOR\"", "label": "Evaluator", "name": "QEVAL", "notes": "Used only for results that are subjective (e.g., assigned by a person or a group). Should be null for records that contain objectively collected or derived data.", "ordinal": "13", "role": "Record Qualifier", "simpleDatatype": "Char"}], "description": null, "label": "Supplemental Qualifiers", "name": "SUPPQUAL", "ordinal": "21"}, {"_links": {"parentClass": {"href": "/mdr/sdtm/2-0/classes/Relationship", "title": "Relationship", "type": "Class"}, "parentProduct": {"href": "/mdr/sdtm/2-0", "title": "Study Data Tabulation Model Version 2.0", "type": "Foundational Model"}, "priorVersion": {"href": "/mdr/sdtm/1-8/datasets/POOLDEF", "title": "Pooled Definition", "type": "SDTM Dataset"}, "self": {"href": "/mdr/sdtm/2-0/datasets/POOLDEF", "title": "Pool Definition", "type": "SDTM Dataset"}}, "datasetStructure": null, "datasetVariables": [{"_links": {"parentDataset": {"href": "/mdr/sdtm/2-0/datasets/POOLDEF", "title": "Pool Definition", "type": "SDTM Dataset"}, "parentProduct": {"href": "/mdr/sdtm/2-0", "title": "Study Data Tabulation Model Version 2.0", "type": "Foundational Model"}, "priorVersion": {"href": "/mdr/sdtm/1-8/datasets/POOLDEF/variables/STUDYID", "title": "Study Identifier", "type": "SDTM Dataset Variable"}, "rootItem": {"href": "/mdr/root/sdtm/datasets/POOLDEF/variables/STUDYID", "title": "Version-agnostic anchor resource for SDTM variable POOLDEF.STUDYID", "type": "Root Data Element"}, "self": {"href": "/mdr/sdtm/2-0/datasets/POOLDEF/variables/STUDYID", "title": "Study Identifier", "type": "SDTM Dataset Variable"}}, "definition": "A sequence of characters used by the sponsor to uniquely identify the study.", "label": "Study Identifier", "name": "STUDYID", "ordinal": "1", "role": "Identifier", "simpleDatatype": "Char", "variableCcode": "C83082"}, {"_links": {"parentDataset": {"href": "/mdr/sdtm/2-0/datasets/POOLDEF", "title": "Pool Definition", "type": "SDTM Dataset"}, "parentProduct": {"href": "/mdr/sdtm/2-0", "title": "Study Data Tabulation Model Version 2.0", "type": "Foundational Model"}, "priorVersion": {"href": "/mdr/sdtm/1-8/datasets/POOLDEF/variables/POOLID", "title": "Pool Identifier", "type": "SDTM Dataset Variable"}, "rootItem": {"href": "/mdr/root/sdtm/datasets/POOLDEF/variables/POOLID", "title": "Version-agnostic anchor resource for SDTM variable POOLDEF.POOLID", "type": "Root Data Element"}, "self": {"href": "/mdr/sdtm/2-0/datasets/POOLDEF/variables/POOLID", "title": "Pool Identifier", "type": "SDTM Dataset Variable"}}, "definition": "A sequence of characters used to uniquely identify a group of subjects that have been pooled together.", "label": "Pool Identifier", "name": "POOLID", "notes": "Used to identify a result that is not assignable to a specific subject.", "ordinal": "2", "role": "Identifier", "simpleDatatype": "Char", "variableCcode": "C117053"}, {"_links": {"parentDataset": {"href": "/mdr/sdtm/2-0/datasets/POOLDEF", "title": "Pool Definition", "type": "SDTM Dataset"}, "parentProduct": {"href": "/mdr/sdtm/2-0", "title": "Study Data Tabulation Model Version 2.0", "type": "Foundational Model"}, "priorVersion": {"href": "/mdr/sdtm/1-8/datasets/POOLDEF/variables/USUBJID", "title": "Unique Subject Identifier", "type": "SDTM Dataset Variable"}, "rootItem": {"href": "/mdr/root/sdtm/datasets/POOLDEF/variables/USUBJID", "title": "Version-agnostic anchor resource for SDTM variable POOLDEF.USUBJID", "type": "Root Data Element"}, "self": {"href": "/mdr/sdtm/2-0/datasets/POOLDEF/variables/USUBJID", "title": "Unique Subject Identifier", "type": "SDTM Dataset Variable"}}, "definition": "A sequence of characters used to uniquely identify a subject across all studies for all applications or submissions involving the product.", "label": "Unique Subject Identifier", "name": "USUBJID", "ordinal": "3", "role": "Identifier", "simpleDatatype": "Char", "variableCcode": "C69256"}, {"_links": {"parentDataset": {"href": "/mdr/sdtm/2-0/datasets/POOLDEF", "title": "Pool Definition", "type": "SDTM Dataset"}, "parentProduct": {"href": "/mdr/sdtm/2-0", "title": "Study Data Tabulation Model Version 2.0", "type": "Foundational Model"}, "priorVersion": {"href": "/mdr/sdtm/1-8/datasets/POOLDEF/variables/APID", "title": "Associated Persons Identifier", "type": "SDTM Dataset Variable"}, "rootItem": {"href": "/mdr/root/sdtm/datasets/POOLDEF/variables/APID", "title": "Version-agnostic anchor resource for SDTM variable POOLDEF.APID", "type": "Root Data Element"}, "self": {"href": "/mdr/sdtm/2-0/datasets/POOLDEF/variables/APID", "title": "Associated Persons Identifier", "type": "SDTM Dataset Variable"}}, "label": "Associated Persons Identifier", "name": "APID", "notes": "Identifier for a single associated person, a group of associated persons, or a pool of associated persons.", "ordinal": "4", "role": "Identifier", "simpleDatatype": "Char"}], "description": "A dataset that identifies individual subjects included in a pool of subjects for which a single observation record (pool level) is captured.", "label": "Pool Definition", "name": "POOLDEF", "ordinal": "22"}, {"_links": {"parentClass": {"href": "/mdr/sdtm/2-0/classes/Relationship", "title": "Relationship", "type": "Class"}, "parentProduct": {"href": "/mdr/sdtm/2-0", "title": "Study Data Tabulation Model Version 2.0", "type": "Foundational Model"}, "priorVersion": {"href": "/mdr/sdtm/1-8/datasets/RELSUB", "title": "Related Subjects", "type": "SDTM Dataset"}, "self": {"href": "/mdr/sdtm/2-0/datasets/RELSUB", "title": "Related Subjects", "type": "SDTM Dataset"}}, "datasetStructure": null, "datasetVariables": [{"_links": {"parentDataset": {"href": "/mdr/sdtm/2-0/datasets/RELSUB", "title": "Related Subjects", "type": "SDTM Dataset"}, "parentProduct": {"href": "/mdr/sdtm/2-0", "title": "Study Data Tabulation Model Version 2.0", "type": "Foundational Model"}, "priorVersion": {"href": "/mdr/sdtm/1-8/datasets/RELSUB/variables/STUDYID", "title": "Study Identifier", "type": "SDTM Dataset Variable"}, "rootItem": {"href": "/mdr/root/sdtm/datasets/RELSUB/variables/STUDYID", "title": "Version-agnostic anchor resource for SDTM variable RELSUB.STUDYID", "type": "Root Data Element"}, "self": {"href": "/mdr/sdtm/2-0/datasets/RELSUB/variables/STUDYID", "title": "Study Identifier", "type": "SDTM Dataset Variable"}}, "definition": "A sequence of characters used by the sponsor to uniquely identify the study.", "label": "Study Identifier", "name": "STUDYID", "ordinal": "1", "role": "Identifier", "simpleDatatype": "Char", "variableCcode": "C83082"}, {"_links": {"parentDataset": {"href": "/mdr/sdtm/2-0/datasets/RELSUB", "title": "Related Subjects", "type": "SDTM Dataset"}, "parentProduct": {"href": "/mdr/sdtm/2-0", "title": "Study Data Tabulation Model Version 2.0", "type": "Foundational Model"}, "priorVersion": {"href": "/mdr/sdtm/1-8/datasets/RELSUB/variables/USUBJID", "title": "Unique Subject Identifier", "type": "SDTM Dataset Variable"}, "rootItem": {"href": "/mdr/root/sdtm/datasets/RELSUB/variables/USUBJID", "title": "Version-agnostic anchor resource for SDTM variable RELSUB.USUBJID", "type": "Root Data Element"}, "self": {"href": "/mdr/sdtm/2-0/datasets/RELSUB/variables/USUBJID", "title": "Unique Subject Identifier", "type": "SDTM Dataset Variable"}}, "definition": "A sequence of characters used to uniquely identify a subject across all studies for all applications or submissions involving the product.", "label": "Unique Subject Identifier", "name": "USUBJID", "notes": "Either USUBJID or POOLID must be populated.", "ordinal": "2", "role": "Identifier", "simpleDatatype": "Char", "variableCcode": "C69256"}, {"_links": {"parentDataset": {"href": "/mdr/sdtm/2-0/datasets/RELSUB", "title": "Related Subjects", "type": "SDTM Dataset"}, "parentProduct": {"href": "/mdr/sdtm/2-0", "title": "Study Data Tabulation Model Version 2.0", "type": "Foundational Model"}, "priorVersion": {"href": "/mdr/sdtm/1-8/datasets/RELSUB/variables/POOLID", "title": "Pool Identifier", "type": "SDTM Dataset Variable"}, "rootItem": {"href": "/mdr/root/sdtm/datasets/RELSUB/variables/POOLID", "title": "Version-agnostic anchor resource for SDTM variable RELSUB.POOLID", "type": "Root Data Element"}, "self": {"href": "/mdr/sdtm/2-0/datasets/RELSUB/variables/POOLID", "title": "Pool Identifier", "type": "SDTM Dataset Variable"}}, "definition": "A sequence of characters used to uniquely identify a group of subjects that have been pooled together.", "label": "Pool Identifier", "name": "POOLID", "notes": "If POOLID is entered, POOLDEF records must exist for each subject in the pool and USUBJID must be null. Either USUBJID or POOLID must be populated.", "ordinal": "3", "role": "Identifier", "simpleDatatype": "Char", "variableCcode": "C117053"}, {"_links": {"parentDataset": {"href": "/mdr/sdtm/2-0/datasets/RELSUB", "title": "Related Subjects", "type": "SDTM Dataset"}, "parentProduct": {"href": "/mdr/sdtm/2-0", "title": "Study Data Tabulation Model Version 2.0", "type": "Foundational Model"}, "priorVersion": {"href": "/mdr/sdtm/1-8/datasets/RELSUB/variables/RSUBJID", "title": "Related Subject or Pool Identifier", "type": "SDTM Dataset Variable"}, "rootItem": {"href": "/mdr/root/sdtm/datasets/RELSUB/variables/RSUBJID", "title": "Version-agnostic anchor resource for SDTM variable RELSUB.RSUBJID", "type": "Root Data Element"}, "self": {"href": "/mdr/sdtm/2-0/datasets/RELSUB/variables/RSUBJID", "title": "Related Subject or Pool Identifier", "type": "SDTM Dataset Variable"}}, "label": "Related Subject or Pool Identifier", "name": "RSUBJID", "notes": "Identifier used to identify a related subject or pool of subjects. RSUBJID will be populated with either the USUBJID of the related subject or the POOLID of the related pool.", "ordinal": "4", "role": "Identifier", "simpleDatatype": "Char"}, {"_links": {"parentDataset": {"href": "/mdr/sdtm/2-0/datasets/RELSUB", "title": "Related Subjects", "type": "SDTM Dataset"}, "parentProduct": {"href": "/mdr/sdtm/2-0", "title": "Study Data Tabulation Model Version 2.0", "type": "Foundational Model"}, "priorVersion": {"href": "/mdr/sdtm/1-8/datasets/RELSUB/variables/SREL", "title": "Subject Relationship", "type": "SDTM Dataset Variable"}, "rootItem": {"href": "/mdr/root/sdtm/datasets/RELSUB/variables/SREL", "title": "Version-agnostic anchor resource for SDTM variable RELSUB.SREL", "type": "Root Data Element"}, "self": {"href": "/mdr/sdtm/2-0/datasets/RELSUB/variables/SREL", "title": "Subject Relationship", "type": "SDTM Dataset Variable"}}, "label": "Subject Relationship", "name": "SREL", "notes": "Describes the relationship of the subject identified in USUBJID or the pool identified in POOLID to the subject or pool identified in RSUBJID.", "ordinal": "5", "role": "Record Qualifier", "simpleDatatype": "Char"}], "description": "A dataset used to represent relationships between study subjects.", "label": "Related Subjects", "name": "RELSUB", "ordinal": "23"}, {"_links": {"parentClass": {"href": "/mdr/sdtm/2-0/classes/Relationship", "title": "Relationship", "type": "Class"}, "parentProduct": {"href": "/mdr/sdtm/2-0", "title": "Study Data Tabulation Model Version 2.0", "type": "Foundational Model"}, "priorVersion": {"href": "/mdr/sdtm/1-8/datasets/DR", "title": "Device-Subject Relationships", "type": "SDTM Dataset"}, "self": {"href": "/mdr/sdtm/2-0/datasets/DR", "title": "Device-Subject Relationships", "type": "SDTM Dataset"}}, "datasetStructure": null, "datasetVariables": [{"_links": {"parentDataset": {"href": "/mdr/sdtm/2-0/datasets/DR", "title": "Device-Subject Relationships", "type": "SDTM Dataset"}, "parentProduct": {"href": "/mdr/sdtm/2-0", "title": "Study Data Tabulation Model Version 2.0", "type": "Foundational Model"}, "priorVersion": {"href": "/mdr/sdtm/1-8/datasets/DR/variables/STUDYID", "title": "Study Identifier", "type": "SDTM Dataset Variable"}, "rootItem": {"href": "/mdr/root/sdtm/datasets/DR/variables/STUDYID", "title": "Version-agnostic anchor resource for SDTM variable DR.STUDYID", "type": "Root Data Element"}, "self": {"href": "/mdr/sdtm/2-0/datasets/DR/variables/STUDYID", "title": "Study Identifier", "type": "SDTM Dataset Variable"}}, "definition": "A sequence of characters used by the sponsor to uniquely identify the study.", "label": "Study Identifier", "name": "STUDYID", "notes": "Study identifier of the domain record(s).", "ordinal": "1", "role": "Identifier", "simpleDatatype": "Char", "variableCcode": "C83082"}, {"_links": {"parentDataset": {"href": "/mdr/sdtm/2-0/datasets/DR", "title": "Device-Subject Relationships", "type": "SDTM Dataset"}, "parentProduct": {"href": "/mdr/sdtm/2-0", "title": "Study Data Tabulation Model Version 2.0", "type": "Foundational Model"}, "priorVersion": {"href": "/mdr/sdtm/1-8/datasets/DR/variables/DOMAIN", "title": "Domain Abbreviation", "type": "SDTM Dataset Variable"}, "rootItem": {"href": "/mdr/root/sdtm/datasets/DR/variables/DOMAIN", "title": "Version-agnostic anchor resource for SDTM variable DR.DOMAIN", "type": "Root Data Element"}, "self": {"href": "/mdr/sdtm/2-0/datasets/DR/variables/DOMAIN", "title": "Domain Abbreviation", "type": "SDTM Dataset Variable"}}, "definition": "An abbreviation for a collection of observations, with a topic-specific commonality.", "label": "Domain Abbreviation", "name": "DOMAIN", "notes": "2-character abbreviation, which must be \"DR\".", "ordinal": "2", "role": "Identifier", "simpleDatatype": "Char", "variableCcode": "C49558"}, {"_links": {"parentDataset": {"href": "/mdr/sdtm/2-0/datasets/DR", "title": "Device-Subject Relationships", "type": "SDTM Dataset"}, "parentProduct": {"href": "/mdr/sdtm/2-0", "title": "Study Data Tabulation Model Version 2.0", "type": "Foundational Model"}, "priorVersion": {"href": "/mdr/sdtm/1-8/datasets/DR/variables/USUBJID", "title": "Unique Subject Identifier", "type": "SDTM Dataset Variable"}, "rootItem": {"href": "/mdr/root/sdtm/datasets/DR/variables/USUBJID", "title": "Version-agnostic anchor resource for SDTM variable DR.USUBJID", "type": "Root Data Element"}, "self": {"href": "/mdr/sdtm/2-0/datasets/DR/variables/USUBJID", "title": "Unique Subject Identifier", "type": "SDTM Dataset Variable"}}, "definition": "A sequence of characters used to uniquely identify a subject across all studies for all applications or submissions involving the product.", "label": "Unique Subject Identifier", "name": "USUBJID", "ordinal": "3", "role": "Identifier", "simpleDatatype": "Char", "variableCcode": "C69256"}, {"_links": {"parentDataset": {"href": "/mdr/sdtm/2-0/datasets/DR", "title": "Device-Subject Relationships", "type": "SDTM Dataset"}, "parentProduct": {"href": "/mdr/sdtm/2-0", "title": "Study Data Tabulation Model Version 2.0", "type": "Foundational Model"}, "priorVersion": {"href": "/mdr/sdtm/1-8/datasets/DR/variables/SPDEVID", "title": "Sponsor Device Identifier", "type": "SDTM Dataset Variable"}, "rootItem": {"href": "/mdr/root/sdtm/datasets/DR/variables/SPDEVID", "title": "Version-agnostic anchor resource for SDTM variable DR.SPDEVID", "type": "Root Data Element"}, "self": {"href": "/mdr/sdtm/2-0/datasets/DR/variables/SPDEVID", "title": "Sponsor Device Identifier", "type": "SDTM Dataset Variable"}}, "label": "Sponsor Device Identifier", "name": "SPDEVID", "notes": "Sponsor-defined identifier for the device. It must be unique for each tracked unit of the device under study, and can be at whatever level of granularity the device should be identified (e.g., model or serial number, combination of identifiers) as defined in DI.", "ordinal": "4", "role": "Identifier", "simpleDatatype": "Char"}], "description": "A special-purpose domain that contains the linkage of each subject to the device(s) to which they may have been exposed during the study.", "label": "Device-Subject Relationships", "name": "DR", "ordinal": "24"}, {"_links": {"parentClass": {"href": "/mdr/sdtm/2-0/classes/Relationship", "title": "Relationship", "type": "Class"}, "parentProduct": {"href": "/mdr/sdtm/2-0", "title": "Study Data Tabulation Model Version 2.0", "type": "Foundational Model"}, "priorVersion": {"href": "/mdr/sdtm/1-8/datasets/APRELSUB", "title": "Relationships between Associated Persons and Subjects", "type": "SDTM Dataset"}, "self": {"href": "/mdr/sdtm/2-0/datasets/APRELSUB", "title": "Associated Persons Related to Subjects", "type": "SDTM Dataset"}}, "datasetStructure": null, "datasetVariables": [{"_links": {"parentDataset": {"href": "/mdr/sdtm/2-0/datasets/APRELSUB", "title": "Associated Persons Related to Subjects", "type": "SDTM Dataset"}, "parentProduct": {"href": "/mdr/sdtm/2-0", "title": "Study Data Tabulation Model Version 2.0", "type": "Foundational Model"}, "priorVersion": {"href": "/mdr/sdtm/1-8/datasets/APRELSUB/variables/STUDYID", "title": "Study Identifier", "type": "SDTM Dataset Variable"}, "rootItem": {"href": "/mdr/root/sdtm/datasets/APRELSUB/variables/STUDYID", "title": "Version-agnostic anchor resource for SDTM variable APRELSUB.STUDYID", "type": "Root Data Element"}, "self": {"href": "/mdr/sdtm/2-0/datasets/APRELSUB/variables/STUDYID", "title": "Study Identifier", "type": "SDTM Dataset Variable"}}, "definition": "A sequence of characters used by the sponsor to uniquely identify the study.", "label": "Study Identifier", "name": "STUDYID", "ordinal": "1", "role": "Identifier", "simpleDatatype": "Char", "variableCcode": "C83082"}, {"_links": {"parentDataset": {"href": "/mdr/sdtm/2-0/datasets/APRELSUB", "title": "Associated Persons Related to Subjects", "type": "SDTM Dataset"}, "parentProduct": {"href": "/mdr/sdtm/2-0", "title": "Study Data Tabulation Model Version 2.0", "type": "Foundational Model"}, "priorVersion": {"href": "/mdr/sdtm/1-8/datasets/APRELSUB/variables/APID", "title": "Associated Persons Identifier", "type": "SDTM Dataset Variable"}, "rootItem": {"href": "/mdr/root/sdtm/datasets/APRELSUB/variables/APID", "title": "Version-agnostic anchor resource for SDTM variable APRELSUB.APID", "type": "Root Data Element"}, "self": {"href": "/mdr/sdtm/2-0/datasets/APRELSUB/variables/APID", "title": "Associated Persons Identifier", "type": "SDTM Dataset Variable"}}, "label": "Associated Persons Identifier", "name": "APID", "notes": "Identifier for a single associated person, a group of associated persons, or a pool of associated persons. If APID identifies a pool, POOLDEF records must exist for each associated person (see Section 6.3, Pool Definition Dataset, and Section 4, Associated Persons Data).", "ordinal": "2", "role": "Identifier", "simpleDatatype": "Char"}, {"_links": {"parentDataset": {"href": "/mdr/sdtm/2-0/datasets/APRELSUB", "title": "Associated Persons Related to Subjects", "type": "SDTM Dataset"}, "parentProduct": {"href": "/mdr/sdtm/2-0", "title": "Study Data Tabulation Model Version 2.0", "type": "Foundational Model"}, "priorVersion": {"href": "/mdr/sdtm/1-8/datasets/APRELSUB/variables/RSUBJID", "title": "Related Subject or Pool Identifier", "type": "SDTM Dataset Variable"}, "rootItem": {"href": "/mdr/root/sdtm/datasets/APRELSUB/variables/RSUBJID", "title": "Version-agnostic anchor resource for SDTM variable APRELSUB.RSUBJID", "type": "Root Data Element"}, "self": {"href": "/mdr/sdtm/2-0/datasets/APRELSUB/variables/RSUBJID", "title": "Related Subject or Pool Identifier", "type": "SDTM Dataset Variable"}}, "label": "Related Subject or Pool Identifier", "name": "RSUBJID", "notes": "Identifier for a related subject or pool of subjects. RSUBJID may be populated with the USUBJID of the related subject or the POOLID of the related pool. \\n RSUBJID will be null for data about associated persons who are related to the study but not to any study subjects.", "ordinal": "3", "role": "Identifier", "simpleDatatype": "Char"}, {"_links": {"parentDataset": {"href": "/mdr/sdtm/2-0/datasets/APRELSUB", "title": "Associated Persons Related to Subjects", "type": "SDTM Dataset"}, "parentProduct": {"href": "/mdr/sdtm/2-0", "title": "Study Data Tabulation Model Version 2.0", "type": "Foundational Model"}, "priorVersion": {"href": "/mdr/sdtm/1-8/datasets/APRELSUB/variables/RDEVID", "title": "Related Device Identifier", "type": "SDTM Dataset Variable"}, "rootItem": {"href": "/mdr/root/sdtm/datasets/APRELSUB/variables/RDEVID", "title": "Version-agnostic anchor resource for SDTM variable APRELSUB.RDEVID", "type": "Root Data Element"}, "self": {"href": "/mdr/sdtm/2-0/datasets/APRELSUB/variables/RDEVID", "title": "Related Device Identifier", "type": "SDTM Dataset Variable"}}, "label": "Related Device Identifier", "name": "RDEVID", "notes": "Identifier for a related device. RDEVID will be populated with the SPDEVID of the related device.", "ordinal": "4", "role": "Identifier", "simpleDatatype": "Char"}, {"_links": {"parentDataset": {"href": "/mdr/sdtm/2-0/datasets/APRELSUB", "title": "Associated Persons Related to Subjects", "type": "SDTM Dataset"}, "parentProduct": {"href": "/mdr/sdtm/2-0", "title": "Study Data Tabulation Model Version 2.0", "type": "Foundational Model"}, "priorVersion": {"href": "/mdr/sdtm/1-8/datasets/APRELSUB/variables/SREL", "title": "Subject, Device, or Study Relationship", "type": "SDTM Dataset Variable"}, "rootItem": {"href": "/mdr/root/sdtm/datasets/APRELSUB/variables/SREL", "title": "Version-agnostic anchor resource for SDTM variable APRELSUB.SREL", "type": "Root Data Element"}, "self": {"href": "/mdr/sdtm/2-0/datasets/APRELSUB/variables/SREL", "title": "Subject, Device, or Study Relationship", "type": "SDTM Dataset Variable"}}, "label": "Subject, Device, or Study Relationship", "name": "SREL", "notes": "If RSUBJID is populated, describes the relationship of the associated person(s) identified in APID to the subject or pool identified in RSUBJID. \\n If RDEVID is populated, describes the relationship of the associated person(s) identified in APID to the subject or pool identified in RDEVID. \\n If RSUBJID and RDEVID are null, SREL describes the relationship of the associated person(s) identified in APID to the study identified in STUDYID.", "ordinal": "5", "role": "Record Qualifier", "simpleDatatype": "Char"}], "description": null, "label": "Associated Persons Related to Subjects", "name": "APRELSUB", "ordinal": "25"}, {"_links": {"parentClass": {"href": "/mdr/sdtm/2-0/classes/Relationship", "title": "Relationship", "type": "Class"}, "parentProduct": {"href": "/mdr/sdtm/2-0", "title": "Study Data Tabulation Model Version 2.0", "type": "Foundational Model"}, "self": {"href": "/mdr/sdtm/2-0/datasets/RELSPEC", "title": "Related Specimens", "type": "SDTM Dataset"}}, "datasetStructure": null, "datasetVariables": [{"_links": {"parentDataset": {"href": "/mdr/sdtm/2-0/datasets/RELSPEC", "title": "Related Specimens", "type": "SDTM Dataset"}, "parentProduct": {"href": "/mdr/sdtm/2-0", "title": "Study Data Tabulation Model Version 2.0", "type": "Foundational Model"}, "rootItem": {"href": "/mdr/root/sdtm/datasets/RELSPEC/variables/STUDYID", "title": "Version-agnostic anchor resource for SDTM variable RELSPEC.STUDYID", "type": "Root Data Element"}, "self": {"href": "/mdr/sdtm/2-0/datasets/RELSPEC/variables/STUDYID", "title": "Study Identifier", "type": "SDTM Dataset Variable"}}, "definition": "A sequence of characters used by the sponsor to uniquely identify the study.", "label": "Study Identifier", "name": "STUDYID", "ordinal": "1", "role": "Identifier", "simpleDatatype": "Char", "variableCcode": "C83082"}, {"_links": {"parentDataset": {"href": "/mdr/sdtm/2-0/datasets/RELSPEC", "title": "Related Specimens", "type": "SDTM Dataset"}, "parentProduct": {"href": "/mdr/sdtm/2-0", "title": "Study Data Tabulation Model Version 2.0", "type": "Foundational Model"}, "rootItem": {"href": "/mdr/root/sdtm/datasets/RELSPEC/variables/USUBJID", "title": "Version-agnostic anchor resource for SDTM variable RELSPEC.USUBJID", "type": "Root Data Element"}, "self": {"href": "/mdr/sdtm/2-0/datasets/RELSPEC/variables/USUBJID", "title": "Unique Subject Identifier", "type": "SDTM Dataset Variable"}}, "definition": "A sequence of characters used to uniquely identify a subject across all studies for all applications or submissions involving the product.", "label": "Unique Subject Identifier", "name": "USUBJID", "ordinal": "2", "role": "Identifier", "simpleDatatype": "Char", "variableCcode": "C69256"}, {"_links": {"parentDataset": {"href": "/mdr/sdtm/2-0/datasets/RELSPEC", "title": "Related Specimens", "type": "SDTM Dataset"}, "parentProduct": {"href": "/mdr/sdtm/2-0", "title": "Study Data Tabulation Model Version 2.0", "type": "Foundational Model"}, "rootItem": {"href": "/mdr/root/sdtm/datasets/RELSPEC/variables/REFID", "title": "Version-agnostic anchor resource for SDTM variable RELSPEC.REFID", "type": "Root Data Element"}, "self": {"href": "/mdr/sdtm/2-0/datasets/RELSPEC/variables/REFID", "title": "Reference ID", "type": "SDTM Dataset Variable"}}, "definition": "A sequence of characters used to uniquely identify a source of information.", "label": "Reference ID", "name": "REFID", "ordinal": "3", "role": "Identifier", "simpleDatatype": "Char", "variableCcode": "C82531"}, {"_links": {"parentDataset": {"href": "/mdr/sdtm/2-0/datasets/RELSPEC", "title": "Related Specimens", "type": "SDTM Dataset"}, "parentProduct": {"href": "/mdr/sdtm/2-0", "title": "Study Data Tabulation Model Version 2.0", "type": "Foundational Model"}, "qualifiesVariables": [{"href": "/mdr/sdtm/2-0/datasets/RELSPEC/variables/REFID", "title": "Reference ID", "type": "SDTM Dataset Variable"}], "rootItem": {"href": "/mdr/root/sdtm/datasets/RELSPEC/variables/SPEC", "title": "Version-agnostic anchor resource for SDTM variable RELSPEC.SPEC", "type": "Root Data Element"}, "self": {"href": "/mdr/sdtm/2-0/datasets/RELSPEC/variables/SPEC", "title": "Specimen Type", "type": "SDTM Dataset Variable"}}, "definition": "The type of sample material taken from a biological entity.", "label": "Specimen Type", "name": "SPEC", "ordinal": "4", "role": "Variable Qualifier", "simpleDatatype": "Char", "variableCcode": "C70713"}, {"_links": {"parentDataset": {"href": "/mdr/sdtm/2-0/datasets/RELSPEC", "title": "Related Specimens", "type": "SDTM Dataset"}, "parentProduct": {"href": "/mdr/sdtm/2-0", "title": "Study Data Tabulation Model Version 2.0", "type": "Foundational Model"}, "rootItem": {"href": "/mdr/root/sdtm/datasets/RELSPEC/variables/PARENT", "title": "Version-agnostic anchor resource for SDTM variable RELSPEC.PARENT", "type": "Root Data Element"}, "self": {"href": "/mdr/sdtm/2-0/datasets/RELSPEC/variables/PARENT", "title": "Specimen Parent", "type": "SDTM Dataset Variable"}}, "label": "Specimen Parent", "name": "PARENT", "notes": "Identifies the REFID of the parent of a specimen to support tracking its genealogy.", "ordinal": "5", "role": "Identifier", "simpleDatatype": "Char"}, {"_links": {"parentDataset": {"href": "/mdr/sdtm/2-0/datasets/RELSPEC", "title": "Related Specimens", "type": "SDTM Dataset"}, "parentProduct": {"href": "/mdr/sdtm/2-0", "title": "Study Data Tabulation Model Version 2.0", "type": "Foundational Model"}, "qualifiesVariables": [{"href": "/mdr/sdtm/2-0/datasets/RELSPEC/variables/REFID", "title": "Reference ID", "type": "SDTM Dataset Variable"}], "rootItem": {"href": "/mdr/root/sdtm/datasets/RELSPEC/variables/LEVEL", "title": "Version-agnostic anchor resource for SDTM variable RELSPEC.LEVEL", "type": "Root Data Element"}, "self": {"href": "/mdr/sdtm/2-0/datasets/RELSPEC/variables/LEVEL", "title": "Specimen Level", "type": "SDTM Dataset Variable"}}, "label": "Specimen Level", "name": "LEVEL", "notes": "Identifies the generation number of the sample where the collected sample is considered the first generation.", "ordinal": "6", "role": "Variable Qualifier", "simpleDatatype": "Num"}], "description": "A dataset used to represent relationships between specimens.", "label": "Related Specimens", "name": "RELSPEC", "ordinal": "26"}], "description": "This SDTM class provides a means to link related records between datasets. It includes the RELREC and SUPPQUAL datasets. (Source: CDISC Controlled Terminology, GNRLOBSC, RELATIONSHIP, 2021-09-24)", "label": "Relationship", "name": "Relationship", "ordinal": "10"}
