{"_links": {"parentProduct": {"href": "/mdr/sdtm/2-0", "title": "Study Data Tabulation Model Version 2.0", "type": "Foundational Model"}, "priorVersion": {"href": "/mdr/sdtm/1-8/classes/SpecialPurpose", "title": "Special-Purpose Datasets", "type": "Class"}, "self": {"href": "/mdr/sdtm/2-0/classes/SpecialPurpose", "title": "Special-Purpose", "type": "Class"}}, "datasets": [{"_links": {"parentClass": {"href": "/mdr/sdtm/2-0/classes/SpecialPurpose", "title": "Special-Purpose", "type": "Class"}, "parentProduct": {"href": "/mdr/sdtm/2-0", "title": "Study Data Tabulation Model Version 2.0", "type": "Foundational Model"}, "priorVersion": {"href": "/mdr/sdtm/1-8/datasets/DM", "title": "Demographics", "type": "SDTM Dataset"}, "self": {"href": "/mdr/sdtm/2-0/datasets/DM", "title": "Demographics", "type": "SDTM Dataset"}}, "datasetStructure": null, "datasetVariables": [{"_links": {"parentDataset": {"href": "/mdr/sdtm/2-0/datasets/DM", "title": "Demographics", "type": "SDTM Dataset"}, "parentProduct": {"href": "/mdr/sdtm/2-0", "title": "Study Data Tabulation Model Version 2.0", "type": "Foundational Model"}, "priorVersion": {"href": "/mdr/sdtm/1-8/datasets/DM/variables/STUDYID", "title": "Study Identifier", "type": "SDTM Dataset Variable"}, "rootItem": {"href": "/mdr/root/sdtm/datasets/DM/variables/STUDYID", "title": "Version-agnostic anchor resource for SDTM variable DM.STUDYID", "type": "Root Data Element"}, "self": {"href": "/mdr/sdtm/2-0/datasets/DM/variables/STUDYID", "title": "Study Identifier", "type": "SDTM Dataset Variable"}}, "definition": "A sequence of characters used by the sponsor to uniquely identify the study.", "label": "Study Identifier", "name": "STUDYID", "ordinal": "1", "role": "Identifier", "simpleDatatype": "Char", "variableCcode": "C83082"}, {"_links": {"parentDataset": {"href": "/mdr/sdtm/2-0/datasets/DM", "title": "Demographics", "type": "SDTM Dataset"}, "parentProduct": {"href": "/mdr/sdtm/2-0", "title": "Study Data Tabulation Model Version 2.0", "type": "Foundational Model"}, "priorVersion": {"href": "/mdr/sdtm/1-8/datasets/DM/variables/DOMAIN", "title": "Domain Abbreviation", "type": "SDTM Dataset Variable"}, "rootItem": {"href": "/mdr/root/sdtm/datasets/DM/variables/DOMAIN", "title": "Version-agnostic anchor resource for SDTM variable DM.DOMAIN", "type": "Root Data Element"}, "self": {"href": "/mdr/sdtm/2-0/datasets/DM/variables/DOMAIN", "title": "Domain Abbreviation", "type": "SDTM Dataset Variable"}}, "definition": "An abbreviation for a collection of observations, with a topic-specific commonality.", "label": "Domain Abbreviation", "name": "DOMAIN", "notes": "2-character abbreviation, which must be \"DM\".", "ordinal": "2", "role": "Identifier", "simpleDatatype": "Char", "variableCcode": "C49558"}, {"_links": {"parentDataset": {"href": "/mdr/sdtm/2-0/datasets/DM", "title": "Demographics", "type": "SDTM Dataset"}, "parentProduct": {"href": "/mdr/sdtm/2-0", "title": "Study Data Tabulation Model Version 2.0", "type": "Foundational Model"}, "priorVersion": {"href": "/mdr/sdtm/1-8/datasets/DM/variables/USUBJID", "title": "Unique Subject Identifier", "type": "SDTM Dataset Variable"}, "rootItem": {"href": "/mdr/root/sdtm/datasets/DM/variables/USUBJID", "title": "Version-agnostic anchor resource for SDTM variable DM.USUBJID", "type": "Root Data Element"}, "self": {"href": "/mdr/sdtm/2-0/datasets/DM/variables/USUBJID", "title": "Unique Subject Identifier", "type": "SDTM Dataset Variable"}}, "definition": "A sequence of characters used to uniquely identify a subject across all studies for all applications or submissions involving the product.", "label": "Unique Subject Identifier", "name": "USUBJID", "ordinal": "3", "role": "Identifier", "simpleDatatype": "Char", "variableCcode": "C69256"}, {"_links": {"parentDataset": {"href": "/mdr/sdtm/2-0/datasets/DM", "title": "Demographics", "type": "SDTM Dataset"}, "parentProduct": {"href": "/mdr/sdtm/2-0", "title": "Study Data Tabulation Model Version 2.0", "type": "Foundational Model"}, "priorVersion": {"href": "/mdr/sdtm/1-8/datasets/DM/variables/SUBJID", "title": "Subject Identifier for the Study", "type": "SDTM Dataset Variable"}, "rootItem": {"href": "/mdr/root/sdtm/datasets/DM/variables/SUBJID", "title": "Version-agnostic anchor resource for SDTM variable DM.SUBJID", "type": "Root Data Element"}, "self": {"href": "/mdr/sdtm/2-0/datasets/DM/variables/SUBJID", "title": "Subject Identifier for the Study", "type": "SDTM Dataset Variable"}}, "label": "Subject Identifier for the Study", "name": "SUBJID", "notes": "Subject identifier, which must be unique within the study. Often the ID of the subject as recorded on a CRF.", "ordinal": "4", "role": "Topic", "simpleDatatype": "Char"}, {"_links": {"parentDataset": {"href": "/mdr/sdtm/2-0/datasets/DM", "title": "Demographics", "type": "SDTM Dataset"}, "parentProduct": {"href": "/mdr/sdtm/2-0", "title": "Study Data Tabulation Model Version 2.0", "type": "Foundational Model"}, "priorVersion": {"href": "/mdr/sdtm/1-8/datasets/DM/variables/RFSTDTC", "title": "Subject Reference Start Date/Time", "type": "SDTM Dataset Variable"}, "rootItem": {"href": "/mdr/root/sdtm/datasets/DM/variables/RFSTDTC", "title": "Version-agnostic anchor resource for SDTM variable DM.RFSTDTC", "type": "Root Data Element"}, "self": {"href": "/mdr/sdtm/2-0/datasets/DM/variables/RFSTDTC", "title": "Subject Reference Start Date/Time", "type": "SDTM Dataset Variable"}}, "definition": "The start date or date and time of the sponsor-defined study reference period, represented in a standardized character format.", "describedValueDomain": "ISO 8601 datetime or interval", "label": "Subject Reference Start Date/Time", "name": "RFSTDTC", "notes": "Usually equivalent to date/time when subject was first exposed to study treatment. Required for all randomized subjects; will be null for all subjects who did not meet the milestone the date requires, such as screen failures or unassigned subjects.", "ordinal": "5", "role": "Record Qualifier", "simpleDatatype": "Char", "variableCcode": "C83395"}, {"_links": {"parentDataset": {"href": "/mdr/sdtm/2-0/datasets/DM", "title": "Demographics", "type": "SDTM Dataset"}, "parentProduct": {"href": "/mdr/sdtm/2-0", "title": "Study Data Tabulation Model Version 2.0", "type": "Foundational Model"}, "priorVersion": {"href": "/mdr/sdtm/1-8/datasets/DM/variables/RFENDTC", "title": "Subject Reference End Date/Time", "type": "SDTM Dataset Variable"}, "rootItem": {"href": "/mdr/root/sdtm/datasets/DM/variables/RFENDTC", "title": "Version-agnostic anchor resource for SDTM variable DM.RFENDTC", "type": "Root Data Element"}, "self": {"href": "/mdr/sdtm/2-0/datasets/DM/variables/RFENDTC", "title": "Subject Reference End Date/Time", "type": "SDTM Dataset Variable"}}, "definition": "The end date or date and time of the sponsor-defined study reference period, represented in a standardized character format.", "describedValueDomain": "ISO 8601 datetime or interval", "label": "Subject Reference End Date/Time", "name": "RFENDTC", "notes": "Usually equivalent to the date/time when a subject was determined to have ended the trial. Often equivalent to either date/time of last exposure to study treatment or date/time of last contact with the subject. Required for all randomized subjects; null for screen failures or unassigned subjects.", "ordinal": "6", "role": "Record Qualifier", "simpleDatatype": "Char", "variableCcode": "C83394"}, {"_links": {"parentDataset": {"href": "/mdr/sdtm/2-0/datasets/DM", "title": "Demographics", "type": "SDTM Dataset"}, "parentProduct": {"href": "/mdr/sdtm/2-0", "title": "Study Data Tabulation Model Version 2.0", "type": "Foundational Model"}, "priorVersion": {"href": "/mdr/sdtm/1-8/datasets/DM/variables/RFXSTDTC", "title": "Date/Time of First Study Treatment", "type": "SDTM Dataset Variable"}, "rootItem": {"href": "/mdr/root/sdtm/datasets/DM/variables/RFXSTDTC", "title": "Version-agnostic anchor resource for SDTM variable DM.RFXSTDTC", "type": "Root Data Element"}, "self": {"href": "/mdr/sdtm/2-0/datasets/DM/variables/RFXSTDTC", "title": "Date/Time of First Study Treatment", "type": "SDTM Dataset Variable"}}, "definition": "The start date or date and time of the first exposure to any protocol-specified treatment or therapy, represented in a standardized character format.", "describedValueDomain": "ISO 8601 datetime or interval", "label": "Date/Time of First Study Treatment", "name": "RFXSTDTC", "ordinal": "7", "role": "Record Qualifier", "simpleDatatype": "Char", "variableCcode": "C170502"}, {"_links": {"parentDataset": {"href": "/mdr/sdtm/2-0/datasets/DM", "title": "Demographics", "type": "SDTM Dataset"}, "parentProduct": {"href": "/mdr/sdtm/2-0", "title": "Study Data Tabulation Model Version 2.0", "type": "Foundational Model"}, "priorVersion": {"href": "/mdr/sdtm/1-8/datasets/DM/variables/RFXENDTC", "title": "Date/Time of Last Study Treatment", "type": "SDTM Dataset Variable"}, "rootItem": {"href": "/mdr/root/sdtm/datasets/DM/variables/RFXENDTC", "title": "Version-agnostic anchor resource for SDTM variable DM.RFXENDTC", "type": "Root Data Element"}, "self": {"href": "/mdr/sdtm/2-0/datasets/DM/variables/RFXENDTC", "title": "Date/Time of Last Study Treatment", "type": "SDTM Dataset Variable"}}, "definition": "The end date or date and time of the last exposure to any protocol-specified treatment or therapy, represented in a standardized character format.", "describedValueDomain": "ISO 8601 datetime or interval", "label": "Date/Time of Last Study Treatment", "name": "RFXENDTC", "ordinal": "8", "role": "Record Qualifier", "simpleDatatype": "Char", "variableCcode": "C170501"}, {"_links": {"parentDataset": {"href": "/mdr/sdtm/2-0/datasets/DM", "title": "Demographics", "type": "SDTM Dataset"}, "parentProduct": {"href": "/mdr/sdtm/2-0", "title": "Study Data Tabulation Model Version 2.0", "type": "Foundational Model"}, "priorVersion": {"href": "/mdr/sdtm/1-8/datasets/DM/variables/RFCSTDTC", "title": "Date/Time of First Challenge Agent Admin", "type": "SDTM Dataset Variable"}, "rootItem": {"href": "/mdr/root/sdtm/datasets/DM/variables/RFCSTDTC", "title": "Version-agnostic anchor resource for SDTM variable DM.RFCSTDTC", "type": "Root Data Element"}, "self": {"href": "/mdr/sdtm/2-0/datasets/DM/variables/RFCSTDTC", "title": "Date/Time of First Challenge Agent Admin", "type": "SDTM Dataset Variable"}}, "describedValueDomain": "ISO 8601 datetime or interval", "label": "Date/Time of First Challenge Agent Admin", "name": "RFCSTDTC", "notes": "The start date or date and time of the first exposure to any protocol-specified challenge agent that induces the disease or condition that the investigational treatment is intended to cure, mitigate, treat, or prevent, represented in a standardized character format. \\n Equal to the earliest value of AGSTDTC for the challenge agent.", "ordinal": "9", "role": "Record Qualifier", "simpleDatatype": "Char"}, {"_links": {"parentDataset": {"href": "/mdr/sdtm/2-0/datasets/DM", "title": "Demographics", "type": "SDTM Dataset"}, "parentProduct": {"href": "/mdr/sdtm/2-0", "title": "Study Data Tabulation Model Version 2.0", "type": "Foundational Model"}, "priorVersion": {"href": "/mdr/sdtm/1-8/datasets/DM/variables/RFCENDTC", "title": "Date/Time of Last Challenge Agent Admin", "type": "SDTM Dataset Variable"}, "rootItem": {"href": "/mdr/root/sdtm/datasets/DM/variables/RFCENDTC", "title": "Version-agnostic anchor resource for SDTM variable DM.RFCENDTC", "type": "Root Data Element"}, "self": {"href": "/mdr/sdtm/2-0/datasets/DM/variables/RFCENDTC", "title": "Date/Time of Last Challenge Agent Admin", "type": "SDTM Dataset Variable"}}, "describedValueDomain": "ISO 8601 datetime or interval", "label": "Date/Time of Last Challenge Agent Admin", "name": "RFCENDTC", "notes": "The end date or date and time of the last exposure to any protocol-specified challenge agent that induces the disease or condition that the investigational treatment is intended to cure, mitigate, treat, or prevent, represented in a standardized character format. \\n Equal to the latest value of AGENDTC for the challenge agent.", "ordinal": "10", "role": "Record Qualifier", "simpleDatatype": "Char"}, {"_links": {"parentDataset": {"href": "/mdr/sdtm/2-0/datasets/DM", "title": "Demographics", "type": "SDTM Dataset"}, "parentProduct": {"href": "/mdr/sdtm/2-0", "title": "Study Data Tabulation Model Version 2.0", "type": "Foundational Model"}, "priorVersion": {"href": "/mdr/sdtm/1-8/datasets/DM/variables/RFICDTC", "title": "Date/Time of Informed Consent", "type": "SDTM Dataset Variable"}, "rootItem": {"href": "/mdr/root/sdtm/datasets/DM/variables/RFICDTC", "title": "Version-agnostic anchor resource for SDTM variable DM.RFICDTC", "type": "Root Data Element"}, "self": {"href": "/mdr/sdtm/2-0/datasets/DM/variables/RFICDTC", "title": "Date/Time of Informed Consent", "type": "SDTM Dataset Variable"}}, "definition": "The date or date and time of informed consent, represented in a standardized character format.", "describedValueDomain": "ISO 8601 datetime or interval", "label": "Date/Time of Informed Consent", "name": "RFICDTC", "ordinal": "11", "role": "Record Qualifier", "simpleDatatype": "Char", "usageRestrictions": "Not in nonclinical trials", "variableCcode": "C117452"}, {"_links": {"parentDataset": {"href": "/mdr/sdtm/2-0/datasets/DM", "title": "Demographics", "type": "SDTM Dataset"}, "parentProduct": {"href": "/mdr/sdtm/2-0", "title": "Study Data Tabulation Model Version 2.0", "type": "Foundational Model"}, "priorVersion": {"href": "/mdr/sdtm/1-8/datasets/DM/variables/RFPENDTC", "title": "Date/Time of End of Participation", "type": "SDTM Dataset Variable"}, "rootItem": {"href": "/mdr/root/sdtm/datasets/DM/variables/RFPENDTC", "title": "Version-agnostic anchor resource for SDTM variable DM.RFPENDTC", "type": "Root Data Element"}, "self": {"href": "/mdr/sdtm/2-0/datasets/DM/variables/RFPENDTC", "title": "Date/Time of End of Participation", "type": "SDTM Dataset Variable"}}, "definition": "The date or date and time of last contact with or information about a subject in a trial, represented in a standardized character format.", "describedValueDomain": "ISO 8601 datetime or interval", "label": "Date/Time of End of Participation", "name": "RFPENDTC", "notes": "Should correspond to the last known date of contact.", "ordinal": "12", "role": "Record Qualifier", "simpleDatatype": "Char", "usageRestrictions": "Not in nonclinical trials", "variableCcode": "C117453"}, {"_links": {"parentDataset": {"href": "/mdr/sdtm/2-0/datasets/DM", "title": "Demographics", "type": "SDTM Dataset"}, "parentProduct": {"href": "/mdr/sdtm/2-0", "title": "Study Data Tabulation Model Version 2.0", "type": "Foundational Model"}, "priorVersion": {"href": "/mdr/sdtm/1-8/datasets/DM/variables/DTHDTC", "title": "Date/Time of Death", "type": "SDTM Dataset Variable"}, "rootItem": {"href": "/mdr/root/sdtm/datasets/DM/variables/DTHDTC", "title": "Version-agnostic anchor resource for SDTM variable DM.DTHDTC", "type": "Root Data Element"}, "self": {"href": "/mdr/sdtm/2-0/datasets/DM/variables/DTHDTC", "title": "Date/Time of Death", "type": "SDTM Dataset Variable"}}, "definition": "The date or date and time of death, represented in a standardized character format.", "describedValueDomain": "ISO 8601 datetime or interval", "label": "Date/Time of Death", "name": "DTHDTC", "notes": "Should represent the date/time that is captured in the clinical-trial database.", "ordinal": "13", "role": "Record Qualifier", "simpleDatatype": "Char", "usageRestrictions": "Not in nonclinical trials", "variableCcode": "C117450"}, {"_links": {"parentDataset": {"href": "/mdr/sdtm/2-0/datasets/DM", "title": "Demographics", "type": "SDTM Dataset"}, "parentProduct": {"href": "/mdr/sdtm/2-0", "title": "Study Data Tabulation Model Version 2.0", "type": "Foundational Model"}, "priorVersion": {"href": "/mdr/sdtm/1-8/datasets/DM/variables/DTHFL", "title": "Subject Death Flag", "type": "SDTM Dataset Variable"}, "rootItem": {"href": "/mdr/root/sdtm/datasets/DM/variables/DTHFL", "title": "Version-agnostic anchor resource for SDTM variable DM.DTHFL", "type": "Root Data Element"}, "self": {"href": "/mdr/sdtm/2-0/datasets/DM/variables/DTHFL", "title": "Subject Death Flag", "type": "SDTM Dataset Variable"}}, "definition": "An indication that the subject died.", "label": "Subject Death Flag", "name": "DTHFL", "notes": "A value of \"Y\" indicates the subject died. Should be \"Y\" or null. Should be populated even when the death date is unknown.", "ordinal": "14", "role": "Record Qualifier", "simpleDatatype": "Char", "usageRestrictions": "Not in nonclinical trials", "variableCcode": "C117451"}, {"_links": {"parentDataset": {"href": "/mdr/sdtm/2-0/datasets/DM", "title": "Demographics", "type": "SDTM Dataset"}, "parentProduct": {"href": "/mdr/sdtm/2-0", "title": "Study Data Tabulation Model Version 2.0", "type": "Foundational Model"}, "priorVersion": {"href": "/mdr/sdtm/1-8/datasets/DM/variables/SITEID", "title": "Study Site Identifier", "type": "SDTM Dataset Variable"}, "rootItem": {"href": "/mdr/root/sdtm/datasets/DM/variables/SITEID", "title": "Version-agnostic anchor resource for SDTM variable DM.SITEID", "type": "Root Data Element"}, "self": {"href": "/mdr/sdtm/2-0/datasets/DM/variables/SITEID", "title": "Study Site Identifier", "type": "SDTM Dataset Variable"}}, "definition": "A sequence of characters used to uniquely identify the facility associated with study-specific activities.", "label": "Study Site Identifier", "name": "SITEID", "ordinal": "15", "role": "Record Qualifier", "simpleDatatype": "Char", "variableCcode": "C83081"}, {"_links": {"parentDataset": {"href": "/mdr/sdtm/2-0/datasets/DM", "title": "Demographics", "type": "SDTM Dataset"}, "parentProduct": {"href": "/mdr/sdtm/2-0", "title": "Study Data Tabulation Model Version 2.0", "type": "Foundational Model"}, "priorVersion": {"href": "/mdr/sdtm/1-8/datasets/DM/variables/INVID", "title": "Investigator Identifier", "type": "SDTM Dataset Variable"}, "rootItem": {"href": "/mdr/root/sdtm/datasets/DM/variables/INVID", "title": "Version-agnostic anchor resource for SDTM variable DM.INVID", "type": "Root Data Element"}, "self": {"href": "/mdr/sdtm/2-0/datasets/DM/variables/INVID", "title": "Investigator Identifier", "type": "SDTM Dataset Variable"}}, "label": "Investigator Identifier", "name": "INVID", "notes": "An identifier to describe the Investigator for the study. May be used in addition to the SITEID. Not needed if SITEID is equivalent to INVID.", "ordinal": "16", "role": "Record Qualifier", "simpleDatatype": "Char", "usageRestrictions": "Not in nonclinical trials"}, {"_links": {"parentDataset": {"href": "/mdr/sdtm/2-0/datasets/DM", "title": "Demographics", "type": "SDTM Dataset"}, "parentProduct": {"href": "/mdr/sdtm/2-0", "title": "Study Data Tabulation Model Version 2.0", "type": "Foundational Model"}, "priorVersion": {"href": "/mdr/sdtm/1-8/datasets/DM/variables/INVNAM", "title": "Investigator Name", "type": "SDTM Dataset Variable"}, "qualifiesVariables": [{"href": "/mdr/sdtm/2-0/datasets/DM/variables/INVID", "title": "Investigator Identifier", "type": "SDTM Dataset Variable"}], "rootItem": {"href": "/mdr/root/sdtm/datasets/DM/variables/INVNAM", "title": "Version-agnostic anchor resource for SDTM variable DM.INVNAM", "type": "Root Data Element"}, "self": {"href": "/mdr/sdtm/2-0/datasets/DM/variables/INVNAM", "title": "Investigator Name", "type": "SDTM Dataset Variable"}}, "label": "Investigator Name", "name": "INVNAM", "notes": "Name of the investigator for a site.", "ordinal": "17", "role": "Synonym Qualifier", "simpleDatatype": "Char", "usageRestrictions": "Not in nonclinical trials"}, {"_links": {"parentDataset": {"href": "/mdr/sdtm/2-0/datasets/DM", "title": "Demographics", "type": "SDTM Dataset"}, "parentProduct": {"href": "/mdr/sdtm/2-0", "title": "Study Data Tabulation Model Version 2.0", "type": "Foundational Model"}, "priorVersion": {"href": "/mdr/sdtm/1-8/datasets/DM/variables/BRTHDTC", "title": "Date/Time of Birth", "type": "SDTM Dataset Variable"}, "rootItem": {"href": "/mdr/root/sdtm/datasets/DM/variables/BRTHDTC", "title": "Version-agnostic anchor resource for SDTM variable DM.BRTHDTC", "type": "Root Data Element"}, "self": {"href": "/mdr/sdtm/2-0/datasets/DM/variables/BRTHDTC", "title": "Date/Time of Birth", "type": "SDTM Dataset Variable"}}, "definition": "The date or date and time of birth, represented in a standardized character format.", "describedValueDomain": "ISO 8601 datetime or interval", "label": "Date/Time of Birth", "name": "BRTHDTC", "ordinal": "18", "role": "Record Qualifier", "simpleDatatype": "Char", "variableCcode": "C83217"}, {"_links": {"parentDataset": {"href": "/mdr/sdtm/2-0/datasets/DM", "title": "Demographics", "type": "SDTM Dataset"}, "parentProduct": {"href": "/mdr/sdtm/2-0", "title": "Study Data Tabulation Model Version 2.0", "type": "Foundational Model"}, "priorVersion": {"href": "/mdr/sdtm/1-8/datasets/DM/variables/AGE", "title": "Age", "type": "SDTM Dataset Variable"}, "rootItem": {"href": "/mdr/root/sdtm/datasets/DM/variables/AGE", "title": "Version-agnostic anchor resource for SDTM variable DM.AGE", "type": "Root Data Element"}, "self": {"href": "/mdr/sdtm/2-0/datasets/DM/variables/AGE", "title": "Age", "type": "SDTM Dataset Variable"}}, "definition": "A numeric representation of the elapsed time since birth at a specific point in time defined for the trial, used for study data tabulation.", "label": "Age", "name": "AGE", "notes": "May be derived as (RFSTDTC-BRTHDTC), but BRTHDTC may not be available in all cases (due to subject privacy concerns).", "ordinal": "19", "role": "Record Qualifier", "simpleDatatype": "Num", "variableCcode": "C170981"}, {"_links": {"parentDataset": {"href": "/mdr/sdtm/2-0/datasets/DM", "title": "Demographics", "type": "SDTM Dataset"}, "parentProduct": {"href": "/mdr/sdtm/2-0", "title": "Study Data Tabulation Model Version 2.0", "type": "Foundational Model"}, "priorVersion": {"href": "/mdr/sdtm/1-8/datasets/DM/variables/AGETXT", "title": "Age Text", "type": "SDTM Dataset Variable"}, "rootItem": {"href": "/mdr/root/sdtm/datasets/DM/variables/AGETXT", "title": "Version-agnostic anchor resource for SDTM variable DM.AGETXT", "type": "Root Data Element"}, "self": {"href": "/mdr/sdtm/2-0/datasets/DM/variables/AGETXT", "title": "Age Text", "type": "SDTM Dataset Variable"}}, "definition": "The age at a specific point in time defined for the trial, expressed as a range.", "describedValueDomain": "number-number", "label": "Age Text", "name": "AGETXT", "notes": "The age of the subject at study start, as planned, expressed as a range. If an age integer value is available, then populate the age variable instead. Either the AGE or AGETXT variable should be populated, but not both.", "ordinal": "20", "role": "Record Qualifier", "simpleDatatype": "Char", "variableCcode": "C170982"}, {"_links": {"parentDataset": {"href": "/mdr/sdtm/2-0/datasets/DM", "title": "Demographics", "type": "SDTM Dataset"}, "parentProduct": {"href": "/mdr/sdtm/2-0", "title": "Study Data Tabulation Model Version 2.0", "type": "Foundational Model"}, "priorVersion": {"href": "/mdr/sdtm/1-8/datasets/DM/variables/AGEU", "title": "Age Units", "type": "SDTM Dataset Variable"}, "qualifiesVariables": [{"href": "/mdr/sdtm/2-0/datasets/DM/variables/AGE", "title": "Age", "type": "SDTM Dataset Variable"}, {"href": "/mdr/sdtm/2-0/datasets/DM/variables/AGETXT", "title": "Age Text", "type": "SDTM Dataset Variable"}], "rootItem": {"href": "/mdr/root/sdtm/datasets/DM/variables/AGEU", "title": "Version-agnostic anchor resource for SDTM variable DM.AGEU", "type": "Root Data Element"}, "self": {"href": "/mdr/sdtm/2-0/datasets/DM/variables/AGEU", "title": "Age Units", "type": "SDTM Dataset Variable"}}, "definition": "The unit of time used to express the age, using standardized values.", "label": "Age Units", "name": "AGEU", "ordinal": "21", "role": "Variable Qualifier", "simpleDatatype": "Char", "variableCcode": "C50400"}, {"_links": {"parentDataset": {"href": "/mdr/sdtm/2-0/datasets/DM", "title": "Demographics", "type": "SDTM Dataset"}, "parentProduct": {"href": "/mdr/sdtm/2-0", "title": "Study Data Tabulation Model Version 2.0", "type": "Foundational Model"}, "priorVersion": {"href": "/mdr/sdtm/1-8/datasets/DM/variables/SEX", "title": "Sex", "type": "SDTM Dataset Variable"}, "rootItem": {"href": "/mdr/root/sdtm/datasets/DM/variables/SEX", "title": "Version-agnostic anchor resource for SDTM variable DM.SEX", "type": "Root Data Element"}, "self": {"href": "/mdr/sdtm/2-0/datasets/DM/variables/SEX", "title": "Sex", "type": "SDTM Dataset Variable"}}, "label": "Sex", "name": "SEX", "notes": "Sex of the subject.", "ordinal": "22", "role": "Record Qualifier", "simpleDatatype": "Char"}, {"_links": {"parentDataset": {"href": "/mdr/sdtm/2-0/datasets/DM", "title": "Demographics", "type": "SDTM Dataset"}, "parentProduct": {"href": "/mdr/sdtm/2-0", "title": "Study Data Tabulation Model Version 2.0", "type": "Foundational Model"}, "priorVersion": {"href": "/mdr/sdtm/1-8/datasets/DM/variables/RACE", "title": "Race", "type": "SDTM Dataset Variable"}, "rootItem": {"href": "/mdr/root/sdtm/datasets/DM/variables/RACE", "title": "Version-agnostic anchor resource for SDTM variable DM.RACE", "type": "Root Data Element"}, "self": {"href": "/mdr/sdtm/2-0/datasets/DM/variables/RACE", "title": "Race", "type": "SDTM Dataset Variable"}}, "label": "Race", "name": "RACE", "notes": "Race of the subject. Sponsors should refer to FDA guidance regarding the collection of race data.", "ordinal": "23", "role": "Record Qualifier", "simpleDatatype": "Char", "usageRestrictions": "Not in nonclinical trials"}, {"_links": {"parentDataset": {"href": "/mdr/sdtm/2-0/datasets/DM", "title": "Demographics", "type": "SDTM Dataset"}, "parentProduct": {"href": "/mdr/sdtm/2-0", "title": "Study Data Tabulation Model Version 2.0", "type": "Foundational Model"}, "priorVersion": {"href": "/mdr/sdtm/1-8/datasets/DM/variables/ETHNIC", "title": "Ethnicity", "type": "SDTM Dataset Variable"}, "rootItem": {"href": "/mdr/root/sdtm/datasets/DM/variables/ETHNIC", "title": "Version-agnostic anchor resource for SDTM variable DM.ETHNIC", "type": "Root Data Element"}, "self": {"href": "/mdr/sdtm/2-0/datasets/DM/variables/ETHNIC", "title": "Ethnicity", "type": "SDTM Dataset Variable"}}, "label": "Ethnicity", "name": "ETHNIC", "notes": "The ethnicity of the subject. Sponsors should refer to FDA guidance regarding the collection of ethnicity data.", "ordinal": "24", "role": "Record Qualifier", "simpleDatatype": "Char", "usageRestrictions": "Not in nonclinical trials"}, {"_links": {"parentDataset": {"href": "/mdr/sdtm/2-0/datasets/DM", "title": "Demographics", "type": "SDTM Dataset"}, "parentProduct": {"href": "/mdr/sdtm/2-0", "title": "Study Data Tabulation Model Version 2.0", "type": "Foundational Model"}, "priorVersion": {"href": "/mdr/sdtm/1-8/datasets/DM/variables/SPECIES", "title": "Species", "type": "SDTM Dataset Variable"}, "rootItem": {"href": "/mdr/root/sdtm/datasets/DM/variables/SPECIES", "title": "Version-agnostic anchor resource for SDTM variable DM.SPECIES", "type": "Root Data Element"}, "self": {"href": "/mdr/sdtm/2-0/datasets/DM/variables/SPECIES", "title": "Species", "type": "SDTM Dataset Variable"}}, "definition": "The common (non-taxonomic) name for an animal used as the test system in a study.", "examples": "\"MOUSE\", \"RAT\", \"DOG\", \"MONKEY\"", "label": "Species", "name": "SPECIES", "ordinal": "25", "role": "Record Qualifier", "simpleDatatype": "Char", "usageRestrictions": "Not in human clinical trials", "variableCcode": "C96433"}, {"_links": {"parentDataset": {"href": "/mdr/sdtm/2-0/datasets/DM", "title": "Demographics", "type": "SDTM Dataset"}, "parentProduct": {"href": "/mdr/sdtm/2-0", "title": "Study Data Tabulation Model Version 2.0", "type": "Foundational Model"}, "priorVersion": {"href": "/mdr/sdtm/1-8/datasets/DM/variables/STRAIN", "title": "Strain/Substrain", "type": "SDTM Dataset Variable"}, "rootItem": {"href": "/mdr/root/sdtm/datasets/DM/variables/STRAIN", "title": "Version-agnostic anchor resource for SDTM variable DM.STRAIN", "type": "Root Data Element"}, "self": {"href": "/mdr/sdtm/2-0/datasets/DM/variables/STRAIN", "title": "Strain/Substrain", "type": "SDTM Dataset Variable"}}, "definition": "The vendor-supplied species/strain/substrain designation for the test system under study. It may combine the species, background strain, substrain, and associated genetic modifications as supplied by the vendor (e.g. FISCHER 344, SPRAGUE-DAWLEY IGS, WISTAR Kyoto, BEAGLE, CYNOMOLGUS, RHESUS, CHIMPANZEE).", "examples": "\"C57BL/6\", \"A/J\", \"B6.129-Pparg<tm2Rev>/J\", \"FISCHER 344\", \"SPRAGUE DAWLEY IGS\", \"WISTAR Kyoto\", \"BEAGLE\", \"CYNOMOLGUS\", \"CHIMPANZEE\"", "label": "Strain/Substrain", "name": "STRAIN", "ordinal": "26", "role": "Record Qualifier", "simpleDatatype": "Char", "usageRestrictions": "Not in human clinical trials", "variableCcode": "C14419"}, {"_links": {"parentDataset": {"href": "/mdr/sdtm/2-0/datasets/DM", "title": "Demographics", "type": "SDTM Dataset"}, "parentProduct": {"href": "/mdr/sdtm/2-0", "title": "Study Data Tabulation Model Version 2.0", "type": "Foundational Model"}, "priorVersion": {"href": "/mdr/sdtm/1-8/datasets/DM/variables/SBSTRAIN", "title": "Strain/Substrain Details", "type": "SDTM Dataset Variable"}, "qualifiesVariables": [{"href": "/mdr/sdtm/2-0/datasets/DM/variables/STRAIN", "title": "Strain/Substrain", "type": "SDTM Dataset Variable"}], "rootItem": {"href": "/mdr/root/sdtm/datasets/DM/variables/SBSTRAIN", "title": "Version-agnostic anchor resource for SDTM variable DM.SBSTRAIN", "type": "Root Data Element"}, "self": {"href": "/mdr/sdtm/2-0/datasets/DM/variables/SBSTRAIN", "title": "Strain/Substrain Details", "type": "SDTM Dataset Variable"}}, "definition": "Additional clarifying details regarding the test system under study, such as a description of a phenotypic alteration associated with the specific genetic modification captured or collected in the Strain/Substrain variable.", "label": "Strain/Substrain Details", "name": "SBSTRAIN", "ordinal": "27", "role": "Variable Qualifier", "simpleDatatype": "Char", "usageRestrictions": "Not in human clinical trials", "variableCcode": "C90460"}, {"_links": {"parentDataset": {"href": "/mdr/sdtm/2-0/datasets/DM", "title": "Demographics", "type": "SDTM Dataset"}, "parentProduct": {"href": "/mdr/sdtm/2-0", "title": "Study Data Tabulation Model Version 2.0", "type": "Foundational Model"}, "priorVersion": {"href": "/mdr/sdtm/1-8/datasets/DM/variables/ARMCD", "title": "Planned Arm Code", "type": "SDTM Dataset Variable"}, "rootItem": {"href": "/mdr/root/sdtm/datasets/DM/variables/ARMCD", "title": "Version-agnostic anchor resource for SDTM variable DM.ARMCD", "type": "Root Data Element"}, "self": {"href": "/mdr/sdtm/2-0/datasets/DM/variables/ARMCD", "title": "Planned Arm Code", "type": "SDTM Dataset Variable"}}, "definition": "A short sequence of characters that represents the planned arm to which the subject was assigned.", "label": "Planned Arm Code", "name": "ARMCD", "notes": "Limited to 20 characters.", "ordinal": "28", "role": "Record Qualifier", "simpleDatatype": "Char", "variableCcode": "C83216"}, {"_links": {"parentDataset": {"href": "/mdr/sdtm/2-0/datasets/DM", "title": "Demographics", "type": "SDTM Dataset"}, "parentProduct": {"href": "/mdr/sdtm/2-0", "title": "Study Data Tabulation Model Version 2.0", "type": "Foundational Model"}, "priorVersion": {"href": "/mdr/sdtm/1-8/datasets/DM/variables/ARM", "title": "Description of Planned Arm", "type": "SDTM Dataset Variable"}, "qualifiesVariables": [{"href": "/mdr/sdtm/2-0/datasets/DM/variables/ARMCD", "title": "Planned Arm Code", "type": "SDTM Dataset Variable"}], "rootItem": {"href": "/mdr/root/sdtm/datasets/DM/variables/ARM", "title": "Version-agnostic anchor resource for SDTM variable DM.ARM", "type": "Root Data Element"}, "self": {"href": "/mdr/sdtm/2-0/datasets/DM/variables/ARM", "title": "Description of Planned Arm", "type": "SDTM Dataset Variable"}}, "definition": "The name of the planned arm to which the subject was assigned.", "label": "Description of Planned Arm", "name": "ARM", "ordinal": "29", "role": "Synonym Qualifier", "simpleDatatype": "Char", "variableCcode": "C170984"}, {"_links": {"parentDataset": {"href": "/mdr/sdtm/2-0/datasets/DM", "title": "Demographics", "type": "SDTM Dataset"}, "parentProduct": {"href": "/mdr/sdtm/2-0", "title": "Study Data Tabulation Model Version 2.0", "type": "Foundational Model"}, "priorVersion": {"href": "/mdr/sdtm/1-8/datasets/DM/variables/ACTARMCD", "title": "Actual Arm Code", "type": "SDTM Dataset Variable"}, "rootItem": {"href": "/mdr/root/sdtm/datasets/DM/variables/ACTARMCD", "title": "Version-agnostic anchor resource for SDTM variable DM.ACTARMCD", "type": "Root Data Element"}, "self": {"href": "/mdr/sdtm/2-0/datasets/DM/variables/ACTARMCD", "title": "Actual Arm Code", "type": "SDTM Dataset Variable"}}, "definition": "A short sequence of characters that represents the arm in which the subject actually participated.", "label": "Actual Arm Code", "name": "ACTARMCD", "notes": "Limited to 20 characters.", "ordinal": "30", "role": "Record Qualifier", "simpleDatatype": "Char", "usageRestrictions": "Not in nonclinical trials", "variableCcode": "C117449"}, {"_links": {"parentDataset": {"href": "/mdr/sdtm/2-0/datasets/DM", "title": "Demographics", "type": "SDTM Dataset"}, "parentProduct": {"href": "/mdr/sdtm/2-0", "title": "Study Data Tabulation Model Version 2.0", "type": "Foundational Model"}, "priorVersion": {"href": "/mdr/sdtm/1-8/datasets/DM/variables/ACTARM", "title": "Description of Actual Arm", "type": "SDTM Dataset Variable"}, "qualifiesVariables": [{"href": "/mdr/sdtm/2-0/datasets/DM/variables/ACTARMCD", "title": "Actual Arm Code", "type": "SDTM Dataset Variable"}], "rootItem": {"href": "/mdr/root/sdtm/datasets/DM/variables/ACTARM", "title": "Version-agnostic anchor resource for SDTM variable DM.ACTARM", "type": "Root Data Element"}, "self": {"href": "/mdr/sdtm/2-0/datasets/DM/variables/ACTARM", "title": "Description of Actual Arm", "type": "SDTM Dataset Variable"}}, "definition": "The name of the arm in which the subject actually participated.", "label": "Description of Actual Arm", "name": "ACTARM", "ordinal": "31", "role": "Synonym Qualifier", "simpleDatatype": "Char", "usageRestrictions": "Not in nonclinical trials", "variableCcode": "C117448"}, {"_links": {"parentDataset": {"href": "/mdr/sdtm/2-0/datasets/DM", "title": "Demographics", "type": "SDTM Dataset"}, "parentProduct": {"href": "/mdr/sdtm/2-0", "title": "Study Data Tabulation Model Version 2.0", "type": "Foundational Model"}, "priorVersion": {"href": "/mdr/sdtm/1-8/datasets/DM/variables/ARMNRS", "title": "Reason Arm and/or Actual Arm is Null", "type": "SDTM Dataset Variable"}, "rootItem": {"href": "/mdr/root/sdtm/datasets/DM/variables/ARMNRS", "title": "Version-agnostic anchor resource for SDTM variable DM.ARMNRS", "type": "Root Data Element"}, "self": {"href": "/mdr/sdtm/2-0/datasets/DM/variables/ARMNRS", "title": "Reason Arm and/or Actual Arm is Null", "type": "SDTM Dataset Variable"}}, "examples": "\"SCREEN FAILURE\", \"NOT ASSIGNED\", \"NOT TREATED\", \"UNPLANNED TREATMENT\"", "label": "Reason Arm and/or Actual Arm is Null", "name": "ARMNRS", "notes": "The reason why the actual arm variables are null or why both the planned and actual arm variables are null. It is assumed that if the arm and actual arm variables are null, the same reason applies to both.", "ordinal": "32", "role": "Record Qualifier", "simpleDatatype": "Char"}, {"_links": {"parentDataset": {"href": "/mdr/sdtm/2-0/datasets/DM", "title": "Demographics", "type": "SDTM Dataset"}, "parentProduct": {"href": "/mdr/sdtm/2-0", "title": "Study Data Tabulation Model Version 2.0", "type": "Foundational Model"}, "priorVersion": {"href": "/mdr/sdtm/1-8/datasets/DM/variables/ACTARMUD", "title": "Description of Unplanned Actual Arm", "type": "SDTM Dataset Variable"}, "rootItem": {"href": "/mdr/root/sdtm/datasets/DM/variables/ACTARMUD", "title": "Version-agnostic anchor resource for SDTM variable DM.ACTARMUD", "type": "Root Data Element"}, "self": {"href": "/mdr/sdtm/2-0/datasets/DM/variables/ACTARMUD", "title": "Description of Unplanned Actual Arm", "type": "SDTM Dataset Variable"}}, "label": "Description of Unplanned Actual Arm", "name": "ACTARMUD", "notes": "A description of actual treatment for a subject who did not receive treatment described in one of the planned trial arms.", "ordinal": "33", "role": "Record Qualifier", "simpleDatatype": "Char"}, {"_links": {"parentDataset": {"href": "/mdr/sdtm/2-0/datasets/DM", "title": "Demographics", "type": "SDTM Dataset"}, "parentProduct": {"href": "/mdr/sdtm/2-0", "title": "Study Data Tabulation Model Version 2.0", "type": "Foundational Model"}, "priorVersion": {"href": "/mdr/sdtm/1-8/datasets/DM/variables/SETCD", "title": "Set Code", "type": "SDTM Dataset Variable"}, "rootItem": {"href": "/mdr/root/sdtm/datasets/DM/variables/SETCD", "title": "Version-agnostic anchor resource for SDTM variable DM.SETCD", "type": "Root Data Element"}, "self": {"href": "/mdr/sdtm/2-0/datasets/DM/variables/SETCD", "title": "Set Code", "type": "SDTM Dataset Variable"}}, "definition": "The standardized or dictionary-derived short sequence of characters used to represent the trial set.", "label": "Set Code", "name": "SETCD", "notes": "Defined by the sponsor (see Section 5.1.2, Trial Sets). Maximum of 8 characters. This represents the code for the trial set for which parameters are being submitted.", "ordinal": "34", "role": "Record Qualifier", "simpleDatatype": "Char", "variableCcode": "C117457"}, {"_links": {"parentDataset": {"href": "/mdr/sdtm/2-0/datasets/DM", "title": "Demographics", "type": "SDTM Dataset"}, "parentProduct": {"href": "/mdr/sdtm/2-0", "title": "Study Data Tabulation Model Version 2.0", "type": "Foundational Model"}, "priorVersion": {"href": "/mdr/sdtm/1-8/datasets/DM/variables/RPATHCD", "title": "Planned Repro Path Code", "type": "SDTM Dataset Variable"}, "rootItem": {"href": "/mdr/root/sdtm/datasets/DM/variables/RPATHCD", "title": "Version-agnostic anchor resource for SDTM variable DM.RPATHCD", "type": "Root Data Element"}, "self": {"href": "/mdr/sdtm/2-0/datasets/DM/variables/RPATHCD", "title": "Planned Repro Path Code", "type": "SDTM Dataset Variable"}}, "definition": "A short sequence of characters that represents the planned reproductive path to which the subject was assigned.", "label": "Planned Repro Path Code", "name": "RPATHCD", "notes": "Limited to 20 characters.", "ordinal": "35", "role": "Record Qualifier", "simpleDatatype": "Char", "usageRestrictions": "Not in human clinical trials", "variableCcode": "C170503"}, {"_links": {"parentDataset": {"href": "/mdr/sdtm/2-0/datasets/DM", "title": "Demographics", "type": "SDTM Dataset"}, "parentProduct": {"href": "/mdr/sdtm/2-0", "title": "Study Data Tabulation Model Version 2.0", "type": "Foundational Model"}, "priorVersion": {"href": "/mdr/sdtm/1-8/datasets/DM/variables/COUNTRY", "title": "Country", "type": "SDTM Dataset Variable"}, "rootItem": {"href": "/mdr/root/sdtm/datasets/DM/variables/COUNTRY", "title": "Version-agnostic anchor resource for SDTM variable DM.COUNTRY", "type": "Root Data Element"}, "self": {"href": "/mdr/sdtm/2-0/datasets/DM/variables/COUNTRY", "title": "Country", "type": "SDTM Dataset Variable"}}, "definition": "The country in which the investigational site is located.", "describedValueDomain": "ISO 3166-1 Alpha-3", "label": "Country", "name": "COUNTRY", "ordinal": "36", "role": "Record Qualifier", "simpleDatatype": "Char", "usageRestrictions": "Not in nonclinical trials", "variableCcode": "C170990"}, {"_links": {"parentDataset": {"href": "/mdr/sdtm/2-0/datasets/DM", "title": "Demographics", "type": "SDTM Dataset"}, "parentProduct": {"href": "/mdr/sdtm/2-0", "title": "Study Data Tabulation Model Version 2.0", "type": "Foundational Model"}, "priorVersion": {"href": "/mdr/sdtm/1-8/datasets/DM/variables/DMDTC", "title": "Date/Time of Collection", "type": "SDTM Dataset Variable"}, "rootItem": {"href": "/mdr/root/sdtm/datasets/DM/variables/DMDTC", "title": "Version-agnostic anchor resource for SDTM variable DM.DMDTC", "type": "Root Data Element"}, "self": {"href": "/mdr/sdtm/2-0/datasets/DM/variables/DMDTC", "title": "Date/Time of Collection", "type": "SDTM Dataset Variable"}}, "definition": "The date or date and time of demographic data collection, represented in a standardized character format.", "describedValueDomain": "ISO 8601 datetime or interval", "label": "Date/Time of Collection", "name": "DMDTC", "ordinal": "37", "role": "Timing", "simpleDatatype": "Char", "variableCcode": "C83243"}, {"_links": {"parentDataset": {"href": "/mdr/sdtm/2-0/datasets/DM", "title": "Demographics", "type": "SDTM Dataset"}, "parentProduct": {"href": "/mdr/sdtm/2-0", "title": "Study Data Tabulation Model Version 2.0", "type": "Foundational Model"}, "priorVersion": {"href": "/mdr/sdtm/1-8/datasets/DM/variables/DMDY", "title": "Study Day of Collection", "type": "SDTM Dataset Variable"}, "rootItem": {"href": "/mdr/root/sdtm/datasets/DM/variables/DMDY", "title": "Version-agnostic anchor resource for SDTM variable DM.DMDY", "type": "Root Data Element"}, "self": {"href": "/mdr/sdtm/2-0/datasets/DM/variables/DMDY", "title": "Study Day of Collection", "type": "SDTM Dataset Variable"}}, "definition": "The actual study day of demographic data collection derived relative to the sponsor-defined reference start date.", "label": "Study Day of Collection", "name": "DMDY", "notes": "The sponsor-defined reference start date is RFSTDTC.", "ordinal": "38", "role": "Timing", "simpleDatatype": "Num", "variableCcode": "C83244"}], "description": "A special-purpose domain that includes a set of essential standard variables that describe each subject in a clinical study. It is the parent domain for all other observations for human clinical subjects.", "label": "Demographics", "name": "DM", "ordinal": "1"}, {"_links": {"parentClass": {"href": "/mdr/sdtm/2-0/classes/SpecialPurpose", "title": "Special-Purpose", "type": "Class"}, "parentProduct": {"href": "/mdr/sdtm/2-0", "title": "Study Data Tabulation Model Version 2.0", "type": "Foundational Model"}, "priorVersion": {"href": "/mdr/sdtm/1-8/datasets/CO", "title": "Comments", "type": "SDTM Dataset"}, "self": {"href": "/mdr/sdtm/2-0/datasets/CO", "title": "Comments", "type": "SDTM Dataset"}}, "datasetStructure": null, "datasetVariables": [{"_links": {"parentDataset": {"href": "/mdr/sdtm/2-0/datasets/CO", "title": "Comments", "type": "SDTM Dataset"}, "parentProduct": {"href": "/mdr/sdtm/2-0", "title": "Study Data Tabulation Model Version 2.0", "type": "Foundational Model"}, "priorVersion": {"href": "/mdr/sdtm/1-8/datasets/CO/variables/STUDYID", "title": "Study Identifier", "type": "SDTM Dataset Variable"}, "rootItem": {"href": "/mdr/root/sdtm/datasets/CO/variables/STUDYID", "title": "Version-agnostic anchor resource for SDTM variable CO.STUDYID", "type": "Root Data Element"}, "self": {"href": "/mdr/sdtm/2-0/datasets/CO/variables/STUDYID", "title": "Study Identifier", "type": "SDTM Dataset Variable"}}, "definition": "A sequence of characters used by the sponsor to uniquely identify the study.", "label": "Study Identifier", "name": "STUDYID", "ordinal": "1", "role": "Identifier", "simpleDatatype": "Char", "variableCcode": "C83082"}, {"_links": {"parentDataset": {"href": "/mdr/sdtm/2-0/datasets/CO", "title": "Comments", "type": "SDTM Dataset"}, "parentProduct": {"href": "/mdr/sdtm/2-0", "title": "Study Data Tabulation Model Version 2.0", "type": "Foundational Model"}, "priorVersion": {"href": "/mdr/sdtm/1-8/datasets/CO/variables/DOMAIN", "title": "Domain Abbreviation", "type": "SDTM Dataset Variable"}, "rootItem": {"href": "/mdr/root/sdtm/datasets/CO/variables/DOMAIN", "title": "Version-agnostic anchor resource for SDTM variable CO.DOMAIN", "type": "Root Data Element"}, "self": {"href": "/mdr/sdtm/2-0/datasets/CO/variables/DOMAIN", "title": "Domain Abbreviation", "type": "SDTM Dataset Variable"}}, "definition": "An abbreviation for a collection of observations, with a topic-specific commonality.", "label": "Domain Abbreviation", "name": "DOMAIN", "notes": "2-character abbreviation, which must be \"CO\".", "ordinal": "2", "role": "Identifier", "simpleDatatype": "Char", "variableCcode": "C49558"}, {"_links": {"parentDataset": {"href": "/mdr/sdtm/2-0/datasets/CO", "title": "Comments", "type": "SDTM Dataset"}, "parentProduct": {"href": "/mdr/sdtm/2-0", "title": "Study Data Tabulation Model Version 2.0", "type": "Foundational Model"}, "priorVersion": {"href": "/mdr/sdtm/1-8/datasets/CO/variables/RDOMAIN", "title": "Related Domain Abbreviation", "type": "SDTM Dataset Variable"}, "rootItem": {"href": "/mdr/root/sdtm/datasets/CO/variables/RDOMAIN", "title": "Version-agnostic anchor resource for SDTM variable CO.RDOMAIN", "type": "Root Data Element"}, "self": {"href": "/mdr/sdtm/2-0/datasets/CO/variables/RDOMAIN", "title": "Related Domain Abbreviation", "type": "SDTM Dataset Variable"}}, "label": "Related Domain Abbreviation", "name": "RDOMAIN", "notes": "Domain abbreviation of the parent record(s). Null for records collected on general comments or additional information section of CRF.", "ordinal": "3", "role": "Record Qualifier", "simpleDatatype": "Char"}, {"_links": {"parentDataset": {"href": "/mdr/sdtm/2-0/datasets/CO", "title": "Comments", "type": "SDTM Dataset"}, "parentProduct": {"href": "/mdr/sdtm/2-0", "title": "Study Data Tabulation Model Version 2.0", "type": "Foundational Model"}, "priorVersion": {"href": "/mdr/sdtm/1-8/datasets/CO/variables/USUBJID", "title": "Unique Subject Identifier", "type": "SDTM Dataset Variable"}, "rootItem": {"href": "/mdr/root/sdtm/datasets/CO/variables/USUBJID", "title": "Version-agnostic anchor resource for SDTM variable CO.USUBJID", "type": "Root Data Element"}, "self": {"href": "/mdr/sdtm/2-0/datasets/CO/variables/USUBJID", "title": "Unique Subject Identifier", "type": "SDTM Dataset Variable"}}, "definition": "A sequence of characters used to uniquely identify a subject across all studies for all applications or submissions involving the product.", "label": "Unique Subject Identifier", "name": "USUBJID", "ordinal": "4", "role": "Identifier", "simpleDatatype": "Char", "variableCcode": "C69256"}, {"_links": {"parentDataset": {"href": "/mdr/sdtm/2-0/datasets/CO", "title": "Comments", "type": "SDTM Dataset"}, "parentProduct": {"href": "/mdr/sdtm/2-0", "title": "Study Data Tabulation Model Version 2.0", "type": "Foundational Model"}, "priorVersion": {"href": "/mdr/sdtm/1-8/datasets/CO/variables/POOLID", "title": "Pool Identifier", "type": "SDTM Dataset Variable"}, "rootItem": {"href": "/mdr/root/sdtm/datasets/CO/variables/POOLID", "title": "Version-agnostic anchor resource for SDTM variable CO.POOLID", "type": "Root Data Element"}, "self": {"href": "/mdr/sdtm/2-0/datasets/CO/variables/POOLID", "title": "Pool Identifier", "type": "SDTM Dataset Variable"}}, "definition": "A sequence of characters used to uniquely identify a group of subjects that have been pooled together.", "label": "Pool Identifier", "name": "POOLID", "notes": "The result is not assignable to any one individual.", "ordinal": "5", "role": "Identifier", "simpleDatatype": "Char", "variableCcode": "C117053"}, {"_links": {"parentDataset": {"href": "/mdr/sdtm/2-0/datasets/CO", "title": "Comments", "type": "SDTM Dataset"}, "parentProduct": {"href": "/mdr/sdtm/2-0", "title": "Study Data Tabulation Model Version 2.0", "type": "Foundational Model"}, "rootItem": {"href": "/mdr/root/sdtm/datasets/CO/variables/SPDEVID", "title": "Version-agnostic anchor resource for SDTM variable CO.SPDEVID", "type": "Root Data Element"}, "self": {"href": "/mdr/sdtm/2-0/datasets/CO/variables/SPDEVID", "title": "Sponsor Device Identifier", "type": "SDTM Dataset Variable"}}, "definition": "A sequence of characters used by the sponsor to uniquely identify a specific device.", "label": "Sponsor Device Identifier", "name": "SPDEVID", "ordinal": "6", "role": "Identifier", "simpleDatatype": "Char", "variableCcode": "C117060"}, {"_links": {"parentDataset": {"href": "/mdr/sdtm/2-0/datasets/CO", "title": "Comments", "type": "SDTM Dataset"}, "parentProduct": {"href": "/mdr/sdtm/2-0", "title": "Study Data Tabulation Model Version 2.0", "type": "Foundational Model"}, "priorVersion": {"href": "/mdr/sdtm/1-8/datasets/CO/variables/COSEQ", "title": "Sequence Number", "type": "SDTM Dataset Variable"}, "rootItem": {"href": "/mdr/root/sdtm/datasets/CO/variables/COSEQ", "title": "Version-agnostic anchor resource for SDTM variable CO.COSEQ", "type": "Root Data Element"}, "self": {"href": "/mdr/sdtm/2-0/datasets/CO/variables/COSEQ", "title": "Sequence Number", "type": "SDTM Dataset Variable"}}, "label": "Sequence Number", "name": "COSEQ", "notes": "Sequence number to ensure uniqueness within the dataset.", "ordinal": "7", "role": "Identifier", "simpleDatatype": "Num"}, {"_links": {"parentDataset": {"href": "/mdr/sdtm/2-0/datasets/CO", "title": "Comments", "type": "SDTM Dataset"}, "parentProduct": {"href": "/mdr/sdtm/2-0", "title": "Study Data Tabulation Model Version 2.0", "type": "Foundational Model"}, "priorVersion": {"href": "/mdr/sdtm/1-8/datasets/CO/variables/IDVAR", "title": "Identifying Variable", "type": "SDTM Dataset Variable"}, "rootItem": {"href": "/mdr/root/sdtm/datasets/CO/variables/IDVAR", "title": "Version-agnostic anchor resource for SDTM variable CO.IDVAR", "type": "Root Data Element"}, "self": {"href": "/mdr/sdtm/2-0/datasets/CO/variables/IDVAR", "title": "Identifying Variable", "type": "SDTM Dataset Variable"}}, "label": "Identifying Variable", "name": "IDVAR", "notes": "Identifying variable in the parent dataset that identifies the record(s) to which the comment applies (e.g., AESEQ, CMGRPID). Used only when individual comments are related to domain records. Null for comments collected on separate CRFs.", "ordinal": "8", "role": "Record Qualifier", "simpleDatatype": "Char"}, {"_links": {"parentDataset": {"href": "/mdr/sdtm/2-0/datasets/CO", "title": "Comments", "type": "SDTM Dataset"}, "parentProduct": {"href": "/mdr/sdtm/2-0", "title": "Study Data Tabulation Model Version 2.0", "type": "Foundational Model"}, "priorVersion": {"href": "/mdr/sdtm/1-8/datasets/CO/variables/IDVARVAL", "title": "Identifying Variable Value", "type": "SDTM Dataset Variable"}, "rootItem": {"href": "/mdr/root/sdtm/datasets/CO/variables/IDVARVAL", "title": "Version-agnostic anchor resource for SDTM variable CO.IDVARVAL", "type": "Root Data Element"}, "self": {"href": "/mdr/sdtm/2-0/datasets/CO/variables/IDVARVAL", "title": "Identifying Variable Value", "type": "SDTM Dataset Variable"}}, "label": "Identifying Variable Value", "name": "IDVARVAL", "notes": "Value of identifying variable of the parent record(s). Null for comments collected on separate CRFs.", "ordinal": "9", "role": "Record Qualifier", "simpleDatatype": "Char"}, {"_links": {"parentDataset": {"href": "/mdr/sdtm/2-0/datasets/CO", "title": "Comments", "type": "SDTM Dataset"}, "parentProduct": {"href": "/mdr/sdtm/2-0", "title": "Study Data Tabulation Model Version 2.0", "type": "Foundational Model"}, "priorVersion": {"href": "/mdr/sdtm/1-8/datasets/CO/variables/COREF", "title": "Comment Reference", "type": "SDTM Dataset Variable"}, "rootItem": {"href": "/mdr/root/sdtm/datasets/CO/variables/COREF", "title": "Version-agnostic anchor resource for SDTM variable CO.COREF", "type": "Root Data Element"}, "self": {"href": "/mdr/sdtm/2-0/datasets/CO/variables/COREF", "title": "Comment Reference", "type": "SDTM Dataset Variable"}}, "examples": "A CRF page number (e.g., 650), a module name (e.g., \"DEMOG\"), or a combination of information that identifies the reference (e.g., \"650-VITALS-VISIT 2\")", "label": "Comment Reference", "name": "COREF", "notes": "Sponsor-defined reference associated with the comment.", "ordinal": "10", "role": "Record Qualifier", "simpleDatatype": "Char"}, {"_links": {"parentDataset": {"href": "/mdr/sdtm/2-0/datasets/CO", "title": "Comments", "type": "SDTM Dataset"}, "parentProduct": {"href": "/mdr/sdtm/2-0", "title": "Study Data Tabulation Model Version 2.0", "type": "Foundational Model"}, "priorVersion": {"href": "/mdr/sdtm/1-8/datasets/CO/variables/COVAL", "title": "Comment", "type": "SDTM Dataset Variable"}, "rootItem": {"href": "/mdr/root/sdtm/datasets/CO/variables/COVAL", "title": "Version-agnostic anchor resource for SDTM variable CO.COVAL", "type": "Root Data Element"}, "self": {"href": "/mdr/sdtm/2-0/datasets/CO/variables/COVAL", "title": "Comment", "type": "SDTM Dataset Variable"}}, "label": "Comment", "name": "COVAL", "notes": "The text of the comment. Text over 200 characters can be added to additional columns COVAL1-COVALn.", "ordinal": "11", "role": "Topic", "simpleDatatype": "Char"}, {"_links": {"parentDataset": {"href": "/mdr/sdtm/2-0/datasets/CO", "title": "Comments", "type": "SDTM Dataset"}, "parentProduct": {"href": "/mdr/sdtm/2-0", "title": "Study Data Tabulation Model Version 2.0", "type": "Foundational Model"}, "priorVersion": {"href": "/mdr/sdtm/1-8/datasets/CO/variables/COEVAL", "title": "Evaluator", "type": "SDTM Dataset Variable"}, "rootItem": {"href": "/mdr/root/sdtm/datasets/CO/variables/COEVAL", "title": "Version-agnostic anchor resource for SDTM variable CO.COEVAL", "type": "Root Data Element"}, "self": {"href": "/mdr/sdtm/2-0/datasets/CO/variables/COEVAL", "title": "Evaluator", "type": "SDTM Dataset Variable"}}, "examples": "CENTRAL REVIEWER", "label": "Evaluator", "name": "COEVAL", "notes": "Used to describe the originator of the comment.", "ordinal": "12", "role": "Record Qualifier", "simpleDatatype": "Char"}, {"_links": {"parentDataset": {"href": "/mdr/sdtm/2-0/datasets/CO", "title": "Comments", "type": "SDTM Dataset"}, "parentProduct": {"href": "/mdr/sdtm/2-0", "title": "Study Data Tabulation Model Version 2.0", "type": "Foundational Model"}, "priorVersion": {"href": "/mdr/sdtm/1-8/datasets/CO/variables/COEVALID", "title": "Evaluator Identifier", "type": "SDTM Dataset Variable"}, "qualifiesVariables": [{"href": "/mdr/sdtm/2-0/datasets/CO/variables/COEVAL", "title": "Evaluator", "type": "SDTM Dataset Variable"}], "rootItem": {"href": "/mdr/root/sdtm/datasets/CO/variables/COEVALID", "title": "Version-agnostic anchor resource for SDTM variable CO.COEVALID", "type": "Root Data Element"}, "self": {"href": "/mdr/sdtm/2-0/datasets/CO/variables/COEVALID", "title": "Evaluator Identifier", "type": "SDTM Dataset Variable"}}, "examples": "\"RADIOLOGIST1\", \"RADIOLOGIST2\"", "label": "Evaluator Identifier", "name": "COEVALID", "notes": "Used to distinguish multiple evaluators with the same role recorded in --EVAL.", "ordinal": "13", "role": "Variable Qualifier", "simpleDatatype": "Char"}, {"_links": {"parentDataset": {"href": "/mdr/sdtm/2-0/datasets/CO", "title": "Comments", "type": "SDTM Dataset"}, "parentProduct": {"href": "/mdr/sdtm/2-0", "title": "Study Data Tabulation Model Version 2.0", "type": "Foundational Model"}, "priorVersion": {"href": "/mdr/sdtm/1-8/datasets/CO/variables/CODTC", "title": "Date/Time of Comment", "type": "SDTM Dataset Variable"}, "rootItem": {"href": "/mdr/root/sdtm/datasets/CO/variables/CODTC", "title": "Version-agnostic anchor resource for SDTM variable CO.CODTC", "type": "Root Data Element"}, "self": {"href": "/mdr/sdtm/2-0/datasets/CO/variables/CODTC", "title": "Date/Time of Comment", "type": "SDTM Dataset Variable"}}, "describedValueDomain": "ISO 8601 datetime or interval", "label": "Date/Time of Comment", "name": "CODTC", "notes": "Date or date and time of comment on dedicated comment form, if collected. Should be null if this is a child record of another domain or if comment date was not collected.", "ordinal": "14", "role": "Timing", "simpleDatatype": "Char"}, {"_links": {"parentDataset": {"href": "/mdr/sdtm/2-0/datasets/CO", "title": "Comments", "type": "SDTM Dataset"}, "parentProduct": {"href": "/mdr/sdtm/2-0", "title": "Study Data Tabulation Model Version 2.0", "type": "Foundational Model"}, "priorVersion": {"href": "/mdr/sdtm/1-8/datasets/CO/variables/CODY", "title": "Study Day of Comment", "type": "SDTM Dataset Variable"}, "rootItem": {"href": "/mdr/root/sdtm/datasets/CO/variables/CODY", "title": "Version-agnostic anchor resource for SDTM variable CO.CODY", "type": "Root Data Element"}, "self": {"href": "/mdr/sdtm/2-0/datasets/CO/variables/CODY", "title": "Study Day of Comment", "type": "SDTM Dataset Variable"}}, "label": "Study Day of Comment", "name": "CODY", "notes": "Actual study day of the comment, in integer days. The algorithm for calculations must be relative to the sponsor-defined RFSTDTC variable in the Demographics (DM) domain.", "ordinal": "15", "role": "Timing", "simpleDatatype": "Num"}], "description": "A special-purpose domain that contains comments that may be collected alongside other data.", "label": "Comments", "name": "CO", "ordinal": "2"}, {"_links": {"parentClass": {"href": "/mdr/sdtm/2-0/classes/SpecialPurpose", "title": "Special-Purpose", "type": "Class"}, "parentProduct": {"href": "/mdr/sdtm/2-0", "title": "Study Data Tabulation Model Version 2.0", "type": "Foundational Model"}, "priorVersion": {"href": "/mdr/sdtm/1-8/datasets/SE", "title": "Subject Element", "type": "SDTM Dataset"}, "self": {"href": "/mdr/sdtm/2-0/datasets/SE", "title": "Subject Elements", "type": "SDTM Dataset"}}, "datasetStructure": null, "datasetVariables": [{"_links": {"parentDataset": {"href": "/mdr/sdtm/2-0/datasets/SE", "title": "Subject Elements", "type": "SDTM Dataset"}, "parentProduct": {"href": "/mdr/sdtm/2-0", "title": "Study Data Tabulation Model Version 2.0", "type": "Foundational Model"}, "priorVersion": {"href": "/mdr/sdtm/1-8/datasets/SE/variables/STUDYID", "title": "Study Identifier", "type": "SDTM Dataset Variable"}, "rootItem": {"href": "/mdr/root/sdtm/datasets/SE/variables/STUDYID", "title": "Version-agnostic anchor resource for SDTM variable SE.STUDYID", "type": "Root Data Element"}, "self": {"href": "/mdr/sdtm/2-0/datasets/SE/variables/STUDYID", "title": "Study Identifier", "type": "SDTM Dataset Variable"}}, "definition": "A sequence of characters used by the sponsor to uniquely identify the study.", "label": "Study Identifier", "name": "STUDYID", "ordinal": "1", "role": "Identifier", "simpleDatatype": "Char", "variableCcode": "C83082"}, {"_links": {"parentDataset": {"href": "/mdr/sdtm/2-0/datasets/SE", "title": "Subject Elements", "type": "SDTM Dataset"}, "parentProduct": {"href": "/mdr/sdtm/2-0", "title": "Study Data Tabulation Model Version 2.0", "type": "Foundational Model"}, "priorVersion": {"href": "/mdr/sdtm/1-8/datasets/SE/variables/DOMAIN", "title": "Domain Abbreviation", "type": "SDTM Dataset Variable"}, "rootItem": {"href": "/mdr/root/sdtm/datasets/SE/variables/DOMAIN", "title": "Version-agnostic anchor resource for SDTM variable SE.DOMAIN", "type": "Root Data Element"}, "self": {"href": "/mdr/sdtm/2-0/datasets/SE/variables/DOMAIN", "title": "Domain Abbreviation", "type": "SDTM Dataset Variable"}}, "definition": "An abbreviation for a collection of observations, with a topic-specific commonality.", "label": "Domain Abbreviation", "name": "DOMAIN", "notes": "2-character abbreviation, which must be \"SE\".", "ordinal": "2", "role": "Identifier", "simpleDatatype": "Char", "variableCcode": "C49558"}, {"_links": {"parentDataset": {"href": "/mdr/sdtm/2-0/datasets/SE", "title": "Subject Elements", "type": "SDTM Dataset"}, "parentProduct": {"href": "/mdr/sdtm/2-0", "title": "Study Data Tabulation Model Version 2.0", "type": "Foundational Model"}, "priorVersion": {"href": "/mdr/sdtm/1-8/datasets/SE/variables/USUBJID", "title": "Unique Subject Identifier", "type": "SDTM Dataset Variable"}, "rootItem": {"href": "/mdr/root/sdtm/datasets/SE/variables/USUBJID", "title": "Version-agnostic anchor resource for SDTM variable SE.USUBJID", "type": "Root Data Element"}, "self": {"href": "/mdr/sdtm/2-0/datasets/SE/variables/USUBJID", "title": "Unique Subject Identifier", "type": "SDTM Dataset Variable"}}, "definition": "A sequence of characters used to uniquely identify a subject across all studies for all applications or submissions involving the product.", "label": "Unique Subject Identifier", "name": "USUBJID", "ordinal": "3", "role": "Identifier", "simpleDatatype": "Char", "variableCcode": "C69256"}, {"_links": {"parentDataset": {"href": "/mdr/sdtm/2-0/datasets/SE", "title": "Subject Elements", "type": "SDTM Dataset"}, "parentProduct": {"href": "/mdr/sdtm/2-0", "title": "Study Data Tabulation Model Version 2.0", "type": "Foundational Model"}, "priorVersion": {"href": "/mdr/sdtm/1-8/datasets/SE/variables/SESEQ", "title": "Sequence Number", "type": "SDTM Dataset Variable"}, "rootItem": {"href": "/mdr/root/sdtm/datasets/SE/variables/SESEQ", "title": "Version-agnostic anchor resource for SDTM variable SE.SESEQ", "type": "Root Data Element"}, "self": {"href": "/mdr/sdtm/2-0/datasets/SE/variables/SESEQ", "title": "Sequence Number", "type": "SDTM Dataset Variable"}}, "label": "Sequence Number", "name": "SESEQ", "notes": "Sequence number to ensure uniqueness within the dataset. Should be assigned to be in a consistent chronological order.", "ordinal": "4", "role": "Identifier", "simpleDatatype": "Num"}, {"_links": {"parentDataset": {"href": "/mdr/sdtm/2-0/datasets/SE", "title": "Subject Elements", "type": "SDTM Dataset"}, "parentProduct": {"href": "/mdr/sdtm/2-0", "title": "Study Data Tabulation Model Version 2.0", "type": "Foundational Model"}, "priorVersion": {"href": "/mdr/sdtm/1-8/datasets/SE/variables/ETCD", "title": "Element Code", "type": "SDTM Dataset Variable"}, "rootItem": {"href": "/mdr/root/sdtm/datasets/SE/variables/ETCD", "title": "Version-agnostic anchor resource for SDTM variable SE.ETCD", "type": "Root Data Element"}, "self": {"href": "/mdr/sdtm/2-0/datasets/SE/variables/ETCD", "title": "Element Code", "type": "SDTM Dataset Variable"}}, "label": "Element Code", "name": "ETCD", "notes": "ETCD (the companion to ELEMENT) is limited to 8 characters and does not have special character restrictions. These values should be short for ease of use in programming, but it is not expected that ETCD will need to serve as a variable name.", "ordinal": "5", "role": "Topic", "simpleDatatype": "Char"}, {"_links": {"parentDataset": {"href": "/mdr/sdtm/2-0/datasets/SE", "title": "Subject Elements", "type": "SDTM Dataset"}, "parentProduct": {"href": "/mdr/sdtm/2-0", "title": "Study Data Tabulation Model Version 2.0", "type": "Foundational Model"}, "priorVersion": {"href": "/mdr/sdtm/1-8/datasets/SE/variables/ELEMENT", "title": "Description of Element", "type": "SDTM Dataset Variable"}, "qualifiesVariables": [{"href": "/mdr/sdtm/2-0/datasets/SE/variables/ETCD", "title": "Element Code", "type": "SDTM Dataset Variable"}], "rootItem": {"href": "/mdr/root/sdtm/datasets/SE/variables/ELEMENT", "title": "Version-agnostic anchor resource for SDTM variable SE.ELEMENT", "type": "Root Data Element"}, "self": {"href": "/mdr/sdtm/2-0/datasets/SE/variables/ELEMENT", "title": "Description of Element", "type": "SDTM Dataset Variable"}}, "label": "Description of Element", "name": "ELEMENT", "notes": "The name of the element. If ETCD has a value of \"UNPLAN\" then ELEMENT should be null.", "ordinal": "6", "role": "Synonym Qualifier", "simpleDatatype": "Char"}, {"_links": {"parentDataset": {"href": "/mdr/sdtm/2-0/datasets/SE", "title": "Subject Elements", "type": "SDTM Dataset"}, "parentProduct": {"href": "/mdr/sdtm/2-0", "title": "Study Data Tabulation Model Version 2.0", "type": "Foundational Model"}, "priorVersion": {"href": "/mdr/sdtm/1-8/datasets/SE/variables/TAETORD", "title": "Planned Order of Element within Arm", "type": "SDTM Dataset Variable"}, "rootItem": {"href": "/mdr/root/sdtm/datasets/SE/variables/TAETORD", "title": "Version-agnostic anchor resource for SDTM variable SE.TAETORD", "type": "Root Data Element"}, "self": {"href": "/mdr/sdtm/2-0/datasets/SE/variables/TAETORD", "title": "Planned Order of Element within Arm", "type": "SDTM Dataset Variable"}}, "definition": "An assigned numeric identifier that gives the planned order of the element within the trial arm of the study.", "label": "Planned Order of Element within Arm", "name": "TAETORD", "notes": "Value for the element within the subject's assigned arm.", "ordinal": "7", "role": "Timing", "simpleDatatype": "Num", "variableCcode": "C83438"}, {"_links": {"parentDataset": {"href": "/mdr/sdtm/2-0/datasets/SE", "title": "Subject Elements", "type": "SDTM Dataset"}, "parentProduct": {"href": "/mdr/sdtm/2-0", "title": "Study Data Tabulation Model Version 2.0", "type": "Foundational Model"}, "priorVersion": {"href": "/mdr/sdtm/1-8/datasets/SE/variables/EPOCH", "title": "Epoch", "type": "SDTM Dataset Variable"}, "rootItem": {"href": "/mdr/root/sdtm/datasets/SE/variables/EPOCH", "title": "Version-agnostic anchor resource for SDTM variable SE.EPOCH", "type": "Root Data Element"}, "self": {"href": "/mdr/sdtm/2-0/datasets/SE/variables/EPOCH", "title": "Epoch", "type": "SDTM Dataset Variable"}}, "definition": "A time period defined in the protocol with a study-specific purpose.", "label": "Epoch", "name": "EPOCH", "notes": "Value for the element within the subject's assigned arm.", "ordinal": "8", "role": "Timing", "simpleDatatype": "Char", "variableCcode": "C71738"}, {"_links": {"parentDataset": {"href": "/mdr/sdtm/2-0/datasets/SE", "title": "Subject Elements", "type": "SDTM Dataset"}, "parentProduct": {"href": "/mdr/sdtm/2-0", "title": "Study Data Tabulation Model Version 2.0", "type": "Foundational Model"}, "priorVersion": {"href": "/mdr/sdtm/1-8/datasets/SE/variables/SESTDTC", "title": "Start Date/Time of Element", "type": "SDTM Dataset Variable"}, "rootItem": {"href": "/mdr/root/sdtm/datasets/SE/variables/SESTDTC", "title": "Version-agnostic anchor resource for SDTM variable SE.SESTDTC", "type": "Root Data Element"}, "self": {"href": "/mdr/sdtm/2-0/datasets/SE/variables/SESTDTC", "title": "Start Date/Time of Element", "type": "SDTM Dataset Variable"}}, "describedValueDomain": "ISO 8601 datetime or interval", "label": "Start Date/Time of Element", "name": "SESTDTC", "notes": "Start date or start date and time for an element for each subject.", "ordinal": "9", "role": "Timing", "simpleDatatype": "Char"}, {"_links": {"parentDataset": {"href": "/mdr/sdtm/2-0/datasets/SE", "title": "Subject Elements", "type": "SDTM Dataset"}, "parentProduct": {"href": "/mdr/sdtm/2-0", "title": "Study Data Tabulation Model Version 2.0", "type": "Foundational Model"}, "priorVersion": {"href": "/mdr/sdtm/1-8/datasets/SE/variables/SEENDTC", "title": "End Date/Time of Element", "type": "SDTM Dataset Variable"}, "rootItem": {"href": "/mdr/root/sdtm/datasets/SE/variables/SEENDTC", "title": "Version-agnostic anchor resource for SDTM variable SE.SEENDTC", "type": "Root Data Element"}, "self": {"href": "/mdr/sdtm/2-0/datasets/SE/variables/SEENDTC", "title": "End Date/Time of Element", "type": "SDTM Dataset Variable"}}, "describedValueDomain": "ISO 8601 datetime or interval", "label": "End Date/Time of Element", "name": "SEENDTC", "notes": "End date/time of an element for each subject.", "ordinal": "10", "role": "Timing", "simpleDatatype": "Char"}, {"_links": {"parentDataset": {"href": "/mdr/sdtm/2-0/datasets/SE", "title": "Subject Elements", "type": "SDTM Dataset"}, "parentProduct": {"href": "/mdr/sdtm/2-0", "title": "Study Data Tabulation Model Version 2.0", "type": "Foundational Model"}, "rootItem": {"href": "/mdr/root/sdtm/datasets/SE/variables/SESTDY", "title": "Version-agnostic anchor resource for SDTM variable SE.SESTDY", "type": "Root Data Element"}, "self": {"href": "/mdr/sdtm/2-0/datasets/SE/variables/SESTDY", "title": "Study Day of Start of Element", "type": "SDTM Dataset Variable"}}, "label": "Study Day of Start of Element", "name": "SESTDY", "notes": "Study day of start of element relative to the sponsor-defined RFSTDTC.", "ordinal": "11", "role": "Timing", "simpleDatatype": "Num"}, {"_links": {"parentDataset": {"href": "/mdr/sdtm/2-0/datasets/SE", "title": "Subject Elements", "type": "SDTM Dataset"}, "parentProduct": {"href": "/mdr/sdtm/2-0", "title": "Study Data Tabulation Model Version 2.0", "type": "Foundational Model"}, "rootItem": {"href": "/mdr/root/sdtm/datasets/SE/variables/SEENDY", "title": "Version-agnostic anchor resource for SDTM variable SE.SEENDY", "type": "Root Data Element"}, "self": {"href": "/mdr/sdtm/2-0/datasets/SE/variables/SEENDY", "title": "Study Day of End of Element", "type": "SDTM Dataset Variable"}}, "label": "Study Day of End of Element", "name": "SEENDY", "notes": "Study day of end of element relative to the sponsor-defined RFSTDTC. \\n", "ordinal": "12", "role": "Timing", "simpleDatatype": "Num"}, {"_links": {"parentDataset": {"href": "/mdr/sdtm/2-0/datasets/SE", "title": "Subject Elements", "type": "SDTM Dataset"}, "parentProduct": {"href": "/mdr/sdtm/2-0", "title": "Study Data Tabulation Model Version 2.0", "type": "Foundational Model"}, "priorVersion": {"href": "/mdr/sdtm/1-8/datasets/SE/variables/SEUPDES", "title": "Description of Unplanned Element", "type": "SDTM Dataset Variable"}, "qualifiesVariables": [{"href": "/mdr/sdtm/2-0/datasets/SE/variables/ETCD", "title": "Element Code", "type": "SDTM Dataset Variable"}], "rootItem": {"href": "/mdr/root/sdtm/datasets/SE/variables/SEUPDES", "title": "Version-agnostic anchor resource for SDTM variable SE.SEUPDES", "type": "Root Data Element"}, "self": {"href": "/mdr/sdtm/2-0/datasets/SE/variables/SEUPDES", "title": "Description of Unplanned Element", "type": "SDTM Dataset Variable"}}, "label": "Description of Unplanned Element", "name": "SEUPDES", "notes": "Description of what happened to the subject during an unplanned element. Used only if ETCD has the value of \"UNPLAN\".", "ordinal": "13", "role": "Synonym Qualifier", "simpleDatatype": "Char"}], "description": "A special-purpose domain that contains the actual order of elements followed by the subject, together with the start date/time and end date/time for each element.", "label": "Subject Elements", "name": "SE", "ordinal": "3"}, {"_links": {"parentClass": {"href": "/mdr/sdtm/2-0/classes/SpecialPurpose", "title": "Special-Purpose", "type": "Class"}, "parentProduct": {"href": "/mdr/sdtm/2-0", "title": "Study Data Tabulation Model Version 2.0", "type": "Foundational Model"}, "priorVersion": {"href": "/mdr/sdtm/1-8/datasets/SJ", "title": "Subject Repro Stages", "type": "SDTM Dataset"}, "self": {"href": "/mdr/sdtm/2-0/datasets/SJ", "title": "Subject Repro Stages", "type": "SDTM Dataset"}}, "datasetStructure": null, "datasetVariables": [{"_links": {"parentDataset": {"href": "/mdr/sdtm/2-0/datasets/SJ", "title": "Subject Repro Stages", "type": "SDTM Dataset"}, "parentProduct": {"href": "/mdr/sdtm/2-0", "title": "Study Data Tabulation Model Version 2.0", "type": "Foundational Model"}, "priorVersion": {"href": "/mdr/sdtm/1-8/datasets/SJ/variables/STUDYID", "title": "Study Identifier", "type": "SDTM Dataset Variable"}, "rootItem": {"href": "/mdr/root/sdtm/datasets/SJ/variables/STUDYID", "title": "Version-agnostic anchor resource for SDTM variable SJ.STUDYID", "type": "Root Data Element"}, "self": {"href": "/mdr/sdtm/2-0/datasets/SJ/variables/STUDYID", "title": "Study Identifier", "type": "SDTM Dataset Variable"}}, "definition": "A sequence of characters used by the sponsor to uniquely identify the study.", "label": "Study Identifier", "name": "STUDYID", "ordinal": "1", "role": "Identifier", "simpleDatatype": "Char", "variableCcode": "C83082"}, {"_links": {"parentDataset": {"href": "/mdr/sdtm/2-0/datasets/SJ", "title": "Subject Repro Stages", "type": "SDTM Dataset"}, "parentProduct": {"href": "/mdr/sdtm/2-0", "title": "Study Data Tabulation Model Version 2.0", "type": "Foundational Model"}, "priorVersion": {"href": "/mdr/sdtm/1-8/datasets/SJ/variables/DOMAIN", "title": "Domain Abbreviation", "type": "SDTM Dataset Variable"}, "rootItem": {"href": "/mdr/root/sdtm/datasets/SJ/variables/DOMAIN", "title": "Version-agnostic anchor resource for SDTM variable SJ.DOMAIN", "type": "Root Data Element"}, "self": {"href": "/mdr/sdtm/2-0/datasets/SJ/variables/DOMAIN", "title": "Domain Abbreviation", "type": "SDTM Dataset Variable"}}, "definition": "An abbreviation for a collection of observations, with a topic-specific commonality.", "label": "Domain Abbreviation", "name": "DOMAIN", "notes": "2-character abbreviation, which must be \"SJ\".", "ordinal": "2", "role": "Identifier", "simpleDatatype": "Char", "variableCcode": "C49558"}, {"_links": {"parentDataset": {"href": "/mdr/sdtm/2-0/datasets/SJ", "title": "Subject Repro Stages", "type": "SDTM Dataset"}, "parentProduct": {"href": "/mdr/sdtm/2-0", "title": "Study Data Tabulation Model Version 2.0", "type": "Foundational Model"}, "priorVersion": {"href": "/mdr/sdtm/1-8/datasets/SJ/variables/USUBJID", "title": "Unique Subject Identifier", "type": "SDTM Dataset Variable"}, "rootItem": {"href": "/mdr/root/sdtm/datasets/SJ/variables/USUBJID", "title": "Version-agnostic anchor resource for SDTM variable SJ.USUBJID", "type": "Root Data Element"}, "self": {"href": "/mdr/sdtm/2-0/datasets/SJ/variables/USUBJID", "title": "Unique Subject Identifier", "type": "SDTM Dataset Variable"}}, "definition": "A sequence of characters used to uniquely identify a subject across all studies for all applications or submissions involving the product.", "label": "Unique Subject Identifier", "name": "USUBJID", "ordinal": "3", "role": "Identifier", "simpleDatatype": "Char", "variableCcode": "C69256"}, {"_links": {"parentDataset": {"href": "/mdr/sdtm/2-0/datasets/SJ", "title": "Subject Repro Stages", "type": "SDTM Dataset"}, "parentProduct": {"href": "/mdr/sdtm/2-0", "title": "Study Data Tabulation Model Version 2.0", "type": "Foundational Model"}, "priorVersion": {"href": "/mdr/sdtm/1-8/datasets/SJ/variables/SJSEQ", "title": "Sequence Number", "type": "SDTM Dataset Variable"}, "rootItem": {"href": "/mdr/root/sdtm/datasets/SJ/variables/SJSEQ", "title": "Version-agnostic anchor resource for SDTM variable SJ.SJSEQ", "type": "Root Data Element"}, "self": {"href": "/mdr/sdtm/2-0/datasets/SJ/variables/SJSEQ", "title": "Sequence Number", "type": "SDTM Dataset Variable"}}, "label": "Sequence Number", "name": "SJSEQ", "notes": "Sequence number to ensure uniqueness within the dataset. Should be assigned to be in a consistent chronological order.", "ordinal": "4", "role": "Identifier", "simpleDatatype": "Num", "usageRestrictions": "Not in human clinical trials"}, {"_links": {"parentDataset": {"href": "/mdr/sdtm/2-0/datasets/SJ", "title": "Subject Repro Stages", "type": "SDTM Dataset"}, "parentProduct": {"href": "/mdr/sdtm/2-0", "title": "Study Data Tabulation Model Version 2.0", "type": "Foundational Model"}, "priorVersion": {"href": "/mdr/sdtm/1-8/datasets/SJ/variables/RSTGCD", "title": "Repro Stage Code", "type": "SDTM Dataset Variable"}, "rootItem": {"href": "/mdr/root/sdtm/datasets/SJ/variables/RSTGCD", "title": "Version-agnostic anchor resource for SDTM variable SJ.RSTGCD", "type": "Root Data Element"}, "self": {"href": "/mdr/sdtm/2-0/datasets/SJ/variables/RSTGCD", "title": "Repro Stage Code", "type": "SDTM Dataset Variable"}}, "label": "Repro Stage Code", "name": "RSTGCD", "notes": "Short name of the Repro Stage used for programming and sorting. Maximum 8 characters.", "ordinal": "5", "role": "Topic", "simpleDatatype": "Char", "usageRestrictions": "Not in human clinical trials"}, {"_links": {"parentDataset": {"href": "/mdr/sdtm/2-0/datasets/SJ", "title": "Subject Repro Stages", "type": "SDTM Dataset"}, "parentProduct": {"href": "/mdr/sdtm/2-0", "title": "Study Data Tabulation Model Version 2.0", "type": "Foundational Model"}, "priorVersion": {"href": "/mdr/sdtm/1-8/datasets/SJ/variables/RSTAGE", "title": "Description of Repro Stage", "type": "SDTM Dataset Variable"}, "qualifiesVariables": [{"href": "/mdr/sdtm/2-0/datasets/SJ/variables/RSTGCD", "title": "Repro Stage Code", "type": "SDTM Dataset Variable"}], "rootItem": {"href": "/mdr/root/sdtm/datasets/SJ/variables/RSTAGE", "title": "Version-agnostic anchor resource for SDTM variable SJ.RSTAGE", "type": "Root Data Element"}, "self": {"href": "/mdr/sdtm/2-0/datasets/SJ/variables/RSTAGE", "title": "Description of Repro Stage", "type": "SDTM Dataset Variable"}}, "label": "Description of Repro Stage", "name": "RSTAGE", "notes": "The name of the Repro Stage. If RSTGCD has a value of \"UNPLAN\" then RSTAGE should be null.", "ordinal": "6", "role": "Synonym Qualifier", "simpleDatatype": "Char", "usageRestrictions": "Not in human clinical trials"}, {"_links": {"parentDataset": {"href": "/mdr/sdtm/2-0/datasets/SJ", "title": "Subject Repro Stages", "type": "SDTM Dataset"}, "parentProduct": {"href": "/mdr/sdtm/2-0", "title": "Study Data Tabulation Model Version 2.0", "type": "Foundational Model"}, "priorVersion": {"href": "/mdr/sdtm/1-8/datasets/SJ/variables/SJSTDTC", "title": "Start Date/Time of Repro Stage", "type": "SDTM Dataset Variable"}, "rootItem": {"href": "/mdr/root/sdtm/datasets/SJ/variables/SJSTDTC", "title": "Version-agnostic anchor resource for SDTM variable SJ.SJSTDTC", "type": "Root Data Element"}, "self": {"href": "/mdr/sdtm/2-0/datasets/SJ/variables/SJSTDTC", "title": "Start Date/Time of Repro Stage", "type": "SDTM Dataset Variable"}}, "describedValueDomain": "ISO 8601 datetime or interval", "label": "Start Date/Time of Repro Stage", "name": "SJSTDTC", "notes": "Start date or start date and time for a Repro Stage for each subject.", "ordinal": "7", "role": "Timing", "simpleDatatype": "Char", "usageRestrictions": "Not in human clinical trials"}, {"_links": {"parentDataset": {"href": "/mdr/sdtm/2-0/datasets/SJ", "title": "Subject Repro Stages", "type": "SDTM Dataset"}, "parentProduct": {"href": "/mdr/sdtm/2-0", "title": "Study Data Tabulation Model Version 2.0", "type": "Foundational Model"}, "priorVersion": {"href": "/mdr/sdtm/1-8/datasets/SJ/variables/SJENDTC", "title": "End Date/Time of Repro Stage", "type": "SDTM Dataset Variable"}, "rootItem": {"href": "/mdr/root/sdtm/datasets/SJ/variables/SJENDTC", "title": "Version-agnostic anchor resource for SDTM variable SJ.SJENDTC", "type": "Root Data Element"}, "self": {"href": "/mdr/sdtm/2-0/datasets/SJ/variables/SJENDTC", "title": "End Date/Time of Repro Stage", "type": "SDTM Dataset Variable"}}, "describedValueDomain": "ISO 8601 datetime or interval", "label": "End Date/Time of Repro Stage", "name": "SJENDTC", "notes": "End date/time for a Repro Stage for each subject.", "ordinal": "8", "role": "Timing", "simpleDatatype": "Char", "usageRestrictions": "Not in human clinical trials"}, {"_links": {"parentDataset": {"href": "/mdr/sdtm/2-0/datasets/SJ", "title": "Subject Repro Stages", "type": "SDTM Dataset"}, "parentProduct": {"href": "/mdr/sdtm/2-0", "title": "Study Data Tabulation Model Version 2.0", "type": "Foundational Model"}, "priorVersion": {"href": "/mdr/sdtm/1-8/datasets/SJ/variables/RPHASE", "title": "Repro Phase", "type": "SDTM Dataset Variable"}, "rootItem": {"href": "/mdr/root/sdtm/datasets/SJ/variables/RPHASE", "title": "Version-agnostic anchor resource for SDTM variable SJ.RPHASE", "type": "Root Data Element"}, "self": {"href": "/mdr/sdtm/2-0/datasets/SJ/variables/RPHASE", "title": "Repro Phase", "type": "SDTM Dataset Variable"}}, "label": "Repro Phase", "name": "RPHASE", "notes": "Name of the reproductive phase with which this Repro Stage of the Repro Path is associated.", "ordinal": "9", "role": "Timing", "simpleDatatype": "Char", "usageRestrictions": "Not in human clinical trials"}, {"_links": {"parentDataset": {"href": "/mdr/sdtm/2-0/datasets/SJ", "title": "Subject Repro Stages", "type": "SDTM Dataset"}, "parentProduct": {"href": "/mdr/sdtm/2-0", "title": "Study Data Tabulation Model Version 2.0", "type": "Foundational Model"}, "priorVersion": {"href": "/mdr/sdtm/1-8/datasets/SJ/variables/SJUPDES", "title": "Description of Unplanned Repro Stage", "type": "SDTM Dataset Variable"}, "qualifiesVariables": [{"href": "/mdr/sdtm/2-0/datasets/SJ/variables/RSTGCD", "title": "Repro Stage Code", "type": "SDTM Dataset Variable"}], "rootItem": {"href": "/mdr/root/sdtm/datasets/SJ/variables/SJUPDES", "title": "Version-agnostic anchor resource for SDTM variable SJ.SJUPDES", "type": "Root Data Element"}, "self": {"href": "/mdr/sdtm/2-0/datasets/SJ/variables/SJUPDES", "title": "Description of Unplanned Repro Stage", "type": "SDTM Dataset Variable"}}, "label": "Description of Unplanned Repro Stage", "name": "SJUPDES", "notes": "Description of what happened to the subject during an unplanned Repro Stage. Used only if RSTGCD has the value of \"UNPLAN\".", "ordinal": "10", "role": "Synonym Qualifier", "simpleDatatype": "Char", "usageRestrictions": "Not in human clinical trials"}], "description": "Describes the actual order of reproductive stages that were experienced by the subject, together with the start date/time and end date/time for each reproductive stage.", "label": "Subject Repro Stages", "name": "SJ", "ordinal": "4"}, {"_links": {"parentClass": {"href": "/mdr/sdtm/2-0/classes/SpecialPurpose", "title": "Special-Purpose", "type": "Class"}, "parentProduct": {"href": "/mdr/sdtm/2-0", "title": "Study Data Tabulation Model Version 2.0", "type": "Foundational Model"}, "priorVersion": {"href": "/mdr/sdtm/1-8/datasets/SV", "title": "Subject Visits", "type": "SDTM Dataset"}, "self": {"href": "/mdr/sdtm/2-0/datasets/SV", "title": "Subject Visits", "type": "SDTM Dataset"}}, "datasetStructure": null, "datasetVariables": [{"_links": {"parentDataset": {"href": "/mdr/sdtm/2-0/datasets/SV", "title": "Subject Visits", "type": "SDTM Dataset"}, "parentProduct": {"href": "/mdr/sdtm/2-0", "title": "Study Data Tabulation Model Version 2.0", "type": "Foundational Model"}, "priorVersion": {"href": "/mdr/sdtm/1-8/datasets/SV/variables/STUDYID", "title": "Study Identifier", "type": "SDTM Dataset Variable"}, "rootItem": {"href": "/mdr/root/sdtm/datasets/SV/variables/STUDYID", "title": "Version-agnostic anchor resource for SDTM variable SV.STUDYID", "type": "Root Data Element"}, "self": {"href": "/mdr/sdtm/2-0/datasets/SV/variables/STUDYID", "title": "Study Identifier", "type": "SDTM Dataset Variable"}}, "definition": "A sequence of characters used by the sponsor to uniquely identify the study.", "label": "Study Identifier", "name": "STUDYID", "ordinal": "1", "role": "Identifier", "simpleDatatype": "Char", "variableCcode": "C83082"}, {"_links": {"parentDataset": {"href": "/mdr/sdtm/2-0/datasets/SV", "title": "Subject Visits", "type": "SDTM Dataset"}, "parentProduct": {"href": "/mdr/sdtm/2-0", "title": "Study Data Tabulation Model Version 2.0", "type": "Foundational Model"}, "priorVersion": {"href": "/mdr/sdtm/1-8/datasets/SV/variables/DOMAIN", "title": "Domain Abbreviation", "type": "SDTM Dataset Variable"}, "rootItem": {"href": "/mdr/root/sdtm/datasets/SV/variables/DOMAIN", "title": "Version-agnostic anchor resource for SDTM variable SV.DOMAIN", "type": "Root Data Element"}, "self": {"href": "/mdr/sdtm/2-0/datasets/SV/variables/DOMAIN", "title": "Domain Abbreviation", "type": "SDTM Dataset Variable"}}, "definition": "An abbreviation for a collection of observations, with a topic-specific commonality.", "label": "Domain Abbreviation", "name": "DOMAIN", "notes": "2-character abbreviation, which must be \"SV\".", "ordinal": "2", "role": "Identifier", "simpleDatatype": "Char", "variableCcode": "C49558"}, {"_links": {"parentDataset": {"href": "/mdr/sdtm/2-0/datasets/SV", "title": "Subject Visits", "type": "SDTM Dataset"}, "parentProduct": {"href": "/mdr/sdtm/2-0", "title": "Study Data Tabulation Model Version 2.0", "type": "Foundational Model"}, "priorVersion": {"href": "/mdr/sdtm/1-8/datasets/SV/variables/USUBJID", "title": "Unique Subject Identifier", "type": "SDTM Dataset Variable"}, "rootItem": {"href": "/mdr/root/sdtm/datasets/SV/variables/USUBJID", "title": "Version-agnostic anchor resource for SDTM variable SV.USUBJID", "type": "Root Data Element"}, "self": {"href": "/mdr/sdtm/2-0/datasets/SV/variables/USUBJID", "title": "Unique Subject Identifier", "type": "SDTM Dataset Variable"}}, "definition": "A sequence of characters used to uniquely identify a subject across all studies for all applications or submissions involving the product.", "label": "Unique Subject Identifier", "name": "USUBJID", "ordinal": "3", "role": "Identifier", "simpleDatatype": "Char", "variableCcode": "C69256"}, {"_links": {"parentDataset": {"href": "/mdr/sdtm/2-0/datasets/SV", "title": "Subject Visits", "type": "SDTM Dataset"}, "parentProduct": {"href": "/mdr/sdtm/2-0", "title": "Study Data Tabulation Model Version 2.0", "type": "Foundational Model"}, "priorVersion": {"href": "/mdr/sdtm/1-8/datasets/SV/variables/VISITNUM", "title": "Visit Number", "type": "SDTM Dataset Variable"}, "rootItem": {"href": "/mdr/root/sdtm/datasets/SV/variables/VISITNUM", "title": "Version-agnostic anchor resource for SDTM variable SV.VISITNUM", "type": "Root Data Element"}, "self": {"href": "/mdr/sdtm/2-0/datasets/SV/variables/VISITNUM", "title": "Visit Number", "type": "SDTM Dataset Variable"}}, "definition": "An assigned numeric identifier that aligns to the chronological order of a clinical encounter.", "label": "Visit Number", "name": "VISITNUM", "notes": "Decimal numbering may be useful for inserting unplanned visits. Used for sorting.", "ordinal": "4", "role": "Topic", "simpleDatatype": "Num", "variableCcode": "C83101"}, {"_links": {"parentDataset": {"href": "/mdr/sdtm/2-0/datasets/SV", "title": "Subject Visits", "type": "SDTM Dataset"}, "parentProduct": {"href": "/mdr/sdtm/2-0", "title": "Study Data Tabulation Model Version 2.0", "type": "Foundational Model"}, "priorVersion": {"href": "/mdr/sdtm/1-8/datasets/SV/variables/VISIT", "title": "Visit Name", "type": "SDTM Dataset Variable"}, "qualifiesVariables": [{"href": "/mdr/sdtm/2-0/datasets/SV/variables/VISITNUM", "title": "Visit Number", "type": "SDTM Dataset Variable"}], "rootItem": {"href": "/mdr/root/sdtm/datasets/SV/variables/VISIT", "title": "Version-agnostic anchor resource for SDTM variable SV.VISIT", "type": "Root Data Element"}, "self": {"href": "/mdr/sdtm/2-0/datasets/SV/variables/VISIT", "title": "Visit Name", "type": "SDTM Dataset Variable"}}, "definition": "The label for a protocol-defined clinical encounter.", "label": "Visit Name", "name": "VISIT", "notes": "May be used in addition to VISITNUM and/or VISITDY.", "ordinal": "5", "role": "Synonym Qualifier", "simpleDatatype": "Char", "variableCcode": "C171010"}, {"_links": {"parentDataset": {"href": "/mdr/sdtm/2-0/datasets/SV", "title": "Subject Visits", "type": "SDTM Dataset"}, "parentProduct": {"href": "/mdr/sdtm/2-0", "title": "Study Data Tabulation Model Version 2.0", "type": "Foundational Model"}, "qualifiesVariables": [{"href": "/mdr/sdtm/2-0/datasets/SV/variables/VISITNUM", "title": "Visit Number", "type": "SDTM Dataset Variable"}], "rootItem": {"href": "/mdr/root/sdtm/datasets/SV/variables/SVPRESP", "title": "Version-agnostic anchor resource for SDTM variable SV.SVPRESP", "type": "Root Data Element"}, "self": {"href": "/mdr/sdtm/2-0/datasets/SV/variables/SVPRESP", "title": "Pre-Specified", "type": "SDTM Dataset Variable"}}, "label": "Pre-Specified", "name": "SVPRESP", "notes": "An indication that the visit is planned. Values should be \"Y\" or null.", "ordinal": "6", "role": "Variable Qualifier", "simpleDatatype": "Char"}, {"_links": {"parentDataset": {"href": "/mdr/sdtm/2-0/datasets/SV", "title": "Subject Visits", "type": "SDTM Dataset"}, "parentProduct": {"href": "/mdr/sdtm/2-0", "title": "Study Data Tabulation Model Version 2.0", "type": "Foundational Model"}, "rootItem": {"href": "/mdr/root/sdtm/datasets/SV/variables/SVOCCUR", "title": "Version-agnostic anchor resource for SDTM variable SV.SVOCCUR", "type": "Root Data Element"}, "self": {"href": "/mdr/sdtm/2-0/datasets/SV/variables/SVOCCUR", "title": "Occurrence", "type": "SDTM Dataset Variable"}}, "label": "Occurrence", "name": "SVOCCUR", "notes": "An indication as to whether a prespecified (planned) visit has occurred.", "ordinal": "7", "role": "Record Qualifier", "simpleDatatype": "Char"}, {"_links": {"parentDataset": {"href": "/mdr/sdtm/2-0/datasets/SV", "title": "Subject Visits", "type": "SDTM Dataset"}, "parentProduct": {"href": "/mdr/sdtm/2-0", "title": "Study Data Tabulation Model Version 2.0", "type": "Foundational Model"}, "rootItem": {"href": "/mdr/root/sdtm/datasets/SV/variables/SVREASOC", "title": "Version-agnostic anchor resource for SDTM variable SV.SVREASOC", "type": "Root Data Element"}, "self": {"href": "/mdr/sdtm/2-0/datasets/SV/variables/SVREASOC", "title": "Reason for Occur Value", "type": "SDTM Dataset Variable"}}, "label": "Reason for Occur Value", "name": "SVREASOC", "notes": "The reason for the value in SVOCCUR. If SVOCCUR=\"N\", SVREASOC is the reason the visit did not occur.", "ordinal": "8", "role": "Record Qualifier", "simpleDatatype": "Char"}, {"_links": {"parentDataset": {"href": "/mdr/sdtm/2-0/datasets/SV", "title": "Subject Visits", "type": "SDTM Dataset"}, "parentProduct": {"href": "/mdr/sdtm/2-0", "title": "Study Data Tabulation Model Version 2.0", "type": "Foundational Model"}, "rootItem": {"href": "/mdr/root/sdtm/datasets/SV/variables/SVCNTMOD", "title": "Version-agnostic anchor resource for SDTM variable SV.SVCNTMOD", "type": "Root Data Element"}, "self": {"href": "/mdr/sdtm/2-0/datasets/SV/variables/SVCNTMOD", "title": "Contact Mode", "type": "SDTM Dataset Variable"}}, "examples": "\"IN PERSON\", \"TELEPHONE\", \"IVRS\".", "label": "Contact Mode", "name": "SVCNTMOD", "notes": "The way in which the visit or contact was conducted.", "ordinal": "9", "role": "Record Qualifier", "simpleDatatype": "Char"}, {"_links": {"parentDataset": {"href": "/mdr/sdtm/2-0/datasets/SV", "title": "Subject Visits", "type": "SDTM Dataset"}, "parentProduct": {"href": "/mdr/sdtm/2-0", "title": "Study Data Tabulation Model Version 2.0", "type": "Foundational Model"}, "rootItem": {"href": "/mdr/root/sdtm/datasets/SV/variables/SVEPCHGI", "title": "Version-agnostic anchor resource for SDTM variable SV.SVEPCHGI", "type": "Root Data Element"}, "self": {"href": "/mdr/sdtm/2-0/datasets/SV/variables/SVEPCHGI", "title": "Epi/Pandemic Related Change Indicator", "type": "SDTM Dataset Variable"}}, "label": "Epi/Pandemic Related Change Indicator", "name": "SVEPCHGI", "notes": "Indicates whether the visit was changed due to an epidemic or pandemic.", "ordinal": "10", "role": "Record Qualifier", "simpleDatatype": "Char"}, {"_links": {"parentDataset": {"href": "/mdr/sdtm/2-0/datasets/SV", "title": "Subject Visits", "type": "SDTM Dataset"}, "parentProduct": {"href": "/mdr/sdtm/2-0", "title": "Study Data Tabulation Model Version 2.0", "type": "Foundational Model"}, "priorVersion": {"href": "/mdr/sdtm/1-8/datasets/SV/variables/VISITDY", "title": "Planned Study Day of Visit", "type": "SDTM Dataset Variable"}, "rootItem": {"href": "/mdr/root/sdtm/datasets/SV/variables/VISITDY", "title": "Version-agnostic anchor resource for SDTM variable SV.VISITDY", "type": "Root Data Element"}, "self": {"href": "/mdr/sdtm/2-0/datasets/SV/variables/VISITDY", "title": "Planned Study Day of Visit", "type": "SDTM Dataset Variable"}}, "definition": "The planned study day of a clinical encounter relative to the sponsor-defined reference start date.", "label": "Planned Study Day of Visit", "name": "VISITDY", "notes": "The reference start date is RFSTDTC in Demographics.", "ordinal": "11", "role": "Timing", "simpleDatatype": "Num", "variableCcode": "C171011"}, {"_links": {"parentDataset": {"href": "/mdr/sdtm/2-0/datasets/SV", "title": "Subject Visits", "type": "SDTM Dataset"}, "parentProduct": {"href": "/mdr/sdtm/2-0", "title": "Study Data Tabulation Model Version 2.0", "type": "Foundational Model"}, "priorVersion": {"href": "/mdr/sdtm/1-8/datasets/SV/variables/SVSTDTC", "title": "Start Date/Time of Visit", "type": "SDTM Dataset Variable"}, "rootItem": {"href": "/mdr/root/sdtm/datasets/SV/variables/SVSTDTC", "title": "Version-agnostic anchor resource for SDTM variable SV.SVSTDTC", "type": "Root Data Element"}, "self": {"href": "/mdr/sdtm/2-0/datasets/SV/variables/SVSTDTC", "title": "Start Date/Time of Visit", "type": "SDTM Dataset Variable"}}, "describedValueDomain": "ISO 8601 datetime or interval", "label": "Start Date/Time of Visit", "name": "SVSTDTC", "notes": "Start date or start date and time for a subject's visit.", "ordinal": "12", "role": "Timing", "simpleDatatype": "Char"}, {"_links": {"parentDataset": {"href": "/mdr/sdtm/2-0/datasets/SV", "title": "Subject Visits", "type": "SDTM Dataset"}, "parentProduct": {"href": "/mdr/sdtm/2-0", "title": "Study Data Tabulation Model Version 2.0", "type": "Foundational Model"}, "priorVersion": {"href": "/mdr/sdtm/1-8/datasets/SV/variables/SVENDTC", "title": "End Date/Time of Visit", "type": "SDTM Dataset Variable"}, "rootItem": {"href": "/mdr/root/sdtm/datasets/SV/variables/SVENDTC", "title": "Version-agnostic anchor resource for SDTM variable SV.SVENDTC", "type": "Root Data Element"}, "self": {"href": "/mdr/sdtm/2-0/datasets/SV/variables/SVENDTC", "title": "End Date/Time of Visit", "type": "SDTM Dataset Variable"}}, "describedValueDomain": "ISO 8601 datetime or interval", "label": "End Date/Time of Visit", "name": "SVENDTC", "notes": "End date/time of a subject's visit.", "ordinal": "13", "role": "Timing", "simpleDatatype": "Char"}, {"_links": {"parentDataset": {"href": "/mdr/sdtm/2-0/datasets/SV", "title": "Subject Visits", "type": "SDTM Dataset"}, "parentProduct": {"href": "/mdr/sdtm/2-0", "title": "Study Data Tabulation Model Version 2.0", "type": "Foundational Model"}, "priorVersion": {"href": "/mdr/sdtm/1-8/datasets/SV/variables/SVSTDY", "title": "Study Day of Start of Visit", "type": "SDTM Dataset Variable"}, "rootItem": {"href": "/mdr/root/sdtm/datasets/SV/variables/SVSTDY", "title": "Version-agnostic anchor resource for SDTM variable SV.SVSTDY", "type": "Root Data Element"}, "self": {"href": "/mdr/sdtm/2-0/datasets/SV/variables/SVSTDY", "title": "Study Day of Start of Visit", "type": "SDTM Dataset Variable"}}, "label": "Study Day of Start of Visit", "name": "SVSTDY", "notes": "Study day of start of visit relative to the sponsor-defined RFSTDTC.", "ordinal": "14", "role": "Timing", "simpleDatatype": "Num"}, {"_links": {"parentDataset": {"href": "/mdr/sdtm/2-0/datasets/SV", "title": "Subject Visits", "type": "SDTM Dataset"}, "parentProduct": {"href": "/mdr/sdtm/2-0", "title": "Study Data Tabulation Model Version 2.0", "type": "Foundational Model"}, "priorVersion": {"href": "/mdr/sdtm/1-8/datasets/SV/variables/SVENDY", "title": "Study Day of End of Visit", "type": "SDTM Dataset Variable"}, "rootItem": {"href": "/mdr/root/sdtm/datasets/SV/variables/SVENDY", "title": "Version-agnostic anchor resource for SDTM variable SV.SVENDY", "type": "Root Data Element"}, "self": {"href": "/mdr/sdtm/2-0/datasets/SV/variables/SVENDY", "title": "Study Day of End of Visit", "type": "SDTM Dataset Variable"}}, "label": "Study Day of End of Visit", "name": "SVENDY", "notes": "Study day of end of visit relative to the sponsor-defined RFSTDTC.", "ordinal": "15", "role": "Timing", "simpleDatatype": "Num"}, {"_links": {"parentDataset": {"href": "/mdr/sdtm/2-0/datasets/SV", "title": "Subject Visits", "type": "SDTM Dataset"}, "parentProduct": {"href": "/mdr/sdtm/2-0", "title": "Study Data Tabulation Model Version 2.0", "type": "Foundational Model"}, "priorVersion": {"href": "/mdr/sdtm/1-8/datasets/SV/variables/SVUPDES", "title": "Description of Unplanned Visit", "type": "SDTM Dataset Variable"}, "rootItem": {"href": "/mdr/root/sdtm/datasets/SV/variables/SVUPDES", "title": "Version-agnostic anchor resource for SDTM variable SV.SVUPDES", "type": "Root Data Element"}, "self": {"href": "/mdr/sdtm/2-0/datasets/SV/variables/SVUPDES", "title": "Description of Unplanned Visit", "type": "SDTM Dataset Variable"}}, "label": "Description of Unplanned Visit", "name": "SVUPDES", "notes": "Description of what happened to the subject during an unplanned visit. Null for protocol-defined visits.", "ordinal": "16", "role": "Record Qualifier", "simpleDatatype": "Char"}], "description": "A special purpose domain that contains information for each subject's actual and planned visits.", "label": "Subject Visits", "name": "SV", "ordinal": "5"}, {"_links": {"parentClass": {"href": "/mdr/sdtm/2-0/classes/SpecialPurpose", "title": "Special-Purpose", "type": "Class"}, "parentProduct": {"href": "/mdr/sdtm/2-0", "title": "Study Data Tabulation Model Version 2.0", "type": "Foundational Model"}, "priorVersion": {"href": "/mdr/sdtm/1-8/datasets/SM", "title": "Subject Disease Milestones", "type": "SDTM Dataset"}, "self": {"href": "/mdr/sdtm/2-0/datasets/SM", "title": "Subject Disease Milestones", "type": "SDTM Dataset"}}, "datasetStructure": null, "datasetVariables": [{"_links": {"parentDataset": {"href": "/mdr/sdtm/2-0/datasets/SM", "title": "Subject Disease Milestones", "type": "SDTM Dataset"}, "parentProduct": {"href": "/mdr/sdtm/2-0", "title": "Study Data Tabulation Model Version 2.0", "type": "Foundational Model"}, "priorVersion": {"href": "/mdr/sdtm/1-8/datasets/SM/variables/STUDYID", "title": "Study Identifier", "type": "SDTM Dataset Variable"}, "rootItem": {"href": "/mdr/root/sdtm/datasets/SM/variables/STUDYID", "title": "Version-agnostic anchor resource for SDTM variable SM.STUDYID", "type": "Root Data Element"}, "self": {"href": "/mdr/sdtm/2-0/datasets/SM/variables/STUDYID", "title": "Study Identifier", "type": "SDTM Dataset Variable"}}, "definition": "A sequence of characters used by the sponsor to uniquely identify the study.", "label": "Study Identifier", "name": "STUDYID", "ordinal": "1", "role": "Identifier", "simpleDatatype": "Char", "variableCcode": "C83082"}, {"_links": {"parentDataset": {"href": "/mdr/sdtm/2-0/datasets/SM", "title": "Subject Disease Milestones", "type": "SDTM Dataset"}, "parentProduct": {"href": "/mdr/sdtm/2-0", "title": "Study Data Tabulation Model Version 2.0", "type": "Foundational Model"}, "priorVersion": {"href": "/mdr/sdtm/1-8/datasets/SM/variables/DOMAIN", "title": "Domain", "type": "SDTM Dataset Variable"}, "rootItem": {"href": "/mdr/root/sdtm/datasets/SM/variables/DOMAIN", "title": "Version-agnostic anchor resource for SDTM variable SM.DOMAIN", "type": "Root Data Element"}, "self": {"href": "/mdr/sdtm/2-0/datasets/SM/variables/DOMAIN", "title": "Domain Abbreviation", "type": "SDTM Dataset Variable"}}, "definition": "An abbreviation for a collection of observations, with a topic-specific commonality.", "label": "Domain Abbreviation", "name": "DOMAIN", "notes": "2-character abbreviation, which must be \"SM\".", "ordinal": "2", "role": "Identifier", "simpleDatatype": "Char", "variableCcode": "C49558"}, {"_links": {"parentDataset": {"href": "/mdr/sdtm/2-0/datasets/SM", "title": "Subject Disease Milestones", "type": "SDTM Dataset"}, "parentProduct": {"href": "/mdr/sdtm/2-0", "title": "Study Data Tabulation Model Version 2.0", "type": "Foundational Model"}, "priorVersion": {"href": "/mdr/sdtm/1-8/datasets/SM/variables/USUBJID", "title": "Unique Subject Identifier", "type": "SDTM Dataset Variable"}, "rootItem": {"href": "/mdr/root/sdtm/datasets/SM/variables/USUBJID", "title": "Version-agnostic anchor resource for SDTM variable SM.USUBJID", "type": "Root Data Element"}, "self": {"href": "/mdr/sdtm/2-0/datasets/SM/variables/USUBJID", "title": "Unique Subject Identifier", "type": "SDTM Dataset Variable"}}, "definition": "A sequence of characters used to uniquely identify a subject across all studies for all applications or submissions involving the product.", "label": "Unique Subject Identifier", "name": "USUBJID", "ordinal": "3", "role": "Identifier", "simpleDatatype": "Char", "variableCcode": "C69256"}, {"_links": {"parentDataset": {"href": "/mdr/sdtm/2-0/datasets/SM", "title": "Subject Disease Milestones", "type": "SDTM Dataset"}, "parentProduct": {"href": "/mdr/sdtm/2-0", "title": "Study Data Tabulation Model Version 2.0", "type": "Foundational Model"}, "priorVersion": {"href": "/mdr/sdtm/1-8/datasets/SM/variables/SMSEQ", "title": "Sequence Number", "type": "SDTM Dataset Variable"}, "rootItem": {"href": "/mdr/root/sdtm/datasets/SM/variables/SMSEQ", "title": "Version-agnostic anchor resource for SDTM variable SM.SMSEQ", "type": "Root Data Element"}, "self": {"href": "/mdr/sdtm/2-0/datasets/SM/variables/SMSEQ", "title": "Sequence Number", "type": "SDTM Dataset Variable"}}, "label": "Sequence Number", "name": "SMSEQ", "notes": "Sequence number given to ensure uniqueness of subject records. Should be assigned to be consistent with chronological order.", "ordinal": "4", "role": "Identifier", "simpleDatatype": "Num"}, {"_links": {"parentDataset": {"href": "/mdr/sdtm/2-0/datasets/SM", "title": "Subject Disease Milestones", "type": "SDTM Dataset"}, "parentProduct": {"href": "/mdr/sdtm/2-0", "title": "Study Data Tabulation Model Version 2.0", "type": "Foundational Model"}, "priorVersion": {"href": "/mdr/sdtm/1-8/datasets/SM/variables/MIDS", "title": "Disease Milestone Instance Name", "type": "SDTM Dataset Variable"}, "rootItem": {"href": "/mdr/root/sdtm/datasets/SM/variables/MIDS", "title": "Version-agnostic anchor resource for SDTM variable SM.MIDS", "type": "Root Data Element"}, "self": {"href": "/mdr/sdtm/2-0/datasets/SM/variables/MIDS", "title": "Disease Milestone Instance Name", "type": "SDTM Dataset Variable"}}, "examples": "HYPO1", "label": "Disease Milestone Instance Name", "name": "MIDS", "notes": "Name of the specific disease milestone. For disease milestones that can occur multiple times, the name will end with a sequence number.", "ordinal": "5", "role": "Topic", "simpleDatatype": "Char"}, {"_links": {"parentDataset": {"href": "/mdr/sdtm/2-0/datasets/SM", "title": "Subject Disease Milestones", "type": "SDTM Dataset"}, "parentProduct": {"href": "/mdr/sdtm/2-0", "title": "Study Data Tabulation Model Version 2.0", "type": "Foundational Model"}, "priorVersion": {"href": "/mdr/sdtm/1-8/datasets/SM/variables/MIDSTYPE", "title": "Disease Milestone Type", "type": "SDTM Dataset Variable"}, "rootItem": {"href": "/mdr/root/sdtm/datasets/SM/variables/MIDSTYPE", "title": "Version-agnostic anchor resource for SDTM variable SM.MIDSTYPE", "type": "Root Data Element"}, "self": {"href": "/mdr/sdtm/2-0/datasets/SM/variables/MIDSTYPE", "title": "Disease Milestone Type", "type": "SDTM Dataset Variable"}}, "examples": "HYPOGLYCEMIC EVENT", "label": "Disease Milestone Type", "name": "MIDSTYPE", "notes": "The type of disease milestone.", "ordinal": "6", "role": "Record Qualifier", "simpleDatatype": "Char"}, {"_links": {"parentDataset": {"href": "/mdr/sdtm/2-0/datasets/SM", "title": "Subject Disease Milestones", "type": "SDTM Dataset"}, "parentProduct": {"href": "/mdr/sdtm/2-0", "title": "Study Data Tabulation Model Version 2.0", "type": "Foundational Model"}, "priorVersion": {"href": "/mdr/sdtm/1-8/datasets/SM/variables/SMSTDTC", "title": "Start Date/Time of Milestone", "type": "SDTM Dataset Variable"}, "rootItem": {"href": "/mdr/root/sdtm/datasets/SM/variables/SMSTDTC", "title": "Version-agnostic anchor resource for SDTM variable SM.SMSTDTC", "type": "Root Data Element"}, "self": {"href": "/mdr/sdtm/2-0/datasets/SM/variables/SMSTDTC", "title": "Start Date/Time of Milestone", "type": "SDTM Dataset Variable"}}, "describedValueDomain": "ISO 8601 datetime or interval", "label": "Start Date/Time of Milestone", "name": "SMSTDTC", "notes": "Start date or start date and time of milestone instance (if milestone is an intervention or event), or date of milestone if the milestone is a finding.", "ordinal": "7", "role": "Timing", "simpleDatatype": "Char"}, {"_links": {"parentDataset": {"href": "/mdr/sdtm/2-0/datasets/SM", "title": "Subject Disease Milestones", "type": "SDTM Dataset"}, "parentProduct": {"href": "/mdr/sdtm/2-0", "title": "Study Data Tabulation Model Version 2.0", "type": "Foundational Model"}, "priorVersion": {"href": "/mdr/sdtm/1-8/datasets/SM/variables/SMENDTC", "title": "End Date/Time of Milestone", "type": "SDTM Dataset Variable"}, "rootItem": {"href": "/mdr/root/sdtm/datasets/SM/variables/SMENDTC", "title": "Version-agnostic anchor resource for SDTM variable SM.SMENDTC", "type": "Root Data Element"}, "self": {"href": "/mdr/sdtm/2-0/datasets/SM/variables/SMENDTC", "title": "End Date/Time of Milestone", "type": "SDTM Dataset Variable"}}, "describedValueDomain": "ISO 8601 datetime or interval", "label": "End Date/Time of Milestone", "name": "SMENDTC", "notes": "End date/time of disease milestone Instance.", "ordinal": "8", "role": "Timing", "simpleDatatype": "Char"}, {"_links": {"parentDataset": {"href": "/mdr/sdtm/2-0/datasets/SM", "title": "Subject Disease Milestones", "type": "SDTM Dataset"}, "parentProduct": {"href": "/mdr/sdtm/2-0", "title": "Study Data Tabulation Model Version 2.0", "type": "Foundational Model"}, "priorVersion": {"href": "/mdr/sdtm/1-8/datasets/SM/variables/SMSTDY", "title": "Study Day of Start of Milestone", "type": "SDTM Dataset Variable"}, "rootItem": {"href": "/mdr/root/sdtm/datasets/SM/variables/SMSTDY", "title": "Version-agnostic anchor resource for SDTM variable SM.SMSTDY", "type": "Root Data Element"}, "self": {"href": "/mdr/sdtm/2-0/datasets/SM/variables/SMSTDY", "title": "Study Day of Start of Milestone", "type": "SDTM Dataset Variable"}}, "label": "Study Day of Start of Milestone", "name": "SMSTDY", "notes": "Study day of start of disease milestone instance, relative to the sponsor-defined RFSTDTC.", "ordinal": "9", "role": "Timing", "simpleDatatype": "Num"}, {"_links": {"parentDataset": {"href": "/mdr/sdtm/2-0/datasets/SM", "title": "Subject Disease Milestones", "type": "SDTM Dataset"}, "parentProduct": {"href": "/mdr/sdtm/2-0", "title": "Study Data Tabulation Model Version 2.0", "type": "Foundational Model"}, "priorVersion": {"href": "/mdr/sdtm/1-8/datasets/SM/variables/SMENDY", "title": "Study Day of End of Milestone", "type": "SDTM Dataset Variable"}, "rootItem": {"href": "/mdr/root/sdtm/datasets/SM/variables/SMENDY", "title": "Version-agnostic anchor resource for SDTM variable SM.SMENDY", "type": "Root Data Element"}, "self": {"href": "/mdr/sdtm/2-0/datasets/SM/variables/SMENDY", "title": "Study Day of End of Milestone", "type": "SDTM Dataset Variable"}}, "label": "Study Day of End of Milestone", "name": "SMENDY", "notes": "Study day of end of disease milestone instance, relative to the sponsor-defined RFSTDTC.", "ordinal": "10", "role": "Timing", "simpleDatatype": "Num"}], "description": "A special-purpose domain that is designed to record the timing, for each subject, of disease milestones that have been defined in the Trial Disease Milestones (TM) domain.", "label": "Subject Disease Milestones", "name": "SM", "ordinal": "6"}], "description": "This SDTM class contains a set of domains which do not conform to the Findings, Events or Interventions observation classes. The domains included are DM, CO, SE and SV. (Source: CDISC Controlled Terminology, GNRLOBSC, C103377, 2021-06-25)", "label": "Special-Purpose", "name": "Special-Purpose", "ordinal": "6"}
