{"_links": {"modelDataset": {"href": "/mdr/sdtm/1-3/datasets/DM", "title": "Subject Demographics", "type": "SDTM Dataset"}, "parentClass": {"href": "/mdr/sdtmig/3-1-3/classes/SpecialPurpose", "title": "Special-Purpose Datasets", "type": "Class"}, "parentProduct": {"href": "/mdr/sdtmig/3-1-3", "title": "Study Data Tabulation Model Implementation Guide: Human Clinical Trials Version 3.1.3 (Final)", "type": "Implementation Guide"}, "priorVersion": {"href": "/mdr/sdtmig/3-1-2/datasets/DM", "title": "Demographics", "type": "SDTM Dataset"}, "self": {"href": "/mdr/sdtmig/3-1-3/datasets/DM", "title": "Demographics", "type": "SDTM Dataset"}}, "datasetStructure": "One record per subject", "datasetVariables": [{"_links": {"modelDatasetVariable": {"href": "/mdr/sdtm/1-3/datasets/DM/variables/STUDYID", "title": "Study Identifier", "type": "SDTM Dataset Variable"}, "parentDataset": {"href": "/mdr/sdtmig/3-1-3/datasets/DM", "title": "Demographics", "type": "SDTM Dataset"}, "parentProduct": {"href": "/mdr/sdtmig/3-1-3", "title": "Study Data Tabulation Model Implementation Guide: Human Clinical Trials Version 3.1.3 (Final)", "type": "Implementation Guide"}, "priorVersion": {"href": "/mdr/sdtmig/3-1-2/datasets/DM/variables/STUDYID", "title": "Study Identifier", "type": "SDTM Dataset Variable"}, "rootItem": {"href": "/mdr/root/sdtmig/datasets/DM/variables/STUDYID", "title": "Version-agnostic anchor resource for SDTMIG variable DM.STUDYID", "type": "Root Data Element"}, "self": {"href": "/mdr/sdtmig/3-1-3/datasets/DM/variables/STUDYID", "title": "Study Identifier", "type": "SDTM Dataset Variable"}}, "core": "Req", "description": "Unique identifier for a study.", "label": "Study Identifier", "name": "STUDYID", "ordinal": "1", "role": "Identifier", "simpleDatatype": "Char"}, {"_links": {"modelDatasetVariable": {"href": "/mdr/sdtm/1-3/datasets/DM/variables/DOMAIN", "title": "Domain Abbreviation", "type": "SDTM Dataset Variable"}, "parentDataset": {"href": "/mdr/sdtmig/3-1-3/datasets/DM", "title": "Demographics", "type": "SDTM Dataset"}, "parentProduct": {"href": "/mdr/sdtmig/3-1-3", "title": "Study Data Tabulation Model Implementation Guide: Human Clinical Trials Version 3.1.3 (Final)", "type": "Implementation Guide"}, "priorVersion": {"href": "/mdr/sdtmig/3-1-2/datasets/DM/variables/DOMAIN", "title": "Domain Abbreviation", "type": "SDTM Dataset Variable"}, "rootItem": {"href": "/mdr/root/sdtmig/datasets/DM/variables/DOMAIN", "title": "Version-agnostic anchor resource for SDTMIG variable DM.DOMAIN", "type": "Root Data Element"}, "self": {"href": "/mdr/sdtmig/3-1-3/datasets/DM/variables/DOMAIN", "title": "Domain Abbreviation", "type": "SDTM Dataset Variable"}}, "core": "Req", "description": "Two-character abbreviation for the domain.", "label": "Domain Abbreviation", "name": "DOMAIN", "ordinal": "2", "role": "Identifier", "simpleDatatype": "Char", "valueList": ["DM"]}, {"_links": {"modelDatasetVariable": {"href": "/mdr/sdtm/1-3/datasets/DM/variables/USUBJID", "title": "Unique Subject Identifier", "type": "SDTM Dataset Variable"}, "parentDataset": {"href": "/mdr/sdtmig/3-1-3/datasets/DM", "title": "Demographics", "type": "SDTM Dataset"}, "parentProduct": {"href": "/mdr/sdtmig/3-1-3", "title": "Study Data Tabulation Model Implementation Guide: Human Clinical Trials Version 3.1.3 (Final)", "type": "Implementation Guide"}, "priorVersion": {"href": "/mdr/sdtmig/3-1-2/datasets/DM/variables/USUBJID", "title": "Unique Subject Identifier", "type": "SDTM Dataset Variable"}, "rootItem": {"href": "/mdr/root/sdtmig/datasets/DM/variables/USUBJID", "title": "Version-agnostic anchor resource for SDTMIG variable DM.USUBJID", "type": "Root Data Element"}, "self": {"href": "/mdr/sdtmig/3-1-3/datasets/DM/variables/USUBJID", "title": "Unique Subject Identifier", "type": "SDTM Dataset Variable"}}, "core": "Req", "description": "Identifier used to uniquely identify a subject across all studies for all applications or submissions involving the product. This must be a unique number, and could be a compound identifier formed by concatenating STUDYID-SITEID-SUBJID.", "label": "Unique Subject Identifier", "name": "USUBJID", "ordinal": "3", "role": "Identifier", "simpleDatatype": "Char"}, {"_links": {"modelDatasetVariable": {"href": "/mdr/sdtm/1-3/datasets/DM/variables/SUBJID", "title": "Subject Identifier for the Study", "type": "SDTM Dataset Variable"}, "parentDataset": {"href": "/mdr/sdtmig/3-1-3/datasets/DM", "title": "Demographics", "type": "SDTM Dataset"}, "parentProduct": {"href": "/mdr/sdtmig/3-1-3", "title": "Study Data Tabulation Model Implementation Guide: Human Clinical Trials Version 3.1.3 (Final)", "type": "Implementation Guide"}, "priorVersion": {"href": "/mdr/sdtmig/3-1-2/datasets/DM/variables/SUBJID", "title": "Subject Identifier for the Study", "type": "SDTM Dataset Variable"}, "rootItem": {"href": "/mdr/root/sdtmig/datasets/DM/variables/SUBJID", "title": "Version-agnostic anchor resource for SDTMIG variable DM.SUBJID", "type": "Root Data Element"}, "self": {"href": "/mdr/sdtmig/3-1-3/datasets/DM/variables/SUBJID", "title": "Subject Identifier for the Study", "type": "SDTM Dataset Variable"}}, "core": "Req", "description": "Subject identifier, which must be unique within the study. Often the ID of the subject as recorded on a CRF.", "label": "Subject Identifier for the Study", "name": "SUBJID", "ordinal": "4", "role": "Topic", "simpleDatatype": "Char"}, {"_links": {"modelDatasetVariable": {"href": "/mdr/sdtm/1-3/datasets/DM/variables/RFSTDTC", "title": "Subject Reference Start Date/Time", "type": "SDTM Dataset Variable"}, "parentDataset": {"href": "/mdr/sdtmig/3-1-3/datasets/DM", "title": "Demographics", "type": "SDTM Dataset"}, "parentProduct": {"href": "/mdr/sdtmig/3-1-3", "title": "Study Data Tabulation Model Implementation Guide: Human Clinical Trials Version 3.1.3 (Final)", "type": "Implementation Guide"}, "priorVersion": {"href": "/mdr/sdtmig/3-1-2/datasets/DM/variables/RFSTDTC", "title": "Subject Reference Start Date/Time", "type": "SDTM Dataset Variable"}, "rootItem": {"href": "/mdr/root/sdtmig/datasets/DM/variables/RFSTDTC", "title": "Version-agnostic anchor resource for SDTMIG variable DM.RFSTDTC", "type": "Root Data Element"}, "self": {"href": "/mdr/sdtmig/3-1-3/datasets/DM/variables/RFSTDTC", "title": "Subject Reference Start Date/Time", "type": "SDTM Dataset Variable"}}, "core": "Exp", "describedValueDomain": "ISO 8601", "description": "Reference Start Date/time for the subject in ISO 8601 character format. Usually equivalent to date/time when subject was first exposed to study treatment. Required for all randomized subjects; will be null for all subjects who did not meet the milestone the date requires, such as screen failures or unassigned subjects.", "label": "Subject Reference Start Date/Time", "name": "RFSTDTC", "ordinal": "5", "role": "Record Qualifier", "simpleDatatype": "Char"}, {"_links": {"modelDatasetVariable": {"href": "/mdr/sdtm/1-3/datasets/DM/variables/RFENDTC", "title": "Subject Reference End Date/Time", "type": "SDTM Dataset Variable"}, "parentDataset": {"href": "/mdr/sdtmig/3-1-3/datasets/DM", "title": "Demographics", "type": "SDTM Dataset"}, "parentProduct": {"href": "/mdr/sdtmig/3-1-3", "title": "Study Data Tabulation Model Implementation Guide: Human Clinical Trials Version 3.1.3 (Final)", "type": "Implementation Guide"}, "priorVersion": {"href": "/mdr/sdtmig/3-1-2/datasets/DM/variables/RFENDTC", "title": "Subject Reference End Date/Time", "type": "SDTM Dataset Variable"}, "rootItem": {"href": "/mdr/root/sdtmig/datasets/DM/variables/RFENDTC", "title": "Version-agnostic anchor resource for SDTMIG variable DM.RFENDTC", "type": "Root Data Element"}, "self": {"href": "/mdr/sdtmig/3-1-3/datasets/DM/variables/RFENDTC", "title": "Subject Reference End Date/Time", "type": "SDTM Dataset Variable"}}, "core": "Exp", "describedValueDomain": "ISO 8601", "description": "Reference End Date/time for the subject in ISO 8601 character format. Usually equivalent to the date/time when subject was determined to have ended the trial, and often equivalent to date/time of last exposure to study treatment. Required for all randomized subjects; null for screen failures or unassigned subjects.", "label": "Subject Reference End Date/Time", "name": "RFENDTC", "ordinal": "6", "role": "Record Qualifier", "simpleDatatype": "Char"}, {"_links": {"modelDatasetVariable": {"href": "/mdr/sdtm/1-3/datasets/DM/variables/RFXSTDTC", "title": "Date/Time of First Study Treatment", "type": "SDTM Dataset Variable"}, "parentDataset": {"href": "/mdr/sdtmig/3-1-3/datasets/DM", "title": "Demographics", "type": "SDTM Dataset"}, "parentProduct": {"href": "/mdr/sdtmig/3-1-3", "title": "Study Data Tabulation Model Implementation Guide: Human Clinical Trials Version 3.1.3 (Final)", "type": "Implementation Guide"}, "rootItem": {"href": "/mdr/root/sdtmig/datasets/DM/variables/RFXSTDTC", "title": "Version-agnostic anchor resource for SDTMIG variable DM.RFXSTDTC", "type": "Root Data Element"}, "self": {"href": "/mdr/sdtmig/3-1-3/datasets/DM/variables/RFXSTDTC", "title": "Date/Time of First Study Treatment", "type": "SDTM Dataset Variable"}}, "core": "Exp", "describedValueDomain": "ISO 8601", "description": "First date of exposure to any protocol-specified treatment or therapy, equal to the earliest value of EXSTDTC.", "label": "Date/Time of First Study Treatment", "name": "RFXSTDTC", "ordinal": "7", "role": "Record Qualifier", "simpleDatatype": "Char"}, {"_links": {"modelDatasetVariable": {"href": "/mdr/sdtm/1-3/datasets/DM/variables/RFXENDTC", "title": "Date/Time of Last Study Treatment", "type": "SDTM Dataset Variable"}, "parentDataset": {"href": "/mdr/sdtmig/3-1-3/datasets/DM", "title": "Demographics", "type": "SDTM Dataset"}, "parentProduct": {"href": "/mdr/sdtmig/3-1-3", "title": "Study Data Tabulation Model Implementation Guide: Human Clinical Trials Version 3.1.3 (Final)", "type": "Implementation Guide"}, "rootItem": {"href": "/mdr/root/sdtmig/datasets/DM/variables/RFXENDTC", "title": "Version-agnostic anchor resource for SDTMIG variable DM.RFXENDTC", "type": "Root Data Element"}, "self": {"href": "/mdr/sdtmig/3-1-3/datasets/DM/variables/RFXENDTC", "title": "Date/Time of Last Study Treatment", "type": "SDTM Dataset Variable"}}, "core": "Exp", "describedValueDomain": "ISO 8601", "description": "Last date of exposure to any protocol-specified treatment or therapy, equal to the latest value of EXENDTC (or the latest value of EXSTDTC if EXENDTC was not collected or is missing).", "label": "Date/Time of Last Study Treatment", "name": "RFXENDTC", "ordinal": "8", "role": "Record Qualifier", "simpleDatatype": "Char"}, {"_links": {"modelDatasetVariable": {"href": "/mdr/sdtm/1-3/datasets/DM/variables/RFICDTC", "title": "Date/Time of Informed Consent", "type": "SDTM Dataset Variable"}, "parentDataset": {"href": "/mdr/sdtmig/3-1-3/datasets/DM", "title": "Demographics", "type": "SDTM Dataset"}, "parentProduct": {"href": "/mdr/sdtmig/3-1-3", "title": "Study Data Tabulation Model Implementation Guide: Human Clinical Trials Version 3.1.3 (Final)", "type": "Implementation Guide"}, "rootItem": {"href": "/mdr/root/sdtmig/datasets/DM/variables/RFICDTC", "title": "Version-agnostic anchor resource for SDTMIG variable DM.RFICDTC", "type": "Root Data Element"}, "self": {"href": "/mdr/sdtmig/3-1-3/datasets/DM/variables/RFICDTC", "title": "Date/Time of Informed Consent", "type": "SDTM Dataset Variable"}}, "core": "Exp", "describedValueDomain": "ISO 8601", "description": "Date/time of informed consent in ISO 8601 character format. This will be the same as the date of informed consent in the Disposition domain, if that protocol milestone is documented. Would be null only in studies not collecting the date of informed consent.", "label": "Date/Time of Informed Consent", "name": "RFICDTC", "ordinal": "9", "role": "Record Qualifier", "simpleDatatype": "Char"}, {"_links": {"modelDatasetVariable": {"href": "/mdr/sdtm/1-3/datasets/DM/variables/RFPENDTC", "title": "Date/Time of End of Participation", "type": "SDTM Dataset Variable"}, "parentDataset": {"href": "/mdr/sdtmig/3-1-3/datasets/DM", "title": "Demographics", "type": "SDTM Dataset"}, "parentProduct": {"href": "/mdr/sdtmig/3-1-3", "title": "Study Data Tabulation Model Implementation Guide: Human Clinical Trials Version 3.1.3 (Final)", "type": "Implementation Guide"}, "rootItem": {"href": "/mdr/root/sdtmig/datasets/DM/variables/RFPENDTC", "title": "Version-agnostic anchor resource for SDTMIG variable DM.RFPENDTC", "type": "Root Data Element"}, "self": {"href": "/mdr/sdtmig/3-1-3/datasets/DM/variables/RFPENDTC", "title": "Date/Time of End of Participation", "type": "SDTM Dataset Variable"}}, "core": "Exp", "describedValueDomain": "ISO 8601", "description": "Date/time when subject ended participation or follow-up in a trial, as defined in the protocol, in ISO 8601 character format. Should correspond to the last known date of contact. Examples include completion date, withdrawal date, last follow-up, date recorded for lost to follow up, or death date.", "label": "Date/Time of End of Participation", "name": "RFPENDTC", "ordinal": "10", "role": "Record Qualifier", "simpleDatatype": "Char"}, {"_links": {"modelDatasetVariable": {"href": "/mdr/sdtm/1-3/datasets/DM/variables/DTHDTC", "title": "Date/Time of Death", "type": "SDTM Dataset Variable"}, "parentDataset": {"href": "/mdr/sdtmig/3-1-3/datasets/DM", "title": "Demographics", "type": "SDTM Dataset"}, "parentProduct": {"href": "/mdr/sdtmig/3-1-3", "title": "Study Data Tabulation Model Implementation Guide: Human Clinical Trials Version 3.1.3 (Final)", "type": "Implementation Guide"}, "rootItem": {"href": "/mdr/root/sdtmig/datasets/DM/variables/DTHDTC", "title": "Version-agnostic anchor resource for SDTMIG variable DM.DTHDTC", "type": "Root Data Element"}, "self": {"href": "/mdr/sdtmig/3-1-3/datasets/DM/variables/DTHDTC", "title": "Date/Time of Death", "type": "SDTM Dataset Variable"}}, "core": "Exp", "describedValueDomain": "ISO 8601", "description": "Date/time of death for any subject who died, in ISO 8601 format. Should represent the date/time that is captured in the clinical-trial database.", "label": "Date/Time of Death", "name": "DTHDTC", "ordinal": "11", "role": "Record Qualifier", "simpleDatatype": "Char"}, {"_links": {"codelist": [{"href": "/mdr/root/ct/sdtmct/codelists/C66742", "title": "Version-agnostic anchor resource for codelist C66742", "type": "Root Value Domain"}], "modelDatasetVariable": {"href": "/mdr/sdtm/1-3/datasets/DM/variables/DTHFL", "title": "Subject Death Flag", "type": "SDTM Dataset Variable"}, "parentDataset": {"href": "/mdr/sdtmig/3-1-3/datasets/DM", "title": "Demographics", "type": "SDTM Dataset"}, "parentProduct": {"href": "/mdr/sdtmig/3-1-3", "title": "Study Data Tabulation Model Implementation Guide: Human Clinical Trials Version 3.1.3 (Final)", "type": "Implementation Guide"}, "rootItem": {"href": "/mdr/root/sdtmig/datasets/DM/variables/DTHFL", "title": "Version-agnostic anchor resource for SDTMIG variable DM.DTHFL", "type": "Root Data Element"}, "self": {"href": "/mdr/sdtmig/3-1-3/datasets/DM/variables/DTHFL", "title": "Subject Death Flag", "type": "SDTM Dataset Variable"}}, "core": "Exp", "description": "Indicates the subject died. Should be Y or null. Should be populated even when the death date is unknown.", "label": "Subject Death Flag", "name": "DTHFL", "ordinal": "12", "role": "Record Qualifier", "simpleDatatype": "Char"}, {"_links": {"modelDatasetVariable": {"href": "/mdr/sdtm/1-3/datasets/DM/variables/SITEID", "title": "Study Site Identifier", "type": "SDTM Dataset Variable"}, "parentDataset": {"href": "/mdr/sdtmig/3-1-3/datasets/DM", "title": "Demographics", "type": "SDTM Dataset"}, "parentProduct": {"href": "/mdr/sdtmig/3-1-3", "title": "Study Data Tabulation Model Implementation Guide: Human Clinical Trials Version 3.1.3 (Final)", "type": "Implementation Guide"}, "priorVersion": {"href": "/mdr/sdtmig/3-1-2/datasets/DM/variables/SITEID", "title": "Study Site Identifier", "type": "SDTM Dataset Variable"}, "rootItem": {"href": "/mdr/root/sdtmig/datasets/DM/variables/SITEID", "title": "Version-agnostic anchor resource for SDTMIG variable DM.SITEID", "type": "Root Data Element"}, "self": {"href": "/mdr/sdtmig/3-1-3/datasets/DM/variables/SITEID", "title": "Study Site Identifier", "type": "SDTM Dataset Variable"}}, "core": "Req", "description": "Unique identifier for a site within a study.", "label": "Study Site Identifier", "name": "SITEID", "ordinal": "13", "role": "Record Qualifier", "simpleDatatype": "Char"}, {"_links": {"modelDatasetVariable": {"href": "/mdr/sdtm/1-3/datasets/DM/variables/INVID", "title": "Investigator Identifier", "type": "SDTM Dataset Variable"}, "parentDataset": {"href": "/mdr/sdtmig/3-1-3/datasets/DM", "title": "Demographics", "type": "SDTM Dataset"}, "parentProduct": {"href": "/mdr/sdtmig/3-1-3", "title": "Study Data Tabulation Model Implementation Guide: Human Clinical Trials Version 3.1.3 (Final)", "type": "Implementation Guide"}, "priorVersion": {"href": "/mdr/sdtmig/3-1-2/datasets/DM/variables/INVID", "title": "Investigator Identifier", "type": "SDTM Dataset Variable"}, "rootItem": {"href": "/mdr/root/sdtmig/datasets/DM/variables/INVID", "title": "Version-agnostic anchor resource for SDTMIG variable DM.INVID", "type": "Root Data Element"}, "self": {"href": "/mdr/sdtmig/3-1-3/datasets/DM/variables/INVID", "title": "Investigator Identifier", "type": "SDTM Dataset Variable"}}, "core": "Perm", "description": "An identifier to describe the Investigator for the study. May be used in addition to SITEID. Not needed if SITEID is equivalent to INVID.", "label": "Investigator Identifier", "name": "INVID", "ordinal": "14", "role": "Record Qualifier", "simpleDatatype": "Char"}, {"_links": {"modelDatasetVariable": {"href": "/mdr/sdtm/1-3/datasets/DM/variables/INVNAM", "title": "Investigator Name", "type": "SDTM Dataset Variable"}, "parentDataset": {"href": "/mdr/sdtmig/3-1-3/datasets/DM", "title": "Demographics", "type": "SDTM Dataset"}, "parentProduct": {"href": "/mdr/sdtmig/3-1-3", "title": "Study Data Tabulation Model Implementation Guide: Human Clinical Trials Version 3.1.3 (Final)", "type": "Implementation Guide"}, "priorVersion": {"href": "/mdr/sdtmig/3-1-2/datasets/DM/variables/INVNAM", "title": "Investigator Name", "type": "SDTM Dataset Variable"}, "rootItem": {"href": "/mdr/root/sdtmig/datasets/DM/variables/INVNAM", "title": "Version-agnostic anchor resource for SDTMIG variable DM.INVNAM", "type": "Root Data Element"}, "self": {"href": "/mdr/sdtmig/3-1-3/datasets/DM/variables/INVNAM", "title": "Investigator Name", "type": "SDTM Dataset Variable"}}, "core": "Perm", "description": "Name of the investigator for a site.", "label": "Investigator Name", "name": "INVNAM", "ordinal": "15", "role": "Synonym Qualifier", "simpleDatatype": "Char"}, {"_links": {"modelDatasetVariable": {"href": "/mdr/sdtm/1-3/datasets/DM/variables/BRTHDTC", "title": "Date/Time of Birth", "type": "SDTM Dataset Variable"}, "parentDataset": {"href": "/mdr/sdtmig/3-1-3/datasets/DM", "title": "Demographics", "type": "SDTM Dataset"}, "parentProduct": {"href": "/mdr/sdtmig/3-1-3", "title": "Study Data Tabulation Model Implementation Guide: Human Clinical Trials Version 3.1.3 (Final)", "type": "Implementation Guide"}, "priorVersion": {"href": "/mdr/sdtmig/3-1-2/datasets/DM/variables/BRTHDTC", "title": "Date/Time of Birth", "type": "SDTM Dataset Variable"}, "rootItem": {"href": "/mdr/root/sdtmig/datasets/DM/variables/BRTHDTC", "title": "Version-agnostic anchor resource for SDTMIG variable DM.BRTHDTC", "type": "Root Data Element"}, "self": {"href": "/mdr/sdtmig/3-1-3/datasets/DM/variables/BRTHDTC", "title": "Date/Time of Birth", "type": "SDTM Dataset Variable"}}, "core": "Perm", "describedValueDomain": "ISO 8601", "description": "Date/time of birth of the subject.", "label": "Date/Time of Birth", "name": "BRTHDTC", "ordinal": "16", "role": "Record Qualifier", "simpleDatatype": "Char"}, {"_links": {"modelDatasetVariable": {"href": "/mdr/sdtm/1-3/datasets/DM/variables/AGE", "title": "Age", "type": "SDTM Dataset Variable"}, "parentDataset": {"href": "/mdr/sdtmig/3-1-3/datasets/DM", "title": "Demographics", "type": "SDTM Dataset"}, "parentProduct": {"href": "/mdr/sdtmig/3-1-3", "title": "Study Data Tabulation Model Implementation Guide: Human Clinical Trials Version 3.1.3 (Final)", "type": "Implementation Guide"}, "priorVersion": {"href": "/mdr/sdtmig/3-1-2/datasets/DM/variables/AGE", "title": "Age", "type": "SDTM Dataset Variable"}, "rootItem": {"href": "/mdr/root/sdtmig/datasets/DM/variables/AGE", "title": "Version-agnostic anchor resource for SDTMIG variable DM.AGE", "type": "Root Data Element"}, "self": {"href": "/mdr/sdtmig/3-1-3/datasets/DM/variables/AGE", "title": "Age", "type": "SDTM Dataset Variable"}}, "core": "Exp", "description": "Age expressed in AGEU. May be derived from RFSTDTC and BRTHDTC, but BRTHDTC may not be available in all cases (due to subject privacy concerns).", "label": "Age", "name": "AGE", "ordinal": "17", "role": "Record Qualifier", "simpleDatatype": "Num"}, {"_links": {"codelist": [{"href": "/mdr/root/ct/sdtmct/codelists/C66781", "title": "Version-agnostic anchor resource for codelist C66781", "type": "Root Value Domain"}], "modelDatasetVariable": {"href": "/mdr/sdtm/1-3/datasets/DM/variables/AGEU", "title": "Age Units", "type": "SDTM Dataset Variable"}, "parentDataset": {"href": "/mdr/sdtmig/3-1-3/datasets/DM", "title": "Demographics", "type": "SDTM Dataset"}, "parentProduct": {"href": "/mdr/sdtmig/3-1-3", "title": "Study Data Tabulation Model Implementation Guide: Human Clinical Trials Version 3.1.3 (Final)", "type": "Implementation Guide"}, "priorVersion": {"href": "/mdr/sdtmig/3-1-2/datasets/DM/variables/AGEU", "title": "Age Units", "type": "SDTM Dataset Variable"}, "rootItem": {"href": "/mdr/root/sdtmig/datasets/DM/variables/AGEU", "title": "Version-agnostic anchor resource for SDTMIG variable DM.AGEU", "type": "Root Data Element"}, "self": {"href": "/mdr/sdtmig/3-1-3/datasets/DM/variables/AGEU", "title": "Age Units", "type": "SDTM Dataset Variable"}}, "core": "Exp", "description": "Units associated with AGE.", "label": "Age Units", "name": "AGEU", "ordinal": "18", "role": "Variable Qualifier", "simpleDatatype": "Char"}, {"_links": {"codelist": [{"href": "/mdr/root/ct/sdtmct/codelists/C66731", "title": "Version-agnostic anchor resource for codelist C66731", "type": "Root Value Domain"}], "modelDatasetVariable": {"href": "/mdr/sdtm/1-3/datasets/DM/variables/SEX", "title": "Sex", "type": "SDTM Dataset Variable"}, "parentDataset": {"href": "/mdr/sdtmig/3-1-3/datasets/DM", "title": "Demographics", "type": "SDTM Dataset"}, "parentProduct": {"href": "/mdr/sdtmig/3-1-3", "title": "Study Data Tabulation Model Implementation Guide: Human Clinical Trials Version 3.1.3 (Final)", "type": "Implementation Guide"}, "priorVersion": {"href": "/mdr/sdtmig/3-1-2/datasets/DM/variables/SEX", "title": "Sex", "type": "SDTM Dataset Variable"}, "rootItem": {"href": "/mdr/root/sdtmig/datasets/DM/variables/SEX", "title": "Version-agnostic anchor resource for SDTMIG variable DM.SEX", "type": "Root Data Element"}, "self": {"href": "/mdr/sdtmig/3-1-3/datasets/DM/variables/SEX", "title": "Sex", "type": "SDTM Dataset Variable"}}, "core": "Req", "description": "Sex of the subject.", "label": "Sex", "name": "SEX", "ordinal": "19", "role": "Record Qualifier", "simpleDatatype": "Char"}, {"_links": {"codelist": [{"href": "/mdr/root/ct/sdtmct/codelists/C74457", "title": "Version-agnostic anchor resource for codelist C74457", "type": "Root Value Domain"}], "modelDatasetVariable": {"href": "/mdr/sdtm/1-3/datasets/DM/variables/RACE", "title": "Race", "type": "SDTM Dataset Variable"}, "parentDataset": {"href": "/mdr/sdtmig/3-1-3/datasets/DM", "title": "Demographics", "type": "SDTM Dataset"}, "parentProduct": {"href": "/mdr/sdtmig/3-1-3", "title": "Study Data Tabulation Model Implementation Guide: Human Clinical Trials Version 3.1.3 (Final)", "type": "Implementation Guide"}, "priorVersion": {"href": "/mdr/sdtmig/3-1-2/datasets/DM/variables/RACE", "title": "Race", "type": "SDTM Dataset Variable"}, "rootItem": {"href": "/mdr/root/sdtmig/datasets/DM/variables/RACE", "title": "Version-agnostic anchor resource for SDTMIG variable DM.RACE", "type": "Root Data Element"}, "self": {"href": "/mdr/sdtmig/3-1-3/datasets/DM/variables/RACE", "title": "Race", "type": "SDTM Dataset Variable"}}, "core": "Exp", "description": "Race of the subject. Sponsors should refer to \"Collection of Race and Ethnicity Data in Clinical Trials\" (FDA, September 2005) for guidance regarding the collection of race (http://www.fda.gov/cder/guidance/5656fnl.htm) See Assumption below regarding RACE.", "label": "Race", "name": "RACE", "ordinal": "20", "role": "Record Qualifier", "simpleDatatype": "Char"}, {"_links": {"codelist": [{"href": "/mdr/root/ct/sdtmct/codelists/C66790", "title": "Version-agnostic anchor resource for codelist C66790", "type": "Root Value Domain"}], "modelDatasetVariable": {"href": "/mdr/sdtm/1-3/datasets/DM/variables/ETHNIC", "title": "Ethnicity", "type": "SDTM Dataset Variable"}, "parentDataset": {"href": "/mdr/sdtmig/3-1-3/datasets/DM", "title": "Demographics", "type": "SDTM Dataset"}, "parentProduct": {"href": "/mdr/sdtmig/3-1-3", "title": "Study Data Tabulation Model Implementation Guide: Human Clinical Trials Version 3.1.3 (Final)", "type": "Implementation Guide"}, "priorVersion": {"href": "/mdr/sdtmig/3-1-2/datasets/DM/variables/ETHNIC", "title": "Ethnicity", "type": "SDTM Dataset Variable"}, "rootItem": {"href": "/mdr/root/sdtmig/datasets/DM/variables/ETHNIC", "title": "Version-agnostic anchor resource for SDTMIG variable DM.ETHNIC", "type": "Root Data Element"}, "self": {"href": "/mdr/sdtmig/3-1-3/datasets/DM/variables/ETHNIC", "title": "Ethnicity", "type": "SDTM Dataset Variable"}}, "core": "Perm", "description": "The ethnicity of the subject. Sponsors should refer to \"Collection of Race and Ethnicity Data in Clinical Trials\" (FDA, September 2005) for guidance regarding the collection of ethnicity (http://www.fda.gov/cder/guidance/5656fnl.htm).", "label": "Ethnicity", "name": "ETHNIC", "ordinal": "21", "role": "Record Qualifier", "simpleDatatype": "Char"}, {"_links": {"modelDatasetVariable": {"href": "/mdr/sdtm/1-3/datasets/DM/variables/ARMCD", "title": "Planned Arm Code", "type": "SDTM Dataset Variable"}, "parentDataset": {"href": "/mdr/sdtmig/3-1-3/datasets/DM", "title": "Demographics", "type": "SDTM Dataset"}, "parentProduct": {"href": "/mdr/sdtmig/3-1-3", "title": "Study Data Tabulation Model Implementation Guide: Human Clinical Trials Version 3.1.3 (Final)", "type": "Implementation Guide"}, "priorVersion": {"href": "/mdr/sdtmig/3-1-2/datasets/DM/variables/ARMCD", "title": "Planned Arm Code", "type": "SDTM Dataset Variable"}, "rootItem": {"href": "/mdr/root/sdtmig/datasets/DM/variables/ARMCD", "title": "Version-agnostic anchor resource for SDTMIG variable DM.ARMCD", "type": "Root Data Element"}, "self": {"href": "/mdr/sdtmig/3-1-3/datasets/DM/variables/ARMCD", "title": "Planned Arm Code", "type": "SDTM Dataset Variable"}}, "core": "Req", "description": "ARMCD is limited to 20 characters and does not have special character restrictions. The maximum length of ARMCD is longer than for other \"short\" variables to accommodate the kind of values that are likely to be needed for crossover trials. For example, if ARMCD values for a seven-period crossover were constructed using two-character abbreviations for each treatment and separating hyphens, the length of ARMCD values would be 20.", "label": "Planned Arm Code", "name": "ARMCD", "ordinal": "22", "role": "Record Qualifier", "simpleDatatype": "Char"}, {"_links": {"modelDatasetVariable": {"href": "/mdr/sdtm/1-3/datasets/DM/variables/ARM", "title": "Description of Planned Arm", "type": "SDTM Dataset Variable"}, "parentDataset": {"href": "/mdr/sdtmig/3-1-3/datasets/DM", "title": "Demographics", "type": "SDTM Dataset"}, "parentProduct": {"href": "/mdr/sdtmig/3-1-3", "title": "Study Data Tabulation Model Implementation Guide: Human Clinical Trials Version 3.1.3 (Final)", "type": "Implementation Guide"}, "priorVersion": {"href": "/mdr/sdtmig/3-1-2/datasets/DM/variables/ARM", "title": "Description of Planned Arm", "type": "SDTM Dataset Variable"}, "rootItem": {"href": "/mdr/root/sdtmig/datasets/DM/variables/ARM", "title": "Version-agnostic anchor resource for SDTMIG variable DM.ARM", "type": "Root Data Element"}, "self": {"href": "/mdr/sdtmig/3-1-3/datasets/DM/variables/ARM", "title": "Description of Planned Arm", "type": "SDTM Dataset Variable"}}, "core": "Req", "description": "Name of the Arm to which the subject was assigned.", "label": "Description of Planned Arm", "name": "ARM", "ordinal": "23", "role": "Synonym Qualifier", "simpleDatatype": "Char"}, {"_links": {"modelDatasetVariable": {"href": "/mdr/sdtm/1-3/datasets/DM/variables/ACTARMCD", "title": "Actual Arm Code", "type": "SDTM Dataset Variable"}, "parentDataset": {"href": "/mdr/sdtmig/3-1-3/datasets/DM", "title": "Demographics", "type": "SDTM Dataset"}, "parentProduct": {"href": "/mdr/sdtmig/3-1-3", "title": "Study Data Tabulation Model Implementation Guide: Human Clinical Trials Version 3.1.3 (Final)", "type": "Implementation Guide"}, "rootItem": {"href": "/mdr/root/sdtmig/datasets/DM/variables/ACTARMCD", "title": "Version-agnostic anchor resource for SDTMIG variable DM.ACTARMCD", "type": "Root Data Element"}, "self": {"href": "/mdr/sdtmig/3-1-3/datasets/DM/variables/ACTARMCD", "title": "Actual Arm Code", "type": "SDTM Dataset Variable"}}, "core": "Req", "description": "Code of actual Arm. When an Arm is not planned (not in Trial Arms), ACTARMCD will be UNPLAN. Randomized subjects who were not treated will be given a value of NOTTRT. Values should be \"SCRNFAIL\" for screen failures and \"NOTASSGN\" for subjects not assigned to treatment. Restricted to values in Trial Arms in all other cases. ACTARMCD is limited to 20 characters and does not have special character restrictions. The maximum length of ACTARMCD is longer than for other short variables to accommodate the kind of values that are likely to be needed for crossover trials.", "label": "Actual Arm Code", "name": "ACTARMCD", "ordinal": "24", "role": "Record Qualifier", "simpleDatatype": "Char"}, {"_links": {"modelDatasetVariable": {"href": "/mdr/sdtm/1-3/datasets/DM/variables/ACTARM", "title": "Description of Actual Arm", "type": "SDTM Dataset Variable"}, "parentDataset": {"href": "/mdr/sdtmig/3-1-3/datasets/DM", "title": "Demographics", "type": "SDTM Dataset"}, "parentProduct": {"href": "/mdr/sdtmig/3-1-3", "title": "Study Data Tabulation Model Implementation Guide: Human Clinical Trials Version 3.1.3 (Final)", "type": "Implementation Guide"}, "rootItem": {"href": "/mdr/root/sdtmig/datasets/DM/variables/ACTARM", "title": "Version-agnostic anchor resource for SDTMIG variable DM.ACTARM", "type": "Root Data Element"}, "self": {"href": "/mdr/sdtmig/3-1-3/datasets/DM/variables/ACTARM", "title": "Description of Actual Arm", "type": "SDTM Dataset Variable"}}, "core": "Req", "description": "Description of actual Arm. When an Arm is not planned (not in Trial Arms), ACTARM will be \"Unplanned Treatment\". Randomized subjects who were not treated will be given a value of \"Not Treated\". Values should be \"Screen Failure\" for screen failures and \"Not Assigned\" for subjects not assigned to treatment. Restricted to values in Trial Arms in all other cases.", "label": "Description of Actual Arm", "name": "ACTARM", "ordinal": "25", "role": "Synonym Qualifier", "simpleDatatype": "Char"}, {"_links": {"modelDatasetVariable": {"href": "/mdr/sdtm/1-3/datasets/DM/variables/COUNTRY", "title": "Country", "type": "SDTM Dataset Variable"}, "parentDataset": {"href": "/mdr/sdtmig/3-1-3/datasets/DM", "title": "Demographics", "type": "SDTM Dataset"}, "parentProduct": {"href": "/mdr/sdtmig/3-1-3", "title": "Study Data Tabulation Model Implementation Guide: Human Clinical Trials Version 3.1.3 (Final)", "type": "Implementation Guide"}, "priorVersion": {"href": "/mdr/sdtmig/3-1-2/datasets/DM/variables/COUNTRY", "title": "Country", "type": "SDTM Dataset Variable"}, "rootItem": {"href": "/mdr/root/sdtmig/datasets/DM/variables/COUNTRY", "title": "Version-agnostic anchor resource for SDTMIG variable DM.COUNTRY", "type": "Root Data Element"}, "self": {"href": "/mdr/sdtmig/3-1-3/datasets/DM/variables/COUNTRY", "title": "Country", "type": "SDTM Dataset Variable"}}, "core": "Req", "describedValueDomain": "ISO 3166-1 Alpha-3", "description": "Country of the investigational site in which the subject participated in the trial.", "label": "Country", "name": "COUNTRY", "ordinal": "26", "role": "Record Qualifier", "simpleDatatype": "Char"}, {"_links": {"modelDatasetVariable": {"href": "/mdr/sdtm/1-3/datasets/DM/variables/DMDTC", "title": "Date/Time of Collection", "type": "SDTM Dataset Variable"}, "parentDataset": {"href": "/mdr/sdtmig/3-1-3/datasets/DM", "title": "Demographics", "type": "SDTM Dataset"}, "parentProduct": {"href": "/mdr/sdtmig/3-1-3", "title": "Study Data Tabulation Model Implementation Guide: Human Clinical Trials Version 3.1.3 (Final)", "type": "Implementation Guide"}, "priorVersion": {"href": "/mdr/sdtmig/3-1-2/datasets/DM/variables/DMDTC", "title": "Date/Time of Collection", "type": "SDTM Dataset Variable"}, "rootItem": {"href": "/mdr/root/sdtmig/datasets/DM/variables/DMDTC", "title": "Version-agnostic anchor resource for SDTMIG variable DM.DMDTC", "type": "Root Data Element"}, "self": {"href": "/mdr/sdtmig/3-1-3/datasets/DM/variables/DMDTC", "title": "Date/Time of Collection", "type": "SDTM Dataset Variable"}}, "core": "Perm", "describedValueDomain": "ISO 8601", "description": "Date/time of demographic data collection.", "label": "Date/Time of Collection", "name": "DMDTC", "ordinal": "27", "role": "Timing", "simpleDatatype": "Char"}, {"_links": {"modelDatasetVariable": {"href": "/mdr/sdtm/1-3/datasets/DM/variables/DMDY", "title": "Study Day of Collection", "type": "SDTM Dataset Variable"}, "parentDataset": {"href": "/mdr/sdtmig/3-1-3/datasets/DM", "title": "Demographics", "type": "SDTM Dataset"}, "parentProduct": {"href": "/mdr/sdtmig/3-1-3", "title": "Study Data Tabulation Model Implementation Guide: Human Clinical Trials Version 3.1.3 (Final)", "type": "Implementation Guide"}, "priorVersion": {"href": "/mdr/sdtmig/3-1-2/datasets/DM/variables/DMDY", "title": "Study Day of Collection", "type": "SDTM Dataset Variable"}, "rootItem": {"href": "/mdr/root/sdtmig/datasets/DM/variables/DMDY", "title": "Version-agnostic anchor resource for SDTMIG variable DM.DMDY", "type": "Root Data Element"}, "self": {"href": "/mdr/sdtmig/3-1-3/datasets/DM/variables/DMDY", "title": "Study Day of Collection", "type": "SDTM Dataset Variable"}}, "core": "Perm", "description": "Study day of collection measured as integer days.", "label": "Study Day of Collection", "name": "DMDY", "ordinal": "28", "role": "Timing", "simpleDatatype": "Num"}], "description": "A special-purpose domain that includes a set of essential standard variables that describe each subject in a clinical study. It is the parent domain for all other observations for human clinical subjects. (Source: CDISC Controlled Terminology, DOMAIN, C49572, 2018-06-29)", "label": "Demographics", "name": "DM", "ordinal": "1"}
