{"_links": {"parentClass": {"href": "/mdr/sdtmig/3-1-3/classes/Findings", "title": "Findings Observation Class", "type": "Class"}, "parentProduct": {"href": "/mdr/sdtmig/3-1-3", "title": "Study Data Tabulation Model Implementation Guide: Human Clinical Trials Version 3.1.3 (Final)", "type": "Implementation Guide"}, "priorVersion": {"href": "/mdr/sdtmig/3-1-2/datasets/MB", "title": "Microbiology Specimen", "type": "SDTM Dataset"}, "self": {"href": "/mdr/sdtmig/3-1-3/datasets/MB", "title": "Microbiology Specimen", "type": "SDTM Dataset"}}, "datasetStructure": "One record per microbiology specimen finding per time point per visit per subject", "datasetVariables": [{"_links": {"modelClassVariable": {"href": "/mdr/sdtm/1-3/classes/GeneralObservations/variables/STUDYID", "title": "Study Identifier", "type": "Class Variable"}, "parentDataset": {"href": "/mdr/sdtmig/3-1-3/datasets/MB", "title": "Microbiology Specimen", "type": "SDTM Dataset"}, "parentProduct": {"href": "/mdr/sdtmig/3-1-3", "title": "Study Data Tabulation Model Implementation Guide: Human Clinical Trials Version 3.1.3 (Final)", "type": "Implementation Guide"}, "priorVersion": {"href": "/mdr/sdtmig/3-1-2/datasets/MB/variables/STUDYID", "title": "Study Identifier", "type": "SDTM Dataset Variable"}, "rootItem": {"href": "/mdr/root/sdtmig/datasets/MB/variables/STUDYID", "title": "Version-agnostic anchor resource for SDTMIG variable MB.STUDYID", "type": "Root Data Element"}, "self": {"href": "/mdr/sdtmig/3-1-3/datasets/MB/variables/STUDYID", "title": "Study Identifier", "type": "SDTM Dataset Variable"}}, "core": "Req", "description": "Unique identifier for a study.", "label": "Study Identifier", "name": "STUDYID", "ordinal": "1", "role": "Identifier", "simpleDatatype": "Char"}, {"_links": {"modelClassVariable": {"href": "/mdr/sdtm/1-3/classes/GeneralObservations/variables/DOMAIN", "title": "Domain Abbreviation", "type": "Class Variable"}, "parentDataset": {"href": "/mdr/sdtmig/3-1-3/datasets/MB", "title": "Microbiology Specimen", "type": "SDTM Dataset"}, "parentProduct": {"href": "/mdr/sdtmig/3-1-3", "title": "Study Data Tabulation Model Implementation Guide: Human Clinical Trials Version 3.1.3 (Final)", "type": "Implementation Guide"}, "priorVersion": {"href": "/mdr/sdtmig/3-1-2/datasets/MB/variables/DOMAIN", "title": "Domain Abbreviation", "type": "SDTM Dataset Variable"}, "rootItem": {"href": "/mdr/root/sdtmig/datasets/MB/variables/DOMAIN", "title": "Version-agnostic anchor resource for SDTMIG variable MB.DOMAIN", "type": "Root Data Element"}, "self": {"href": "/mdr/sdtmig/3-1-3/datasets/MB/variables/DOMAIN", "title": "Domain Abbreviation", "type": "SDTM Dataset Variable"}}, "core": "Req", "description": "Two-character abbreviation for the domain.", "label": "Domain Abbreviation", "name": "DOMAIN", "ordinal": "2", "role": "Identifier", "simpleDatatype": "Char", "valueList": ["MB"]}, {"_links": {"modelClassVariable": {"href": "/mdr/sdtm/1-3/classes/GeneralObservations/variables/USUBJID", "title": "Unique Subject Identifier", "type": "Class Variable"}, "parentDataset": {"href": "/mdr/sdtmig/3-1-3/datasets/MB", "title": "Microbiology Specimen", "type": "SDTM Dataset"}, "parentProduct": {"href": "/mdr/sdtmig/3-1-3", "title": "Study Data Tabulation Model Implementation Guide: Human Clinical Trials Version 3.1.3 (Final)", "type": "Implementation Guide"}, "priorVersion": {"href": "/mdr/sdtmig/3-1-2/datasets/MB/variables/USUBJID", "title": "Unique Subject Identifier", "type": "SDTM Dataset Variable"}, "rootItem": {"href": "/mdr/root/sdtmig/datasets/MB/variables/USUBJID", "title": "Version-agnostic anchor resource for SDTMIG variable MB.USUBJID", "type": "Root Data Element"}, "self": {"href": "/mdr/sdtmig/3-1-3/datasets/MB/variables/USUBJID", "title": "Unique Subject Identifier", "type": "SDTM Dataset Variable"}}, "core": "Req", "description": "Identifier used to uniquely identify a subject across all studies for all applications or submissions involving the product.", "label": "Unique Subject Identifier", "name": "USUBJID", "ordinal": "3", "role": "Identifier", "simpleDatatype": "Char"}, {"_links": {"modelClassVariable": {"href": "/mdr/sdtm/1-3/classes/GeneralObservations/variables/--SEQ", "title": "Sequence Number", "type": "Class Variable"}, "parentDataset": {"href": "/mdr/sdtmig/3-1-3/datasets/MB", "title": "Microbiology Specimen", "type": "SDTM Dataset"}, "parentProduct": {"href": "/mdr/sdtmig/3-1-3", "title": "Study Data Tabulation Model Implementation Guide: Human Clinical Trials Version 3.1.3 (Final)", "type": "Implementation Guide"}, "priorVersion": {"href": "/mdr/sdtmig/3-1-2/datasets/MB/variables/MBSEQ", "title": "Sequence Number", "type": "SDTM Dataset Variable"}, "rootItem": {"href": "/mdr/root/sdtmig/datasets/MB/variables/MBSEQ", "title": "Version-agnostic anchor resource for SDTMIG variable MB.MBSEQ", "type": "Root Data Element"}, "self": {"href": "/mdr/sdtmig/3-1-3/datasets/MB/variables/MBSEQ", "title": "Sequence Number", "type": "SDTM Dataset Variable"}}, "core": "Req", "description": "Sequence Number given to ensure uniqueness of subject records within a domain. May be any valid number.", "label": "Sequence Number", "name": "MBSEQ", "ordinal": "4", "role": "Identifier", "simpleDatatype": "Num"}, {"_links": {"modelClassVariable": {"href": "/mdr/sdtm/1-3/classes/GeneralObservations/variables/--GRPID", "title": "Group ID", "type": "Class Variable"}, "parentDataset": {"href": "/mdr/sdtmig/3-1-3/datasets/MB", "title": "Microbiology Specimen", "type": "SDTM Dataset"}, "parentProduct": {"href": "/mdr/sdtmig/3-1-3", "title": "Study Data Tabulation Model Implementation Guide: Human Clinical Trials Version 3.1.3 (Final)", "type": "Implementation Guide"}, "priorVersion": {"href": "/mdr/sdtmig/3-1-2/datasets/MB/variables/MBGRPID", "title": "Group ID", "type": "SDTM Dataset Variable"}, "rootItem": {"href": "/mdr/root/sdtmig/datasets/MB/variables/MBGRPID", "title": "Version-agnostic anchor resource for SDTMIG variable MB.MBGRPID", "type": "Root Data Element"}, "self": {"href": "/mdr/sdtmig/3-1-3/datasets/MB/variables/MBGRPID", "title": "Group ID", "type": "SDTM Dataset Variable"}}, "core": "Exp", "description": "Used to tie together a block of related records in a single domain to support relationships within the domain and between domains. In MB, used to link to findings about organisms which are stored in MS.", "label": "Group ID", "name": "MBGRPID", "ordinal": "5", "role": "Identifier", "simpleDatatype": "Char"}, {"_links": {"modelClassVariable": {"href": "/mdr/sdtm/1-3/classes/GeneralObservations/variables/--REFID", "title": "Reference ID", "type": "Class Variable"}, "parentDataset": {"href": "/mdr/sdtmig/3-1-3/datasets/MB", "title": "Microbiology Specimen", "type": "SDTM Dataset"}, "parentProduct": {"href": "/mdr/sdtmig/3-1-3", "title": "Study Data Tabulation Model Implementation Guide: Human Clinical Trials Version 3.1.3 (Final)", "type": "Implementation Guide"}, "priorVersion": {"href": "/mdr/sdtmig/3-1-2/datasets/MB/variables/MBREFID", "title": "Reference ID", "type": "SDTM Dataset Variable"}, "rootItem": {"href": "/mdr/root/sdtmig/datasets/MB/variables/MBREFID", "title": "Version-agnostic anchor resource for SDTMIG variable MB.MBREFID", "type": "Root Data Element"}, "self": {"href": "/mdr/sdtmig/3-1-3/datasets/MB/variables/MBREFID", "title": "Reference ID", "type": "SDTM Dataset Variable"}}, "core": "Perm", "description": "Internal or external specimen identifier. Example: Specimen ID", "label": "Reference ID", "name": "MBREFID", "ordinal": "6", "role": "Identifier", "simpleDatatype": "Char"}, {"_links": {"modelClassVariable": {"href": "/mdr/sdtm/1-3/classes/GeneralObservations/variables/--SPID", "title": "Sponsor ID", "type": "Class Variable"}, "parentDataset": {"href": "/mdr/sdtmig/3-1-3/datasets/MB", "title": "Microbiology Specimen", "type": "SDTM Dataset"}, "parentProduct": {"href": "/mdr/sdtmig/3-1-3", "title": "Study Data Tabulation Model Implementation Guide: Human Clinical Trials Version 3.1.3 (Final)", "type": "Implementation Guide"}, "priorVersion": {"href": "/mdr/sdtmig/3-1-2/datasets/MB/variables/MBSPID", "title": "Sponsor-Defined Identifier", "type": "SDTM Dataset Variable"}, "rootItem": {"href": "/mdr/root/sdtmig/datasets/MB/variables/MBSPID", "title": "Version-agnostic anchor resource for SDTMIG variable MB.MBSPID", "type": "Root Data Element"}, "self": {"href": "/mdr/sdtmig/3-1-3/datasets/MB/variables/MBSPID", "title": "Sponsor-Defined Identifier", "type": "SDTM Dataset Variable"}}, "core": "Perm", "description": "Sponsor-defined reference number. Perhaps pre-printed on the CRF as an explicit line identifier or defined in the sponsor's operational database. Example: ORGANISM IDENTIFIER. For organism identification, MBSPID would remain the same each time the same organism is identified in a new specimen.", "label": "Sponsor-Defined Identifier", "name": "MBSPID", "ordinal": "7", "role": "Identifier", "simpleDatatype": "Char"}, {"_links": {"modelClassVariable": {"href": "/mdr/sdtm/1-3/classes/Findings/variables/--TESTCD", "title": "Short Name of Measurement, Test or Examination", "type": "Class Variable"}, "parentDataset": {"href": "/mdr/sdtmig/3-1-3/datasets/MB", "title": "Microbiology Specimen", "type": "SDTM Dataset"}, "parentProduct": {"href": "/mdr/sdtmig/3-1-3", "title": "Study Data Tabulation Model Implementation Guide: Human Clinical Trials Version 3.1.3 (Final)", "type": "Implementation Guide"}, "priorVersion": {"href": "/mdr/sdtmig/3-1-2/datasets/MB/variables/MBTESTCD", "title": "Microbiology Test or Finding Short Name", "type": "SDTM Dataset Variable"}, "rootItem": {"href": "/mdr/root/sdtmig/datasets/MB/variables/MBTESTCD", "title": "Version-agnostic anchor resource for SDTMIG variable MB.MBTESTCD", "type": "Root Data Element"}, "self": {"href": "/mdr/sdtmig/3-1-3/datasets/MB/variables/MBTESTCD", "title": "Microbiology Test or Finding Short Name", "type": "SDTM Dataset Variable"}}, "core": "Req", "description": "Short name of the measurement, test, or finding described in MBTEST. It can be used as a column name when converting a dataset from a vertical to a horizontal format. The value in MBTESTCD cannot be longer than 8 characters, nor can it start with a number (e.g., \"1TEST\"). MBTESTCD cannot contain characters other than letters, numbers, or underscores. Examples for GRAM STAIN findings: GMNROD, GMNCOC, GMSQEPCE, GMPMNLOW. Examples for CULTURE PLATE findings: ORGANISM.", "label": "Microbiology Test or Finding Short Name", "name": "MBTESTCD", "ordinal": "8", "role": "Topic", "simpleDatatype": "Char"}, {"_links": {"modelClassVariable": {"href": "/mdr/sdtm/1-3/classes/Findings/variables/--TEST", "title": "Name of Measurement, Test or Examination", "type": "Class Variable"}, "parentDataset": {"href": "/mdr/sdtmig/3-1-3/datasets/MB", "title": "Microbiology Specimen", "type": "SDTM Dataset"}, "parentProduct": {"href": "/mdr/sdtmig/3-1-3", "title": "Study Data Tabulation Model Implementation Guide: Human Clinical Trials Version 3.1.3 (Final)", "type": "Implementation Guide"}, "priorVersion": {"href": "/mdr/sdtmig/3-1-2/datasets/MB/variables/MBTEST", "title": "Microbiology Test or Finding Name", "type": "SDTM Dataset Variable"}, "rootItem": {"href": "/mdr/root/sdtmig/datasets/MB/variables/MBTEST", "title": "Version-agnostic anchor resource for SDTMIG variable MB.MBTEST", "type": "Root Data Element"}, "self": {"href": "/mdr/sdtmig/3-1-3/datasets/MB/variables/MBTEST", "title": "Microbiology Test or Finding Name", "type": "SDTM Dataset Variable"}}, "core": "Req", "description": "Verbatim name of the test or examination used to obtain the measurement or finding. The value in MBTEST cannot be longer than 40 characters. Examples: GRAM NEGATIVE RODS, GRAM NEGATIVE COCCI, SQUAMOUS EPITHELIAL CELLS, PMN PER FIELD LOW, ORGANISM PRESENT", "label": "Microbiology Test or Finding Name", "name": "MBTEST", "ordinal": "9", "role": "Synonym Qualifier", "simpleDatatype": "Char"}, {"_links": {"modelClassVariable": {"href": "/mdr/sdtm/1-3/classes/Findings/variables/--CAT", "title": "Category", "type": "Class Variable"}, "parentDataset": {"href": "/mdr/sdtmig/3-1-3/datasets/MB", "title": "Microbiology Specimen", "type": "SDTM Dataset"}, "parentProduct": {"href": "/mdr/sdtmig/3-1-3", "title": "Study Data Tabulation Model Implementation Guide: Human Clinical Trials Version 3.1.3 (Final)", "type": "Implementation Guide"}, "priorVersion": {"href": "/mdr/sdtmig/3-1-2/datasets/MB/variables/MBCAT", "title": "Category for Microbiology Finding", "type": "SDTM Dataset Variable"}, "rootItem": {"href": "/mdr/root/sdtmig/datasets/MB/variables/MBCAT", "title": "Version-agnostic anchor resource for SDTMIG variable MB.MBCAT", "type": "Root Data Element"}, "self": {"href": "/mdr/sdtmig/3-1-3/datasets/MB/variables/MBCAT", "title": "Category for Microbiology Finding", "type": "SDTM Dataset Variable"}}, "core": "Perm", "description": "Used to define a category of related records.", "label": "Category for Microbiology Finding", "name": "MBCAT", "ordinal": "10", "role": "Grouping Qualifier", "simpleDatatype": "Char"}, {"_links": {"modelClassVariable": {"href": "/mdr/sdtm/1-3/classes/Findings/variables/--SCAT", "title": "Subcategory", "type": "Class Variable"}, "parentDataset": {"href": "/mdr/sdtmig/3-1-3/datasets/MB", "title": "Microbiology Specimen", "type": "SDTM Dataset"}, "parentProduct": {"href": "/mdr/sdtmig/3-1-3", "title": "Study Data Tabulation Model Implementation Guide: Human Clinical Trials Version 3.1.3 (Final)", "type": "Implementation Guide"}, "priorVersion": {"href": "/mdr/sdtmig/3-1-2/datasets/MB/variables/MBSCAT", "title": "Subcategory for Microbiology Finding", "type": "SDTM Dataset Variable"}, "rootItem": {"href": "/mdr/root/sdtmig/datasets/MB/variables/MBSCAT", "title": "Version-agnostic anchor resource for SDTMIG variable MB.MBSCAT", "type": "Root Data Element"}, "self": {"href": "/mdr/sdtmig/3-1-3/datasets/MB/variables/MBSCAT", "title": "Subcategory for Microbiology Finding", "type": "SDTM Dataset Variable"}}, "core": "Perm", "description": "Used to define a further categorization of MBCAT.", "label": "Subcategory for Microbiology Finding", "name": "MBSCAT", "ordinal": "11", "role": "Grouping Qualifier", "simpleDatatype": "Char"}, {"_links": {"modelClassVariable": {"href": "/mdr/sdtm/1-3/classes/Findings/variables/--ORRES", "title": "Result or Finding in Original Units", "type": "Class Variable"}, "parentDataset": {"href": "/mdr/sdtmig/3-1-3/datasets/MB", "title": "Microbiology Specimen", "type": "SDTM Dataset"}, "parentProduct": {"href": "/mdr/sdtmig/3-1-3", "title": "Study Data Tabulation Model Implementation Guide: Human Clinical Trials Version 3.1.3 (Final)", "type": "Implementation Guide"}, "priorVersion": {"href": "/mdr/sdtmig/3-1-2/datasets/MB/variables/MBORRES", "title": "Result or Finding in Original Units", "type": "SDTM Dataset Variable"}, "rootItem": {"href": "/mdr/root/sdtmig/datasets/MB/variables/MBORRES", "title": "Version-agnostic anchor resource for SDTMIG variable MB.MBORRES", "type": "Root Data Element"}, "self": {"href": "/mdr/sdtmig/3-1-3/datasets/MB/variables/MBORRES", "title": "Result or Finding in Original Units", "type": "SDTM Dataset Variable"}}, "core": "Exp", "description": "Result of the Microbiology measurement or finding as originally received or collected. Examples for GRAM STAIN findings: +3 MODERATE, +2 FEW, <10. Examples for CULTURE PLATE (ORGANISM) findings: KLEBSIELLA PNEUMONIAE, STREPTOCOCCUS PNEUMONIAE PENICILLIN RESISTANT.", "label": "Result or Finding in Original Units", "name": "MBORRES", "ordinal": "12", "role": "Result Qualifier", "simpleDatatype": "Char"}, {"_links": {"codelist": [{"href": "/mdr/root/ct/sdtmct/codelists/C71620", "title": "Version-agnostic anchor resource for codelist C71620", "type": "Root Value Domain"}], "modelClassVariable": {"href": "/mdr/sdtm/1-3/classes/Findings/variables/--ORRESU", "title": "Original Units", "type": "Class Variable"}, "parentDataset": {"href": "/mdr/sdtmig/3-1-3/datasets/MB", "title": "Microbiology Specimen", "type": "SDTM Dataset"}, "parentProduct": {"href": "/mdr/sdtmig/3-1-3", "title": "Study Data Tabulation Model Implementation Guide: Human Clinical Trials Version 3.1.3 (Final)", "type": "Implementation Guide"}, "priorVersion": {"href": "/mdr/sdtmig/3-1-2/datasets/MB/variables/MBORRESU", "title": "Original Units", "type": "SDTM Dataset Variable"}, "rootItem": {"href": "/mdr/root/sdtmig/datasets/MB/variables/MBORRESU", "title": "Version-agnostic anchor resource for SDTMIG variable MB.MBORRESU", "type": "Root Data Element"}, "self": {"href": "/mdr/sdtmig/3-1-3/datasets/MB/variables/MBORRESU", "title": "Original Units", "type": "SDTM Dataset Variable"}}, "core": "Perm", "description": "Original unit for MBORRES. Example: mcg/mL", "label": "Original Units", "name": "MBORRESU", "ordinal": "13", "role": "Variable Qualifier", "simpleDatatype": "Char"}, {"_links": {"modelClassVariable": {"href": "/mdr/sdtm/1-3/classes/Findings/variables/--STRESC", "title": "Result or Finding in Standard Format", "type": "Class Variable"}, "parentDataset": {"href": "/mdr/sdtmig/3-1-3/datasets/MB", "title": "Microbiology Specimen", "type": "SDTM Dataset"}, "parentProduct": {"href": "/mdr/sdtmig/3-1-3", "title": "Study Data Tabulation Model Implementation Guide: Human Clinical Trials Version 3.1.3 (Final)", "type": "Implementation Guide"}, "priorVersion": {"href": "/mdr/sdtmig/3-1-2/datasets/MB/variables/MBSTRESC", "title": "Character Result/Finding in Std Format", "type": "SDTM Dataset Variable"}, "rootItem": {"href": "/mdr/root/sdtmig/datasets/MB/variables/MBSTRESC", "title": "Version-agnostic anchor resource for SDTMIG variable MB.MBSTRESC", "type": "Root Data Element"}, "self": {"href": "/mdr/sdtmig/3-1-3/datasets/MB/variables/MBSTRESC", "title": "Character Result/Finding in Std Format", "type": "SDTM Dataset Variable"}}, "core": "Exp", "description": "Contains the result value for all findings, copied or derived from MBORRES in a standard format or standard units. MBSTRESC should store all results or findings in character format; if results are numeric, they should also be stored in numeric format in MBSTRESN. For example, if a test has results \"+3 MODERATE\", \"MOD\", and \"MODERATE\" in MBORRES and these results effectively have the same meaning, they could be represented in standard format in MBSTRESC as \"MODERATE\".", "label": "Character Result/Finding in Std Format", "name": "MBSTRESC", "ordinal": "14", "role": "Result Qualifier", "simpleDatatype": "Char"}, {"_links": {"modelClassVariable": {"href": "/mdr/sdtm/1-3/classes/Findings/variables/--STRESN", "title": "Numeric Result/Finding in Standard Units", "type": "Class Variable"}, "parentDataset": {"href": "/mdr/sdtmig/3-1-3/datasets/MB", "title": "Microbiology Specimen", "type": "SDTM Dataset"}, "parentProduct": {"href": "/mdr/sdtmig/3-1-3", "title": "Study Data Tabulation Model Implementation Guide: Human Clinical Trials Version 3.1.3 (Final)", "type": "Implementation Guide"}, "priorVersion": {"href": "/mdr/sdtmig/3-1-2/datasets/MB/variables/MBSTRESN", "title": "Numeric Result/Finding in Standard Units", "type": "SDTM Dataset Variable"}, "rootItem": {"href": "/mdr/root/sdtmig/datasets/MB/variables/MBSTRESN", "title": "Version-agnostic anchor resource for SDTMIG variable MB.MBSTRESN", "type": "Root Data Element"}, "self": {"href": "/mdr/sdtmig/3-1-3/datasets/MB/variables/MBSTRESN", "title": "Numeric Result/Finding in Standard Units", "type": "SDTM Dataset Variable"}}, "core": "Perm", "description": "Used for continuous or numeric results or findings in standard format; copied in numeric format from MBSTRESC. MBSTRESN should store all numeric test results or findings.", "label": "Numeric Result/Finding in Standard Units", "name": "MBSTRESN", "ordinal": "15", "role": "Result Qualifier", "simpleDatatype": "Num"}, {"_links": {"codelist": [{"href": "/mdr/root/ct/sdtmct/codelists/C71620", "title": "Version-agnostic anchor resource for codelist C71620", "type": "Root Value Domain"}], "modelClassVariable": {"href": "/mdr/sdtm/1-3/classes/Findings/variables/--STRESU", "title": "Standard Units", "type": "Class Variable"}, "parentDataset": {"href": "/mdr/sdtmig/3-1-3/datasets/MB", "title": "Microbiology Specimen", "type": "SDTM Dataset"}, "parentProduct": {"href": "/mdr/sdtmig/3-1-3", "title": "Study Data Tabulation Model Implementation Guide: Human Clinical Trials Version 3.1.3 (Final)", "type": "Implementation Guide"}, "priorVersion": {"href": "/mdr/sdtmig/3-1-2/datasets/MB/variables/MBSTRESU", "title": "Standard Units", "type": "SDTM Dataset Variable"}, "rootItem": {"href": "/mdr/root/sdtmig/datasets/MB/variables/MBSTRESU", "title": "Version-agnostic anchor resource for SDTMIG variable MB.MBSTRESU", "type": "Root Data Element"}, "self": {"href": "/mdr/sdtmig/3-1-3/datasets/MB/variables/MBSTRESU", "title": "Standard Units", "type": "SDTM Dataset Variable"}}, "core": "Perm", "description": "Standardized unit used for MBSTRESC and MBSTRESN.", "label": "Standard Units", "name": "MBSTRESU", "ordinal": "16", "role": "Variable Qualifier", "simpleDatatype": "Char"}, {"_links": {"modelClassVariable": {"href": "/mdr/sdtm/1-3/classes/Findings/variables/--RESCAT", "title": "Result Category", "type": "Class Variable"}, "parentDataset": {"href": "/mdr/sdtmig/3-1-3/datasets/MB", "title": "Microbiology Specimen", "type": "SDTM Dataset"}, "parentProduct": {"href": "/mdr/sdtmig/3-1-3", "title": "Study Data Tabulation Model Implementation Guide: Human Clinical Trials Version 3.1.3 (Final)", "type": "Implementation Guide"}, "priorVersion": {"href": "/mdr/sdtmig/3-1-2/datasets/MB/variables/MBRESCAT", "title": "Result Category", "type": "SDTM Dataset Variable"}, "rootItem": {"href": "/mdr/root/sdtmig/datasets/MB/variables/MBRESCAT", "title": "Version-agnostic anchor resource for SDTMIG variable MB.MBRESCAT", "type": "Root Data Element"}, "self": {"href": "/mdr/sdtmig/3-1-3/datasets/MB/variables/MBRESCAT", "title": "Result Category", "type": "SDTM Dataset Variable"}}, "core": "Exp", "description": "Used to categorize the result of a finding in a standard format. Example for ORGANISM finding: INFECTING, COLONIZER, CONTAMINANT, or NORMAL FLORA.", "label": "Result Category", "name": "MBRESCAT", "ordinal": "17", "role": "Variable Qualifier", "simpleDatatype": "Char"}, {"_links": {"codelist": [{"href": "/mdr/root/ct/sdtmct/codelists/C66789", "title": "Version-agnostic anchor resource for codelist C66789", "type": "Root Value Domain"}], "modelClassVariable": {"href": "/mdr/sdtm/1-3/classes/Findings/variables/--STAT", "title": "Completion Status", "type": "Class Variable"}, "parentDataset": {"href": "/mdr/sdtmig/3-1-3/datasets/MB", "title": "Microbiology Specimen", "type": "SDTM Dataset"}, "parentProduct": {"href": "/mdr/sdtmig/3-1-3", "title": "Study Data Tabulation Model Implementation Guide: Human Clinical Trials Version 3.1.3 (Final)", "type": "Implementation Guide"}, "priorVersion": {"href": "/mdr/sdtmig/3-1-2/datasets/MB/variables/MBSTAT", "title": "Completion Status", "type": "SDTM Dataset Variable"}, "rootItem": {"href": "/mdr/root/sdtmig/datasets/MB/variables/MBSTAT", "title": "Version-agnostic anchor resource for SDTMIG variable MB.MBSTAT", "type": "Root Data Element"}, "self": {"href": "/mdr/sdtmig/3-1-3/datasets/MB/variables/MBSTAT", "title": "Completion Status", "type": "SDTM Dataset Variable"}}, "core": "Perm", "description": "Used to indicate Microbiology was not done, or a test was not done. Should be null or have a value of NOT DONE.", "label": "Completion Status", "name": "MBSTAT", "ordinal": "18", "role": "Record Qualifier", "simpleDatatype": "Char"}, {"_links": {"modelClassVariable": {"href": "/mdr/sdtm/1-3/classes/Findings/variables/--REASND", "title": "Reason Not Done", "type": "Class Variable"}, "parentDataset": {"href": "/mdr/sdtmig/3-1-3/datasets/MB", "title": "Microbiology Specimen", "type": "SDTM Dataset"}, "parentProduct": {"href": "/mdr/sdtmig/3-1-3", "title": "Study Data Tabulation Model Implementation Guide: Human Clinical Trials Version 3.1.3 (Final)", "type": "Implementation Guide"}, "priorVersion": {"href": "/mdr/sdtmig/3-1-2/datasets/MB/variables/MBREASND", "title": "Reason Microbiology Not Performed", "type": "SDTM Dataset Variable"}, "rootItem": {"href": "/mdr/root/sdtmig/datasets/MB/variables/MBREASND", "title": "Version-agnostic anchor resource for SDTMIG variable MB.MBREASND", "type": "Root Data Element"}, "self": {"href": "/mdr/sdtmig/3-1-3/datasets/MB/variables/MBREASND", "title": "Reason Microbiology Not Performed", "type": "SDTM Dataset Variable"}}, "core": "Perm", "description": "Reason not done. Used in conjunction with MBSTAT when value is NOT DONE. Examples: BROKEN EQUIPMENT or SUBJECT REFUSED.", "label": "Reason Microbiology Not Performed", "name": "MBREASND", "ordinal": "19", "role": "Record Qualifier", "simpleDatatype": "Char"}, {"_links": {"modelClassVariable": {"href": "/mdr/sdtm/1-3/classes/Findings/variables/--NAM", "title": "Laboratory/Vendor Name", "type": "Class Variable"}, "parentDataset": {"href": "/mdr/sdtmig/3-1-3/datasets/MB", "title": "Microbiology Specimen", "type": "SDTM Dataset"}, "parentProduct": {"href": "/mdr/sdtmig/3-1-3", "title": "Study Data Tabulation Model Implementation Guide: Human Clinical Trials Version 3.1.3 (Final)", "type": "Implementation Guide"}, "priorVersion": {"href": "/mdr/sdtmig/3-1-2/datasets/MB/variables/MBNAM", "title": "Vendor Name", "type": "SDTM Dataset Variable"}, "rootItem": {"href": "/mdr/root/sdtmig/datasets/MB/variables/MBNAM", "title": "Version-agnostic anchor resource for SDTMIG variable MB.MBNAM", "type": "Root Data Element"}, "self": {"href": "/mdr/sdtmig/3-1-3/datasets/MB/variables/MBNAM", "title": "Vendor Name", "type": "SDTM Dataset Variable"}}, "core": "Perm", "description": "Name or identifier of the laboratory or vendor who provides the test results.", "label": "Vendor Name", "name": "MBNAM", "ordinal": "20", "role": "Record Qualifier", "simpleDatatype": "Char"}, {"_links": {"modelClassVariable": {"href": "/mdr/sdtm/1-3/classes/Findings/variables/--LOINC", "title": "LOINC Code", "type": "Class Variable"}, "parentDataset": {"href": "/mdr/sdtmig/3-1-3/datasets/MB", "title": "Microbiology Specimen", "type": "SDTM Dataset"}, "parentProduct": {"href": "/mdr/sdtmig/3-1-3", "title": "Study Data Tabulation Model Implementation Guide: Human Clinical Trials Version 3.1.3 (Final)", "type": "Implementation Guide"}, "priorVersion": {"href": "/mdr/sdtmig/3-1-2/datasets/MB/variables/MBLOINC", "title": "LOINC Code", "type": "SDTM Dataset Variable"}, "rootItem": {"href": "/mdr/root/sdtmig/datasets/MB/variables/MBLOINC", "title": "Version-agnostic anchor resource for SDTMIG variable MB.MBLOINC", "type": "Root Data Element"}, "self": {"href": "/mdr/sdtmig/3-1-3/datasets/MB/variables/MBLOINC", "title": "LOINC Code", "type": "SDTM Dataset Variable"}}, "core": "Perm", "description": "1. Dictionary-derived LOINC Code for MBTEST. 2. The sponsor is expected to provide the dictionary name and version used to map the terms utilizing the define.xml external codelist attributes", "label": "LOINC Code", "name": "MBLOINC", "ordinal": "21", "role": "Synonym Qualifier", "simpleDatatype": "Char"}, {"_links": {"modelClassVariable": {"href": "/mdr/sdtm/1-3/classes/Findings/variables/--SPEC", "title": "Specimen Material Type", "type": "Class Variable"}, "parentDataset": {"href": "/mdr/sdtmig/3-1-3/datasets/MB", "title": "Microbiology Specimen", "type": "SDTM Dataset"}, "parentProduct": {"href": "/mdr/sdtmig/3-1-3", "title": "Study Data Tabulation Model Implementation Guide: Human Clinical Trials Version 3.1.3 (Final)", "type": "Implementation Guide"}, "priorVersion": {"href": "/mdr/sdtmig/3-1-2/datasets/MB/variables/MBSPEC", "title": "Specimen Type", "type": "SDTM Dataset Variable"}, "rootItem": {"href": "/mdr/root/sdtmig/datasets/MB/variables/MBSPEC", "title": "Version-agnostic anchor resource for SDTMIG variable MB.MBSPEC", "type": "Root Data Element"}, "self": {"href": "/mdr/sdtmig/3-1-3/datasets/MB/variables/MBSPEC", "title": "Specimen Type", "type": "SDTM Dataset Variable"}}, "core": "Perm", "description": "Defines the type of specimen used for a measurement. Examples: SPUTUM, BLOOD, PUS.", "label": "Specimen Type", "name": "MBSPEC", "ordinal": "22", "role": "Record Qualifier", "simpleDatatype": "Char"}, {"_links": {"modelClassVariable": {"href": "/mdr/sdtm/1-3/classes/Findings/variables/--SPCCND", "title": "Specimen Condition", "type": "Class Variable"}, "parentDataset": {"href": "/mdr/sdtmig/3-1-3/datasets/MB", "title": "Microbiology Specimen", "type": "SDTM Dataset"}, "parentProduct": {"href": "/mdr/sdtmig/3-1-3", "title": "Study Data Tabulation Model Implementation Guide: Human Clinical Trials Version 3.1.3 (Final)", "type": "Implementation Guide"}, "priorVersion": {"href": "/mdr/sdtmig/3-1-2/datasets/MB/variables/MBSPCCND", "title": "Specimen Condition", "type": "SDTM Dataset Variable"}, "rootItem": {"href": "/mdr/root/sdtmig/datasets/MB/variables/MBSPCCND", "title": "Version-agnostic anchor resource for SDTMIG variable MB.MBSPCCND", "type": "Root Data Element"}, "self": {"href": "/mdr/sdtmig/3-1-3/datasets/MB/variables/MBSPCCND", "title": "Specimen Condition", "type": "SDTM Dataset Variable"}}, "core": "Perm", "description": "Free or standardized text describing the condition of the specimen. Example: CONTAMINATED.", "label": "Specimen Condition", "name": "MBSPCCND", "ordinal": "23", "role": "Record Qualifier", "simpleDatatype": "Char"}, {"_links": {"codelist": [{"href": "/mdr/root/ct/sdtmct/codelists/C74456", "title": "Version-agnostic anchor resource for codelist C74456", "type": "Root Value Domain"}], "modelClassVariable": {"href": "/mdr/sdtm/1-3/classes/Findings/variables/--LOC", "title": "Location Used for the Measurement", "type": "Class Variable"}, "parentDataset": {"href": "/mdr/sdtmig/3-1-3/datasets/MB", "title": "Microbiology Specimen", "type": "SDTM Dataset"}, "parentProduct": {"href": "/mdr/sdtmig/3-1-3", "title": "Study Data Tabulation Model Implementation Guide: Human Clinical Trials Version 3.1.3 (Final)", "type": "Implementation Guide"}, "priorVersion": {"href": "/mdr/sdtmig/3-1-2/datasets/MB/variables/MBLOC", "title": "Specimen Collection Location", "type": "SDTM Dataset Variable"}, "rootItem": {"href": "/mdr/root/sdtmig/datasets/MB/variables/MBLOC", "title": "Version-agnostic anchor resource for SDTMIG variable MB.MBLOC", "type": "Root Data Element"}, "self": {"href": "/mdr/sdtmig/3-1-3/datasets/MB/variables/MBLOC", "title": "Specimen Collection Location", "type": "SDTM Dataset Variable"}}, "core": "Perm", "description": "Location relevant to the collection of the measurement. Examples: LUNG, VEIN, LEFT KNEE WOUND, ARM ULCER 1, RIGHT THIGH LATERAL", "label": "Specimen Collection Location", "name": "MBLOC", "ordinal": "24", "role": "Record Qualifier", "simpleDatatype": "Char"}, {"_links": {"modelClassVariable": {"href": "/mdr/sdtm/1-3/classes/Findings/variables/--METHOD", "title": "Method of Test or Examination", "type": "Class Variable"}, "parentDataset": {"href": "/mdr/sdtmig/3-1-3/datasets/MB", "title": "Microbiology Specimen", "type": "SDTM Dataset"}, "parentProduct": {"href": "/mdr/sdtmig/3-1-3", "title": "Study Data Tabulation Model Implementation Guide: Human Clinical Trials Version 3.1.3 (Final)", "type": "Implementation Guide"}, "priorVersion": {"href": "/mdr/sdtmig/3-1-2/datasets/MB/variables/MBMETHOD", "title": "Method of Test or Examination", "type": "SDTM Dataset Variable"}, "rootItem": {"href": "/mdr/root/sdtmig/datasets/MB/variables/MBMETHOD", "title": "Version-agnostic anchor resource for SDTMIG variable MB.MBMETHOD", "type": "Root Data Element"}, "self": {"href": "/mdr/sdtmig/3-1-3/datasets/MB/variables/MBMETHOD", "title": "Method of Test or Examination", "type": "SDTM Dataset Variable"}}, "core": "Exp", "description": "Method of the test or examination. Examples: GRAM STAIN, CULTURE PLATE, BROTH.", "label": "Method of Test or Examination", "name": "MBMETHOD", "ordinal": "25", "role": "Record Qualifier", "simpleDatatype": "Char"}, {"_links": {"codelist": [{"href": "/mdr/root/ct/sdtmct/codelists/C66742", "title": "Version-agnostic anchor resource for codelist C66742", "type": "Root Value Domain"}], "modelClassVariable": {"href": "/mdr/sdtm/1-3/classes/Findings/variables/--BLFL", "title": "Baseline Flag", "type": "Class Variable"}, "parentDataset": {"href": "/mdr/sdtmig/3-1-3/datasets/MB", "title": "Microbiology Specimen", "type": "SDTM Dataset"}, "parentProduct": {"href": "/mdr/sdtmig/3-1-3", "title": "Study Data Tabulation Model Implementation Guide: Human Clinical Trials Version 3.1.3 (Final)", "type": "Implementation Guide"}, "priorVersion": {"href": "/mdr/sdtmig/3-1-2/datasets/MB/variables/MBBLFL", "title": "Baseline Flag", "type": "SDTM Dataset Variable"}, "rootItem": {"href": "/mdr/root/sdtmig/datasets/MB/variables/MBBLFL", "title": "Version-agnostic anchor resource for SDTMIG variable MB.MBBLFL", "type": "Root Data Element"}, "self": {"href": "/mdr/sdtmig/3-1-3/datasets/MB/variables/MBBLFL", "title": "Baseline Flag", "type": "SDTM Dataset Variable"}}, "core": "Perm", "description": "Indicator used to identify a baseline value. The value should be \"Y\" or null.", "label": "Baseline Flag", "name": "MBBLFL", "ordinal": "26", "role": "Record Qualifier", "simpleDatatype": "Char"}, {"_links": {"codelist": [{"href": "/mdr/root/ct/sdtmct/codelists/C66742", "title": "Version-agnostic anchor resource for codelist C66742", "type": "Root Value Domain"}], "modelClassVariable": {"href": "/mdr/sdtm/1-3/classes/Findings/variables/--DRVFL", "title": "Derived Flag", "type": "Class Variable"}, "parentDataset": {"href": "/mdr/sdtmig/3-1-3/datasets/MB", "title": "Microbiology Specimen", "type": "SDTM Dataset"}, "parentProduct": {"href": "/mdr/sdtmig/3-1-3", "title": "Study Data Tabulation Model Implementation Guide: Human Clinical Trials Version 3.1.3 (Final)", "type": "Implementation Guide"}, "priorVersion": {"href": "/mdr/sdtmig/3-1-2/datasets/MB/variables/MBDRVFL", "title": "Derived Flag", "type": "SDTM Dataset Variable"}, "rootItem": {"href": "/mdr/root/sdtmig/datasets/MB/variables/MBDRVFL", "title": "Version-agnostic anchor resource for SDTMIG variable MB.MBDRVFL", "type": "Root Data Element"}, "self": {"href": "/mdr/sdtmig/3-1-3/datasets/MB/variables/MBDRVFL", "title": "Derived Flag", "type": "SDTM Dataset Variable"}}, "core": "Perm", "description": "Used to indicate a derived record. The value should be Y or null. Records that represent the average of other records or some other derivation, and those that do not come from the CRF, are examples of records that would be derived for the submission datasets. If MBDRVFL=Y, then MBORRES may be null with MBSTRESC and (if numeric) MBSTRESN having the derived value.", "label": "Derived Flag", "name": "MBDRVFL", "ordinal": "27", "role": "Record Qualifier", "simpleDatatype": "Char"}, {"_links": {"modelClassVariable": {"href": "/mdr/sdtm/1-3/classes/GeneralObservations/variables/VISITNUM", "title": "Visit Number", "type": "Class Variable"}, "parentDataset": {"href": "/mdr/sdtmig/3-1-3/datasets/MB", "title": "Microbiology Specimen", "type": "SDTM Dataset"}, "parentProduct": {"href": "/mdr/sdtmig/3-1-3", "title": "Study Data Tabulation Model Implementation Guide: Human Clinical Trials Version 3.1.3 (Final)", "type": "Implementation Guide"}, "priorVersion": {"href": "/mdr/sdtmig/3-1-2/datasets/MB/variables/VISITNUM", "title": "Visit Number", "type": "SDTM Dataset Variable"}, "rootItem": {"href": "/mdr/root/sdtmig/datasets/MB/variables/VISITNUM", "title": "Version-agnostic anchor resource for SDTMIG variable MB.VISITNUM", "type": "Root Data Element"}, "self": {"href": "/mdr/sdtmig/3-1-3/datasets/MB/variables/VISITNUM", "title": "Visit Number", "type": "SDTM Dataset Variable"}}, "core": "Exp", "description": "1. Clinical encounter number. 2. Numeric version of VISIT, used for sorting.", "label": "Visit Number", "name": "VISITNUM", "ordinal": "28", "role": "Timing", "simpleDatatype": "Num"}, {"_links": {"modelClassVariable": {"href": "/mdr/sdtm/1-3/classes/GeneralObservations/variables/VISIT", "title": "Visit Name", "type": "Class Variable"}, "parentDataset": {"href": "/mdr/sdtmig/3-1-3/datasets/MB", "title": "Microbiology Specimen", "type": "SDTM Dataset"}, "parentProduct": {"href": "/mdr/sdtmig/3-1-3", "title": "Study Data Tabulation Model Implementation Guide: Human Clinical Trials Version 3.1.3 (Final)", "type": "Implementation Guide"}, "priorVersion": {"href": "/mdr/sdtmig/3-1-2/datasets/MB/variables/VISIT", "title": "Visit Name", "type": "SDTM Dataset Variable"}, "rootItem": {"href": "/mdr/root/sdtmig/datasets/MB/variables/VISIT", "title": "Version-agnostic anchor resource for SDTMIG variable MB.VISIT", "type": "Root Data Element"}, "self": {"href": "/mdr/sdtmig/3-1-3/datasets/MB/variables/VISIT", "title": "Visit Name", "type": "SDTM Dataset Variable"}}, "core": "Perm", "description": "1. Protocol-defined description of clinical encounter. 2. May be used in addition to VISITNUM and/or VISITDY.", "label": "Visit Name", "name": "VISIT", "ordinal": "29", "role": "Timing", "simpleDatatype": "Char"}, {"_links": {"modelClassVariable": {"href": "/mdr/sdtm/1-3/classes/GeneralObservations/variables/VISITDY", "title": "Planned Study Day of Visit", "type": "Class Variable"}, "parentDataset": {"href": "/mdr/sdtmig/3-1-3/datasets/MB", "title": "Microbiology Specimen", "type": "SDTM Dataset"}, "parentProduct": {"href": "/mdr/sdtmig/3-1-3", "title": "Study Data Tabulation Model Implementation Guide: Human Clinical Trials Version 3.1.3 (Final)", "type": "Implementation Guide"}, "priorVersion": {"href": "/mdr/sdtmig/3-1-2/datasets/MB/variables/VISITDY", "title": "Planned Study Day of Visit", "type": "SDTM Dataset Variable"}, "rootItem": {"href": "/mdr/root/sdtmig/datasets/MB/variables/VISITDY", "title": "Version-agnostic anchor resource for SDTMIG variable MB.VISITDY", "type": "Root Data Element"}, "self": {"href": "/mdr/sdtmig/3-1-3/datasets/MB/variables/VISITDY", "title": "Planned Study Day of Visit", "type": "SDTM Dataset Variable"}}, "core": "Perm", "description": "Planned study day of the visit based upon RFSTDTC in Demographics.", "label": "Planned Study Day of Visit", "name": "VISITDY", "ordinal": "30", "role": "Timing", "simpleDatatype": "Num"}, {"_links": {"modelClassVariable": {"href": "/mdr/sdtm/1-3/classes/GeneralObservations/variables/--DTC", "title": "Date/Time of Collection", "type": "Class Variable"}, "parentDataset": {"href": "/mdr/sdtmig/3-1-3/datasets/MB", "title": "Microbiology Specimen", "type": "SDTM Dataset"}, "parentProduct": {"href": "/mdr/sdtmig/3-1-3", "title": "Study Data Tabulation Model Implementation Guide: Human Clinical Trials Version 3.1.3 (Final)", "type": "Implementation Guide"}, "priorVersion": {"href": "/mdr/sdtmig/3-1-2/datasets/MB/variables/MBDTC", "title": "Date/Time of Specimen Collection", "type": "SDTM Dataset Variable"}, "rootItem": {"href": "/mdr/root/sdtmig/datasets/MB/variables/MBDTC", "title": "Version-agnostic anchor resource for SDTMIG variable MB.MBDTC", "type": "Root Data Element"}, "self": {"href": "/mdr/sdtmig/3-1-3/datasets/MB/variables/MBDTC", "title": "Date/Time of Specimen Collection", "type": "SDTM Dataset Variable"}}, "core": "Exp", "describedValueDomain": "ISO 8601", "label": "Date/Time of Specimen Collection", "name": "MBDTC", "ordinal": "31", "role": "Timing", "simpleDatatype": "Char"}, {"_links": {"modelClassVariable": {"href": "/mdr/sdtm/1-3/classes/GeneralObservations/variables/--DY", "title": "Study Day of Visit/Collection/Exam", "type": "Class Variable"}, "parentDataset": {"href": "/mdr/sdtmig/3-1-3/datasets/MB", "title": "Microbiology Specimen", "type": "SDTM Dataset"}, "parentProduct": {"href": "/mdr/sdtmig/3-1-3", "title": "Study Data Tabulation Model Implementation Guide: Human Clinical Trials Version 3.1.3 (Final)", "type": "Implementation Guide"}, "priorVersion": {"href": "/mdr/sdtmig/3-1-2/datasets/MB/variables/MBDY", "title": "Study Day of MB Specimen Collection", "type": "SDTM Dataset Variable"}, "rootItem": {"href": "/mdr/root/sdtmig/datasets/MB/variables/MBDY", "title": "Version-agnostic anchor resource for SDTMIG variable MB.MBDY", "type": "Root Data Element"}, "self": {"href": "/mdr/sdtmig/3-1-3/datasets/MB/variables/MBDY", "title": "Study Day of MB Specimen Collection", "type": "SDTM Dataset Variable"}}, "core": "Perm", "description": "1. Study day of the specimen collection, measured as integer days. 2. Algorithm for calculations must be relative to the sponsor-defined RFSTDTC variable in Demographics. This formula should be consistent across the submission.", "label": "Study Day of MB Specimen Collection", "name": "MBDY", "ordinal": "32", "role": "Timing", "simpleDatatype": "Num"}, {"_links": {"modelClassVariable": {"href": "/mdr/sdtm/1-3/classes/GeneralObservations/variables/--TPT", "title": "Planned Time Point Name", "type": "Class Variable"}, "parentDataset": {"href": "/mdr/sdtmig/3-1-3/datasets/MB", "title": "Microbiology Specimen", "type": "SDTM Dataset"}, "parentProduct": {"href": "/mdr/sdtmig/3-1-3", "title": "Study Data Tabulation Model Implementation Guide: Human Clinical Trials Version 3.1.3 (Final)", "type": "Implementation Guide"}, "priorVersion": {"href": "/mdr/sdtmig/3-1-2/datasets/MB/variables/MBTPT", "title": "Planned Time Point Name", "type": "SDTM Dataset Variable"}, "rootItem": {"href": "/mdr/root/sdtmig/datasets/MB/variables/MBTPT", "title": "Version-agnostic anchor resource for SDTMIG variable MB.MBTPT", "type": "Root Data Element"}, "self": {"href": "/mdr/sdtmig/3-1-3/datasets/MB/variables/MBTPT", "title": "Planned Time Point Name", "type": "SDTM Dataset Variable"}}, "core": "Perm", "description": "1. Text Description of time when specimen should be taken. 2. This may be represented as an elapsed time relative to a fixed reference point, such as time of last dose. See MBTPTNUM and MBTPTREF. Examples: Start, 5 min post.", "label": "Planned Time Point Name", "name": "MBTPT", "ordinal": "33", "role": "Timing", "simpleDatatype": "Char"}, {"_links": {"modelClassVariable": {"href": "/mdr/sdtm/1-3/classes/GeneralObservations/variables/--TPTNUM", "title": "Planned Time Point Number", "type": "Class Variable"}, "parentDataset": {"href": "/mdr/sdtmig/3-1-3/datasets/MB", "title": "Microbiology Specimen", "type": "SDTM Dataset"}, "parentProduct": {"href": "/mdr/sdtmig/3-1-3", "title": "Study Data Tabulation Model Implementation Guide: Human Clinical Trials Version 3.1.3 (Final)", "type": "Implementation Guide"}, "priorVersion": {"href": "/mdr/sdtmig/3-1-2/datasets/MB/variables/MBTPTNUM", "title": "Planned Time Point Number", "type": "SDTM Dataset Variable"}, "rootItem": {"href": "/mdr/root/sdtmig/datasets/MB/variables/MBTPTNUM", "title": "Version-agnostic anchor resource for SDTMIG variable MB.MBTPTNUM", "type": "Root Data Element"}, "self": {"href": "/mdr/sdtmig/3-1-3/datasets/MB/variables/MBTPTNUM", "title": "Planned Time Point Number", "type": "SDTM Dataset Variable"}}, "core": "Perm", "description": "Numerical version of MBTPT to aid in sorting.", "label": "Planned Time Point Number", "name": "MBTPTNUM", "ordinal": "34", "role": "Timing", "simpleDatatype": "Num"}, {"_links": {"modelClassVariable": {"href": "/mdr/sdtm/1-3/classes/GeneralObservations/variables/--ELTM", "title": "Planned Elapsed Time from Time Point Ref", "type": "Class Variable"}, "parentDataset": {"href": "/mdr/sdtmig/3-1-3/datasets/MB", "title": "Microbiology Specimen", "type": "SDTM Dataset"}, "parentProduct": {"href": "/mdr/sdtmig/3-1-3", "title": "Study Data Tabulation Model Implementation Guide: Human Clinical Trials Version 3.1.3 (Final)", "type": "Implementation Guide"}, "priorVersion": {"href": "/mdr/sdtmig/3-1-2/datasets/MB/variables/MBELTM", "title": "Planned Elapsed Time from Time Point Ref", "type": "SDTM Dataset Variable"}, "rootItem": {"href": "/mdr/root/sdtmig/datasets/MB/variables/MBELTM", "title": "Version-agnostic anchor resource for SDTMIG variable MB.MBELTM", "type": "Root Data Element"}, "self": {"href": "/mdr/sdtmig/3-1-3/datasets/MB/variables/MBELTM", "title": "Planned Elapsed Time from Time Point Ref", "type": "SDTM Dataset Variable"}}, "core": "Perm", "describedValueDomain": "ISO 8601", "description": "Planned elapsed time (in ISO 8601) relative to a planned fixed reference (MBTPTREF). This variable is useful where there are repetitive measures. Not a clock time or a date time variable. Represented as an ISO 8601 duration. Examples: \"-PT15M\" to represent the period of 15 minutes prior to the reference point indicated by MBTPTREF, or \"PT8H\" to represent the period of 8 hours after the reference point indicated by MBTPTREF.", "label": "Planned Elapsed Time from Time Point Ref", "name": "MBELTM", "ordinal": "35", "role": "Timing", "simpleDatatype": "Char"}, {"_links": {"modelClassVariable": {"href": "/mdr/sdtm/1-3/classes/GeneralObservations/variables/--TPTREF", "title": "Time Point Reference", "type": "Class Variable"}, "parentDataset": {"href": "/mdr/sdtmig/3-1-3/datasets/MB", "title": "Microbiology Specimen", "type": "SDTM Dataset"}, "parentProduct": {"href": "/mdr/sdtmig/3-1-3", "title": "Study Data Tabulation Model Implementation Guide: Human Clinical Trials Version 3.1.3 (Final)", "type": "Implementation Guide"}, "priorVersion": {"href": "/mdr/sdtmig/3-1-2/datasets/MB/variables/MBTPTREF", "title": "Time Point Reference", "type": "SDTM Dataset Variable"}, "rootItem": {"href": "/mdr/root/sdtmig/datasets/MB/variables/MBTPTREF", "title": "Version-agnostic anchor resource for SDTMIG variable MB.MBTPTREF", "type": "Root Data Element"}, "self": {"href": "/mdr/sdtmig/3-1-3/datasets/MB/variables/MBTPTREF", "title": "Time Point Reference", "type": "SDTM Dataset Variable"}}, "core": "Perm", "description": "Name of the fixed reference point referred to by MBELTM, MBTPTNUM, and MBTPT. Example: PREVIOUS DOSE.", "label": "Time Point Reference", "name": "MBTPTREF", "ordinal": "36", "role": "Timing", "simpleDatatype": "Char"}, {"_links": {"modelClassVariable": {"href": "/mdr/sdtm/1-3/classes/GeneralObservations/variables/--RFTDTC", "title": "Date/Time of Reference Time Point", "type": "Class Variable"}, "parentDataset": {"href": "/mdr/sdtmig/3-1-3/datasets/MB", "title": "Microbiology Specimen", "type": "SDTM Dataset"}, "parentProduct": {"href": "/mdr/sdtmig/3-1-3", "title": "Study Data Tabulation Model Implementation Guide: Human Clinical Trials Version 3.1.3 (Final)", "type": "Implementation Guide"}, "priorVersion": {"href": "/mdr/sdtmig/3-1-2/datasets/MB/variables/MBRFTDTC", "title": "Date/Time of Reference Time Point", "type": "SDTM Dataset Variable"}, "rootItem": {"href": "/mdr/root/sdtmig/datasets/MB/variables/MBRFTDTC", "title": "Version-agnostic anchor resource for SDTMIG variable MB.MBRFTDTC", "type": "Root Data Element"}, "self": {"href": "/mdr/sdtmig/3-1-3/datasets/MB/variables/MBRFTDTC", "title": "Date/Time of Reference Time Point", "type": "SDTM Dataset Variable"}}, "core": "Perm", "describedValueDomain": "ISO 8601", "description": "Date/time of the reference time point, MBTPTREF.", "label": "Date/Time of Reference Time Point", "name": "MBRFTDTC", "ordinal": "37", "role": "Timing", "simpleDatatype": "Char"}], "description": "A findings domain that represents non-host organisms identified including bacteria, viruses, parasites, protozoa and fungi. (Source: CDISC Controlled Terminology, DOMAIN, C49602, 2018-06-29)", "label": "Microbiology Specimen", "name": "MB", "ordinal": "21"}
