{"_links": {"parentClass": {"href": "/mdr/sdtmig/3-1-3/classes/Findings", "title": "Findings Observation Class", "type": "Class"}, "parentProduct": {"href": "/mdr/sdtmig/3-1-3", "title": "Study Data Tabulation Model Implementation Guide: Human Clinical Trials Version 3.1.3 (Final)", "type": "Implementation Guide"}, "self": {"href": "/mdr/sdtmig/3-1-3/datasets/TR", "title": "Tumor Results", "type": "SDTM Dataset"}}, "datasetStructure": "One record per tumor measurement/assessment per visit per subject per assessor", "datasetVariables": [{"_links": {"modelClassVariable": {"href": "/mdr/sdtm/1-3/classes/GeneralObservations/variables/STUDYID", "title": "Study Identifier", "type": "Class Variable"}, "parentDataset": {"href": "/mdr/sdtmig/3-1-3/datasets/TR", "title": "Tumor Results", "type": "SDTM Dataset"}, "parentProduct": {"href": "/mdr/sdtmig/3-1-3", "title": "Study Data Tabulation Model Implementation Guide: Human Clinical Trials Version 3.1.3 (Final)", "type": "Implementation Guide"}, "rootItem": {"href": "/mdr/root/sdtmig/datasets/TR/variables/STUDYID", "title": "Version-agnostic anchor resource for SDTMIG variable TR.STUDYID", "type": "Root Data Element"}, "self": {"href": "/mdr/sdtmig/3-1-3/datasets/TR/variables/STUDYID", "title": "Study Identifier", "type": "SDTM Dataset Variable"}}, "core": "Req", "description": "Unique identifier for a study.", "label": "Study Identifier", "name": "STUDYID", "ordinal": "1", "role": "Identifier", "simpleDatatype": "Char"}, {"_links": {"modelClassVariable": {"href": "/mdr/sdtm/1-3/classes/GeneralObservations/variables/DOMAIN", "title": "Domain Abbreviation", "type": "Class Variable"}, "parentDataset": {"href": "/mdr/sdtmig/3-1-3/datasets/TR", "title": "Tumor Results", "type": "SDTM Dataset"}, "parentProduct": {"href": "/mdr/sdtmig/3-1-3", "title": "Study Data Tabulation Model Implementation Guide: Human Clinical Trials Version 3.1.3 (Final)", "type": "Implementation Guide"}, "rootItem": {"href": "/mdr/root/sdtmig/datasets/TR/variables/DOMAIN", "title": "Version-agnostic anchor resource for SDTMIG variable TR.DOMAIN", "type": "Root Data Element"}, "self": {"href": "/mdr/sdtmig/3-1-3/datasets/TR/variables/DOMAIN", "title": "Domain Abbreviation", "type": "SDTM Dataset Variable"}}, "core": "Req", "description": "Two-character abbreviation for the domain.", "label": "Domain Abbreviation", "name": "DOMAIN", "ordinal": "2", "role": "Identifier", "simpleDatatype": "Char", "valueList": ["TR"]}, {"_links": {"modelClassVariable": {"href": "/mdr/sdtm/1-3/classes/GeneralObservations/variables/USUBJID", "title": "Unique Subject Identifier", "type": "Class Variable"}, "parentDataset": {"href": "/mdr/sdtmig/3-1-3/datasets/TR", "title": "Tumor Results", "type": "SDTM Dataset"}, "parentProduct": {"href": "/mdr/sdtmig/3-1-3", "title": "Study Data Tabulation Model Implementation Guide: Human Clinical Trials Version 3.1.3 (Final)", "type": "Implementation Guide"}, "rootItem": {"href": "/mdr/root/sdtmig/datasets/TR/variables/USUBJID", "title": "Version-agnostic anchor resource for SDTMIG variable TR.USUBJID", "type": "Root Data Element"}, "self": {"href": "/mdr/sdtmig/3-1-3/datasets/TR/variables/USUBJID", "title": "Unique Subject Identifier", "type": "SDTM Dataset Variable"}}, "core": "Req", "description": "Identifier used to uniquely identify a subject across all studies for all applications or submissions involving the product.", "label": "Unique Subject Identifier", "name": "USUBJID", "ordinal": "3", "role": "Identifier", "simpleDatatype": "Char"}, {"_links": {"modelClassVariable": {"href": "/mdr/sdtm/1-3/classes/GeneralObservations/variables/--SEQ", "title": "Sequence Number", "type": "Class Variable"}, "parentDataset": {"href": "/mdr/sdtmig/3-1-3/datasets/TR", "title": "Tumor Results", "type": "SDTM Dataset"}, "parentProduct": {"href": "/mdr/sdtmig/3-1-3", "title": "Study Data Tabulation Model Implementation Guide: Human Clinical Trials Version 3.1.3 (Final)", "type": "Implementation Guide"}, "rootItem": {"href": "/mdr/root/sdtmig/datasets/TR/variables/TRSEQ", "title": "Version-agnostic anchor resource for SDTMIG variable TR.TRSEQ", "type": "Root Data Element"}, "self": {"href": "/mdr/sdtmig/3-1-3/datasets/TR/variables/TRSEQ", "title": "Sequence Number", "type": "SDTM Dataset Variable"}}, "core": "Req", "description": "Sequence number given to ensure uniqueness within a dataset for a subject. May be any valid number.", "label": "Sequence Number", "name": "TRSEQ", "ordinal": "4", "role": "Identifier", "simpleDatatype": "Num"}, {"_links": {"modelClassVariable": {"href": "/mdr/sdtm/1-3/classes/GeneralObservations/variables/--GRPID", "title": "Group ID", "type": "Class Variable"}, "parentDataset": {"href": "/mdr/sdtmig/3-1-3/datasets/TR", "title": "Tumor Results", "type": "SDTM Dataset"}, "parentProduct": {"href": "/mdr/sdtmig/3-1-3", "title": "Study Data Tabulation Model Implementation Guide: Human Clinical Trials Version 3.1.3 (Final)", "type": "Implementation Guide"}, "rootItem": {"href": "/mdr/root/sdtmig/datasets/TR/variables/TRGRPID", "title": "Version-agnostic anchor resource for SDTMIG variable TR.TRGRPID", "type": "Root Data Element"}, "self": {"href": "/mdr/sdtmig/3-1-3/datasets/TR/variables/TRGRPID", "title": "Group ID", "type": "SDTM Dataset Variable"}}, "core": "Perm", "description": "Used to link together a block of related records within a subject in a domain.", "label": "Group ID", "name": "TRGRPID", "ordinal": "5", "role": "Identifier", "simpleDatatype": "Char"}, {"_links": {"modelClassVariable": {"href": "/mdr/sdtm/1-3/classes/GeneralObservations/variables/--REFID", "title": "Reference ID", "type": "Class Variable"}, "parentDataset": {"href": "/mdr/sdtmig/3-1-3/datasets/TR", "title": "Tumor Results", "type": "SDTM Dataset"}, "parentProduct": {"href": "/mdr/sdtmig/3-1-3", "title": "Study Data Tabulation Model Implementation Guide: Human Clinical Trials Version 3.1.3 (Final)", "type": "Implementation Guide"}, "rootItem": {"href": "/mdr/root/sdtmig/datasets/TR/variables/TRREFID", "title": "Version-agnostic anchor resource for SDTMIG variable TR.TRREFID", "type": "Root Data Element"}, "self": {"href": "/mdr/sdtmig/3-1-3/datasets/TR/variables/TRREFID", "title": "Reference ID", "type": "SDTM Dataset Variable"}}, "core": "Perm", "description": "Internal or external identifier.", "label": "Reference ID", "name": "TRREFID", "ordinal": "6", "role": "Identifier", "simpleDatatype": "Char"}, {"_links": {"modelClassVariable": {"href": "/mdr/sdtm/1-3/classes/GeneralObservations/variables/--SPID", "title": "Sponsor ID", "type": "Class Variable"}, "parentDataset": {"href": "/mdr/sdtmig/3-1-3/datasets/TR", "title": "Tumor Results", "type": "SDTM Dataset"}, "parentProduct": {"href": "/mdr/sdtmig/3-1-3", "title": "Study Data Tabulation Model Implementation Guide: Human Clinical Trials Version 3.1.3 (Final)", "type": "Implementation Guide"}, "rootItem": {"href": "/mdr/root/sdtmig/datasets/TR/variables/TRSPID", "title": "Version-agnostic anchor resource for SDTMIG variable TR.TRSPID", "type": "Root Data Element"}, "self": {"href": "/mdr/sdtmig/3-1-3/datasets/TR/variables/TRSPID", "title": "Sponsor-Defined Identifier", "type": "SDTM Dataset Variable"}}, "core": "Perm", "description": "Sponsor-defined identifier.", "label": "Sponsor-Defined Identifier", "name": "TRSPID", "ordinal": "7", "role": "Identifier", "simpleDatatype": "Char"}, {"_links": {"modelClassVariable": {"href": "/mdr/sdtm/1-3/classes/GeneralObservations/variables/--LNKID", "title": "Link ID", "type": "Class Variable"}, "parentDataset": {"href": "/mdr/sdtmig/3-1-3/datasets/TR", "title": "Tumor Results", "type": "SDTM Dataset"}, "parentProduct": {"href": "/mdr/sdtmig/3-1-3", "title": "Study Data Tabulation Model Implementation Guide: Human Clinical Trials Version 3.1.3 (Final)", "type": "Implementation Guide"}, "rootItem": {"href": "/mdr/root/sdtmig/datasets/TR/variables/TRLNKID", "title": "Version-agnostic anchor resource for SDTMIG variable TR.TRLNKID", "type": "Root Data Element"}, "self": {"href": "/mdr/sdtmig/3-1-3/datasets/TR/variables/TRLNKID", "title": "Link ID", "type": "SDTM Dataset Variable"}}, "core": "Exp", "description": "Identifier used to link the assessment result records to the individual tumor identification record in TU domain.", "label": "Link ID", "name": "TRLNKID", "ordinal": "8", "role": "Identifier", "simpleDatatype": "Char"}, {"_links": {"modelClassVariable": {"href": "/mdr/sdtm/1-3/classes/GeneralObservations/variables/--LNKGRP", "title": "Link Group ID", "type": "Class Variable"}, "parentDataset": {"href": "/mdr/sdtmig/3-1-3/datasets/TR", "title": "Tumor Results", "type": "SDTM Dataset"}, "parentProduct": {"href": "/mdr/sdtmig/3-1-3", "title": "Study Data Tabulation Model Implementation Guide: Human Clinical Trials Version 3.1.3 (Final)", "type": "Implementation Guide"}, "rootItem": {"href": "/mdr/root/sdtmig/datasets/TR/variables/TRLNKGRP", "title": "Version-agnostic anchor resource for SDTMIG variable TR.TRLNKGRP", "type": "Root Data Element"}, "self": {"href": "/mdr/sdtmig/3-1-3/datasets/TR/variables/TRLNKGRP", "title": "Link Group", "type": "SDTM Dataset Variable"}}, "core": "Perm", "description": "Used to group and link all of the measurement/assessment records used in the assessment of the response record in the RS domain.", "label": "Link Group", "name": "TRLNKGRP", "ordinal": "9", "role": "Identifier", "simpleDatatype": "Char"}, {"_links": {"codelist": [{"href": "/mdr/root/ct/sdtmct/codelists/C96779", "title": "Version-agnostic anchor resource for codelist C96779", "type": "Root Value Domain"}], "modelClassVariable": {"href": "/mdr/sdtm/1-3/classes/Findings/variables/--TESTCD", "title": "Short Name of Measurement, Test or Examination", "type": "Class Variable"}, "parentDataset": {"href": "/mdr/sdtmig/3-1-3/datasets/TR", "title": "Tumor Results", "type": "SDTM Dataset"}, "parentProduct": {"href": "/mdr/sdtmig/3-1-3", "title": "Study Data Tabulation Model Implementation Guide: Human Clinical Trials Version 3.1.3 (Final)", "type": "Implementation Guide"}, "rootItem": {"href": "/mdr/root/sdtmig/datasets/TR/variables/TRTESTCD", "title": "Version-agnostic anchor resource for SDTMIG variable TR.TRTESTCD", "type": "Root Data Element"}, "self": {"href": "/mdr/sdtmig/3-1-3/datasets/TR/variables/TRTESTCD", "title": "Tumor Assessment Short Name", "type": "SDTM Dataset Variable"}}, "core": "Req", "description": "Short name of the TEST in TRTEST. TRTESTCD cannot contain characters other than letters, numbers, or underscores. Examples: TUMSTATE, DIAMETER. See Assumption 2.", "label": "Tumor Assessment Short Name", "name": "TRTESTCD", "ordinal": "10", "role": "Topic", "simpleDatatype": "Char"}, {"_links": {"codelist": [{"href": "/mdr/root/ct/sdtmct/codelists/C96778", "title": "Version-agnostic anchor resource for codelist C96778", "type": "Root Value Domain"}], "modelClassVariable": {"href": "/mdr/sdtm/1-3/classes/Findings/variables/--TEST", "title": "Name of Measurement, Test or Examination", "type": "Class Variable"}, "parentDataset": {"href": "/mdr/sdtmig/3-1-3/datasets/TR", "title": "Tumor Results", "type": "SDTM Dataset"}, "parentProduct": {"href": "/mdr/sdtmig/3-1-3", "title": "Study Data Tabulation Model Implementation Guide: Human Clinical Trials Version 3.1.3 (Final)", "type": "Implementation Guide"}, "rootItem": {"href": "/mdr/root/sdtmig/datasets/TR/variables/TRTEST", "title": "Version-agnostic anchor resource for SDTMIG variable TR.TRTEST", "type": "Root Data Element"}, "self": {"href": "/mdr/sdtmig/3-1-3/datasets/TR/variables/TRTEST", "title": "Tumor Assessment Test Name", "type": "SDTM Dataset Variable"}}, "core": "Req", "description": "Verbatim name of the test or examination used to obtain the measurement or finding. The value in TRTEST cannot be longer than 40 characters. Examples: Tumor State, Diameter, Longest Perpendicular diameter, Volume, Area. See Assumption 2.", "label": "Tumor Assessment Test Name", "name": "TRTEST", "ordinal": "11", "role": "Synonym Qualifier", "simpleDatatype": "Char"}, {"_links": {"modelClassVariable": {"href": "/mdr/sdtm/1-3/classes/Findings/variables/--ORRES", "title": "Result or Finding in Original Units", "type": "Class Variable"}, "parentDataset": {"href": "/mdr/sdtmig/3-1-3/datasets/TR", "title": "Tumor Results", "type": "SDTM Dataset"}, "parentProduct": {"href": "/mdr/sdtmig/3-1-3", "title": "Study Data Tabulation Model Implementation Guide: Human Clinical Trials Version 3.1.3 (Final)", "type": "Implementation Guide"}, "rootItem": {"href": "/mdr/root/sdtmig/datasets/TR/variables/TRORRES", "title": "Version-agnostic anchor resource for SDTMIG variable TR.TRORRES", "type": "Root Data Element"}, "self": {"href": "/mdr/sdtmig/3-1-3/datasets/TR/variables/TRORRES", "title": "Result or Finding in Original Units", "type": "SDTM Dataset Variable"}}, "core": "Exp", "description": "Result of the Tumor measurement/assessment as originally received or collected.", "label": "Result or Finding in Original Units", "name": "TRORRES", "ordinal": "12", "role": "Result Qualifier", "simpleDatatype": "Char"}, {"_links": {"codelist": [{"href": "/mdr/root/ct/sdtmct/codelists/C71620", "title": "Version-agnostic anchor resource for codelist C71620", "type": "Root Value Domain"}], "modelClassVariable": {"href": "/mdr/sdtm/1-3/classes/Findings/variables/--ORRESU", "title": "Original Units", "type": "Class Variable"}, "parentDataset": {"href": "/mdr/sdtmig/3-1-3/datasets/TR", "title": "Tumor Results", "type": "SDTM Dataset"}, "parentProduct": {"href": "/mdr/sdtmig/3-1-3", "title": "Study Data Tabulation Model Implementation Guide: Human Clinical Trials Version 3.1.3 (Final)", "type": "Implementation Guide"}, "rootItem": {"href": "/mdr/root/sdtmig/datasets/TR/variables/TRORRESU", "title": "Version-agnostic anchor resource for SDTMIG variable TR.TRORRESU", "type": "Root Data Element"}, "self": {"href": "/mdr/sdtmig/3-1-3/datasets/TR/variables/TRORRESU", "title": "Original Units", "type": "SDTM Dataset Variable"}}, "core": "Exp", "description": "Original units in which the data were collected. The unit for TRORRES. Example: mm", "label": "Original Units", "name": "TRORRESU", "ordinal": "13", "role": "Variable Qualifier", "simpleDatatype": "Char"}, {"_links": {"modelClassVariable": {"href": "/mdr/sdtm/1-3/classes/Findings/variables/--STRESC", "title": "Result or Finding in Standard Format", "type": "Class Variable"}, "parentDataset": {"href": "/mdr/sdtmig/3-1-3/datasets/TR", "title": "Tumor Results", "type": "SDTM Dataset"}, "parentProduct": {"href": "/mdr/sdtmig/3-1-3", "title": "Study Data Tabulation Model Implementation Guide: Human Clinical Trials Version 3.1.3 (Final)", "type": "Implementation Guide"}, "rootItem": {"href": "/mdr/root/sdtmig/datasets/TR/variables/TRSTRESC", "title": "Version-agnostic anchor resource for SDTMIG variable TR.TRSTRESC", "type": "Root Data Element"}, "self": {"href": "/mdr/sdtmig/3-1-3/datasets/TR/variables/TRSTRESC", "title": "Character Result/Finding in Std Format", "type": "SDTM Dataset Variable"}}, "core": "Exp", "description": "Contains the result value for all findings, copied or derived from TRORRES in a standard format or standard units. TRSTRESC should store all results or findings in character format; if results are numeric, they should also be stored in numeric format in TRSTRESN", "label": "Character Result/Finding in Std Format", "name": "TRSTRESC", "ordinal": "14", "role": "Record Qualifier", "simpleDatatype": "Char"}, {"_links": {"modelClassVariable": {"href": "/mdr/sdtm/1-3/classes/Findings/variables/--STRESN", "title": "Numeric Result/Finding in Standard Units", "type": "Class Variable"}, "parentDataset": {"href": "/mdr/sdtmig/3-1-3/datasets/TR", "title": "Tumor Results", "type": "SDTM Dataset"}, "parentProduct": {"href": "/mdr/sdtmig/3-1-3", "title": "Study Data Tabulation Model Implementation Guide: Human Clinical Trials Version 3.1.3 (Final)", "type": "Implementation Guide"}, "rootItem": {"href": "/mdr/root/sdtmig/datasets/TR/variables/TRSTRESN", "title": "Version-agnostic anchor resource for SDTMIG variable TR.TRSTRESN", "type": "Root Data Element"}, "self": {"href": "/mdr/sdtmig/3-1-3/datasets/TR/variables/TRSTRESN", "title": "Numeric Result/Finding in Standard Units", "type": "SDTM Dataset Variable"}}, "core": "Exp", "description": "Used for continuous or numeric results or findings in standard format; copied in numeric format from TRSTRESC. TRSTRESN should store all numeric test results or findings.", "label": "Numeric Result/Finding in Standard Units", "name": "TRSTRESN", "ordinal": "15", "role": "Result Qualifier", "simpleDatatype": "Num"}, {"_links": {"codelist": [{"href": "/mdr/root/ct/sdtmct/codelists/C71620", "title": "Version-agnostic anchor resource for codelist C71620", "type": "Root Value Domain"}], "modelClassVariable": {"href": "/mdr/sdtm/1-3/classes/Findings/variables/--STRESU", "title": "Standard Units", "type": "Class Variable"}, "parentDataset": {"href": "/mdr/sdtmig/3-1-3/datasets/TR", "title": "Tumor Results", "type": "SDTM Dataset"}, "parentProduct": {"href": "/mdr/sdtmig/3-1-3", "title": "Study Data Tabulation Model Implementation Guide: Human Clinical Trials Version 3.1.3 (Final)", "type": "Implementation Guide"}, "rootItem": {"href": "/mdr/root/sdtmig/datasets/TR/variables/TRSTRESU", "title": "Version-agnostic anchor resource for SDTMIG variable TR.TRSTRESU", "type": "Root Data Element"}, "self": {"href": "/mdr/sdtmig/3-1-3/datasets/TR/variables/TRSTRESU", "title": "Standard Units", "type": "SDTM Dataset Variable"}}, "core": "Exp", "description": "Standardized unit used for TRSTRESN.", "label": "Standard Units", "name": "TRSTRESU", "ordinal": "16", "role": "Variable Qualifier", "simpleDatatype": "Char"}, {"_links": {"codelist": [{"href": "/mdr/root/ct/sdtmct/codelists/C66789", "title": "Version-agnostic anchor resource for codelist C66789", "type": "Root Value Domain"}], "modelClassVariable": {"href": "/mdr/sdtm/1-3/classes/Findings/variables/--STAT", "title": "Completion Status", "type": "Class Variable"}, "parentDataset": {"href": "/mdr/sdtmig/3-1-3/datasets/TR", "title": "Tumor Results", "type": "SDTM Dataset"}, "parentProduct": {"href": "/mdr/sdtmig/3-1-3", "title": "Study Data Tabulation Model Implementation Guide: Human Clinical Trials Version 3.1.3 (Final)", "type": "Implementation Guide"}, "rootItem": {"href": "/mdr/root/sdtmig/datasets/TR/variables/TRSTAT", "title": "Version-agnostic anchor resource for SDTMIG variable TR.TRSTAT", "type": "Root Data Element"}, "self": {"href": "/mdr/sdtmig/3-1-3/datasets/TR/variables/TRSTAT", "title": "Completion Status", "type": "SDTM Dataset Variable"}}, "core": "Perm", "description": "Used to indicate a scan/image/physical exam was not performed or a tumor measurement was not taken. Should be Null if a result exists in TRORRES.", "label": "Completion Status", "name": "TRSTAT", "ordinal": "17", "role": "Result Qualifier", "simpleDatatype": "Char"}, {"_links": {"modelClassVariable": {"href": "/mdr/sdtm/1-3/classes/Findings/variables/--REASND", "title": "Reason Not Done", "type": "Class Variable"}, "parentDataset": {"href": "/mdr/sdtmig/3-1-3/datasets/TR", "title": "Tumor Results", "type": "SDTM Dataset"}, "parentProduct": {"href": "/mdr/sdtmig/3-1-3", "title": "Study Data Tabulation Model Implementation Guide: Human Clinical Trials Version 3.1.3 (Final)", "type": "Implementation Guide"}, "rootItem": {"href": "/mdr/root/sdtmig/datasets/TR/variables/TRREASND", "title": "Version-agnostic anchor resource for SDTMIG variable TR.TRREASND", "type": "Root Data Element"}, "self": {"href": "/mdr/sdtmig/3-1-3/datasets/TR/variables/TRREASND", "title": "Reason Tumor Measurement Not Performed", "type": "SDTM Dataset Variable"}}, "core": "Perm", "description": "Describes why a scan/image/physical exam was not performed or a tumor measurement was not taken. Examples: SCAN NOT PERFORMED, NOT ASSESSABLE: Image obscured, TUMOR. Used in conjunction with TRSTAT when value is NOT DONE.", "label": "Reason Tumor Measurement Not Performed", "name": "TRREASND", "ordinal": "18", "role": "Record Qualifier", "simpleDatatype": "Char"}, {"_links": {"modelClassVariable": {"href": "/mdr/sdtm/1-3/classes/Findings/variables/--NAM", "title": "Laboratory/Vendor Name", "type": "Class Variable"}, "parentDataset": {"href": "/mdr/sdtmig/3-1-3/datasets/TR", "title": "Tumor Results", "type": "SDTM Dataset"}, "parentProduct": {"href": "/mdr/sdtmig/3-1-3", "title": "Study Data Tabulation Model Implementation Guide: Human Clinical Trials Version 3.1.3 (Final)", "type": "Implementation Guide"}, "rootItem": {"href": "/mdr/root/sdtmig/datasets/TR/variables/TRNAM", "title": "Version-agnostic anchor resource for SDTMIG variable TR.TRNAM", "type": "Root Data Element"}, "self": {"href": "/mdr/sdtmig/3-1-3/datasets/TR/variables/TRNAM", "title": "Vendor Name", "type": "SDTM Dataset Variable"}}, "core": "Perm", "description": "The name or identifier of the vendor that performed the Tumor measurement or assessment.  This column can be left Null when the Investigator provides the complete set of data in the domain.", "label": "Vendor Name", "name": "TRNAM", "ordinal": "19", "role": "Record Qualifier", "simpleDatatype": "Char"}, {"_links": {"codelist": [{"href": "/mdr/root/ct/sdtmct/codelists/C85492", "title": "Version-agnostic anchor resource for codelist C85492", "type": "Root Value Domain"}], "modelClassVariable": {"href": "/mdr/sdtm/1-3/classes/Findings/variables/--METHOD", "title": "Method of Test or Examination", "type": "Class Variable"}, "parentDataset": {"href": "/mdr/sdtmig/3-1-3/datasets/TR", "title": "Tumor Results", "type": "SDTM Dataset"}, "parentProduct": {"href": "/mdr/sdtmig/3-1-3", "title": "Study Data Tabulation Model Implementation Guide: Human Clinical Trials Version 3.1.3 (Final)", "type": "Implementation Guide"}, "rootItem": {"href": "/mdr/root/sdtmig/datasets/TR/variables/TRMETHOD", "title": "Version-agnostic anchor resource for SDTMIG variable TR.TRMETHOD", "type": "Root Data Element"}, "self": {"href": "/mdr/sdtmig/3-1-3/datasets/TR/variables/TRMETHOD", "title": "Method used to identify the Tumor", "type": "SDTM Dataset Variable"}}, "core": "Exp", "description": "Method used to measure the tumor. Examples: MRI, CT SCAN.", "label": "Method used to identify the Tumor", "name": "TRMETHOD", "ordinal": "20", "role": "Record Qualifier"}, {"_links": {"codelist": [{"href": "/mdr/root/ct/sdtmct/codelists/C78735", "title": "Version-agnostic anchor resource for codelist C78735", "type": "Root Value Domain"}], "modelClassVariable": {"href": "/mdr/sdtm/1-3/classes/Findings/variables/--EVAL", "title": "Evaluator", "type": "Class Variable"}, "parentDataset": {"href": "/mdr/sdtmig/3-1-3/datasets/TR", "title": "Tumor Results", "type": "SDTM Dataset"}, "parentProduct": {"href": "/mdr/sdtmig/3-1-3", "title": "Study Data Tabulation Model Implementation Guide: Human Clinical Trials Version 3.1.3 (Final)", "type": "Implementation Guide"}, "rootItem": {"href": "/mdr/root/sdtmig/datasets/TR/variables/TREVAL", "title": "Version-agnostic anchor resource for SDTMIG variable TR.TREVAL", "type": "Root Data Element"}, "self": {"href": "/mdr/sdtmig/3-1-3/datasets/TR/variables/TREVAL", "title": "Evaluator", "type": "SDTM Dataset Variable"}}, "core": "Exp", "description": "Role of the person who provided the evaluation. Examples: INVESTIGATOR, INDEPENDENT ASSESSOR. This column can be left Null when the Investigator provides the complete set of data in the domain. However the column should contain no Null values when data from one or more independent assessors is included meaning that the rows attributed to the Investigator should contain a value of INVESTIGATOR.", "label": "Evaluator", "name": "TREVAL", "ordinal": "21", "role": "Record Qualifier", "simpleDatatype": "Char"}, {"_links": {"codelist": [{"href": "/mdr/root/ct/sdtmct/codelists/C96777", "title": "Version-agnostic anchor resource for codelist C96777", "type": "Root Value Domain"}], "modelClassVariable": {"href": "/mdr/sdtm/1-3/classes/Findings/variables/--EVALID", "title": "Evaluator Identifier", "type": "Class Variable"}, "parentDataset": {"href": "/mdr/sdtmig/3-1-3/datasets/TR", "title": "Tumor Results", "type": "SDTM Dataset"}, "parentProduct": {"href": "/mdr/sdtmig/3-1-3", "title": "Study Data Tabulation Model Implementation Guide: Human Clinical Trials Version 3.1.3 (Final)", "type": "Implementation Guide"}, "rootItem": {"href": "/mdr/root/sdtmig/datasets/TR/variables/TREVALID", "title": "Version-agnostic anchor resource for SDTMIG variable TR.TREVALID", "type": "Root Data Element"}, "self": {"href": "/mdr/sdtmig/3-1-3/datasets/TR/variables/TREVALID", "title": "Evaluator Identifier", "type": "SDTM Dataset Variable"}}, "core": "Perm", "description": "The Evaluator Specified variable is used in conjunction with TREVAL to provide an additional level of detail. When multiple assessors play the role identified in TREVAL, values of TREVALID will attribute a row of data to a particular assessor. TREVALID should not contain the names of the assessors, or a code identifier for a specific assessor, but should contain values such as RADIOLOGIST, RADIOLOGIST 1 or RADIOLOGIST 2. The TREVALID variable is subject to CDISC Controlled Terminology. Note TREVAL must also be populated when TREVALID is populated. See Assumption 7.", "label": "Evaluator Identifier", "name": "TREVALID", "ordinal": "22", "role": "Variable Qualifier", "simpleDatatype": "Char"}, {"_links": {"codelist": [{"href": "/mdr/root/ct/sdtmct/codelists/C66742", "title": "Version-agnostic anchor resource for codelist C66742", "type": "Root Value Domain"}], "modelClassVariable": {"href": "/mdr/sdtm/1-3/classes/Findings/variables/--ACPTFL", "title": "Accepted Record Flag", "type": "Class Variable"}, "parentDataset": {"href": "/mdr/sdtmig/3-1-3/datasets/TR", "title": "Tumor Results", "type": "SDTM Dataset"}, "parentProduct": {"href": "/mdr/sdtmig/3-1-3", "title": "Study Data Tabulation Model Implementation Guide: Human Clinical Trials Version 3.1.3 (Final)", "type": "Implementation Guide"}, "rootItem": {"href": "/mdr/root/sdtmig/datasets/TR/variables/TRACPTFL", "title": "Version-agnostic anchor resource for SDTMIG variable TR.TRACPTFL", "type": "Root Data Element"}, "self": {"href": "/mdr/sdtmig/3-1-3/datasets/TR/variables/TRACPTFL", "title": "Accepted Record Flag", "type": "SDTM Dataset Variable"}}, "core": "Perm", "description": "In cases where more than one independent assessor (e.g. RADIOLOGIST 1, RADIOLOGIST 2, ADJUDICATOR) provide independent assessments at the same timepoint this flag identifies the record that is considered to be the accepted assessment.", "label": "Accepted Record Flag", "name": "TRACPTFL", "ordinal": "23", "role": "Record Qualifier", "simpleDatatype": "Char"}, {"_links": {"modelClassVariable": {"href": "/mdr/sdtm/1-3/classes/GeneralObservations/variables/VISITNUM", "title": "Visit Number", "type": "Class Variable"}, "parentDataset": {"href": "/mdr/sdtmig/3-1-3/datasets/TR", "title": "Tumor Results", "type": "SDTM Dataset"}, "parentProduct": {"href": "/mdr/sdtmig/3-1-3", "title": "Study Data Tabulation Model Implementation Guide: Human Clinical Trials Version 3.1.3 (Final)", "type": "Implementation Guide"}, "rootItem": {"href": "/mdr/root/sdtmig/datasets/TR/variables/VISITNUM", "title": "Version-agnostic anchor resource for SDTMIG variable TR.VISITNUM", "type": "Root Data Element"}, "self": {"href": "/mdr/sdtmig/3-1-3/datasets/TR/variables/VISITNUM", "title": "Visit Number", "type": "SDTM Dataset Variable"}}, "core": "Exp", "description": "1. Clinical encounter number. 2. Numeric version of VISIT, used for sorting.", "label": "Visit Number", "name": "VISITNUM", "ordinal": "24", "role": "Timing", "simpleDatatype": "Num"}, {"_links": {"modelClassVariable": {"href": "/mdr/sdtm/1-3/classes/GeneralObservations/variables/VISIT", "title": "Visit Name", "type": "Class Variable"}, "parentDataset": {"href": "/mdr/sdtmig/3-1-3/datasets/TR", "title": "Tumor Results", "type": "SDTM Dataset"}, "parentProduct": {"href": "/mdr/sdtmig/3-1-3", "title": "Study Data Tabulation Model Implementation Guide: Human Clinical Trials Version 3.1.3 (Final)", "type": "Implementation Guide"}, "rootItem": {"href": "/mdr/root/sdtmig/datasets/TR/variables/VISIT", "title": "Version-agnostic anchor resource for SDTMIG variable TR.VISIT", "type": "Root Data Element"}, "self": {"href": "/mdr/sdtmig/3-1-3/datasets/TR/variables/VISIT", "title": "Visit Name", "type": "SDTM Dataset Variable"}}, "core": "Perm", "description": "1. Protocol-defined description of clinical encounter. 2. May be used in addition to VISITNUM and/or VISITDY.", "label": "Visit Name", "name": "VISIT", "ordinal": "25", "role": "Timing", "simpleDatatype": "Char"}, {"_links": {"modelClassVariable": {"href": "/mdr/sdtm/1-3/classes/GeneralObservations/variables/VISITDY", "title": "Planned Study Day of Visit", "type": "Class Variable"}, "parentDataset": {"href": "/mdr/sdtmig/3-1-3/datasets/TR", "title": "Tumor Results", "type": "SDTM Dataset"}, "parentProduct": {"href": "/mdr/sdtmig/3-1-3", "title": "Study Data Tabulation Model Implementation Guide: Human Clinical Trials Version 3.1.3 (Final)", "type": "Implementation Guide"}, "rootItem": {"href": "/mdr/root/sdtmig/datasets/TR/variables/VISITDY", "title": "Version-agnostic anchor resource for SDTMIG variable TR.VISITDY", "type": "Root Data Element"}, "self": {"href": "/mdr/sdtmig/3-1-3/datasets/TR/variables/VISITDY", "title": "Planned Study Day of Visit", "type": "SDTM Dataset Variable"}}, "core": "Perm", "label": "Planned Study Day of Visit", "name": "VISITDY", "ordinal": "26", "role": "Timing", "simpleDatatype": "Num"}, {"_links": {"modelClassVariable": {"href": "/mdr/sdtm/1-3/classes/GeneralObservations/variables/EPOCH", "title": "Epoch", "type": "Class Variable"}, "parentDataset": {"href": "/mdr/sdtmig/3-1-3/datasets/TR", "title": "Tumor Results", "type": "SDTM Dataset"}, "parentProduct": {"href": "/mdr/sdtmig/3-1-3", "title": "Study Data Tabulation Model Implementation Guide: Human Clinical Trials Version 3.1.3 (Final)", "type": "Implementation Guide"}, "rootItem": {"href": "/mdr/root/sdtmig/datasets/TR/variables/EPOCH", "title": "Version-agnostic anchor resource for SDTMIG variable TR.EPOCH", "type": "Root Data Element"}, "self": {"href": "/mdr/sdtmig/3-1-3/datasets/TR/variables/EPOCH", "title": "Epoch", "type": "SDTM Dataset Variable"}}, "core": "Perm", "description": "Epoch associated with the Element in the planned sequence of Elements for the ARM to which the subject was assigned", "label": "Epoch", "name": "EPOCH", "ordinal": "27", "role": "Timing", "simpleDatatype": "Char"}, {"_links": {"modelClassVariable": {"href": "/mdr/sdtm/1-3/classes/GeneralObservations/variables/--DTC", "title": "Date/Time of Collection", "type": "Class Variable"}, "parentDataset": {"href": "/mdr/sdtmig/3-1-3/datasets/TR", "title": "Tumor Results", "type": "SDTM Dataset"}, "parentProduct": {"href": "/mdr/sdtmig/3-1-3", "title": "Study Data Tabulation Model Implementation Guide: Human Clinical Trials Version 3.1.3 (Final)", "type": "Implementation Guide"}, "rootItem": {"href": "/mdr/root/sdtmig/datasets/TR/variables/TRDTC", "title": "Version-agnostic anchor resource for SDTMIG variable TR.TRDTC", "type": "Root Data Element"}, "self": {"href": "/mdr/sdtmig/3-1-3/datasets/TR/variables/TRDTC", "title": "Date/Time of Tumor Measurement", "type": "SDTM Dataset Variable"}}, "core": "Exp", "describedValueDomain": "ISO 8601", "description": "TRDTC variable represents the date of the scan/image/physical exam not the date that the image was read to identify tumors. TRDTC variable does not represent the VISIT date.", "label": "Date/Time of Tumor Measurement", "name": "TRDTC", "ordinal": "28", "role": "Timing", "simpleDatatype": "Char"}, {"_links": {"modelClassVariable": {"href": "/mdr/sdtm/1-3/classes/GeneralObservations/variables/--DY", "title": "Study Day of Visit/Collection/Exam", "type": "Class Variable"}, "parentDataset": {"href": "/mdr/sdtmig/3-1-3/datasets/TR", "title": "Tumor Results", "type": "SDTM Dataset"}, "parentProduct": {"href": "/mdr/sdtmig/3-1-3", "title": "Study Data Tabulation Model Implementation Guide: Human Clinical Trials Version 3.1.3 (Final)", "type": "Implementation Guide"}, "rootItem": {"href": "/mdr/root/sdtmig/datasets/TR/variables/TRDY", "title": "Version-agnostic anchor resource for SDTMIG variable TR.TRDY", "type": "Root Data Element"}, "self": {"href": "/mdr/sdtmig/3-1-3/datasets/TR/variables/TRDY", "title": "Study Day of Tumor Measurement", "type": "SDTM Dataset Variable"}}, "core": "Perm", "description": "1. Study day of the scan/image/physical exam, measured as integer days. 2. Algorithm for calculations must be relative to the sponsor-defined RFSTDTC variable in Demographics.", "label": "Study Day of Tumor Measurement", "name": "TRDY", "ordinal": "29", "role": "Timing", "simpleDatatype": "Num"}], "description": "A findings domain that represents quantitative measurements and/or qualitative assessments of the tumors or lesions identified in the tumor/lesion identification (TU) domain. (Source: CDISC Controlled Terminology, DOMAIN, C106578, 2018-06-29)", "label": "Tumor Results", "name": "TR", "ordinal": "26"}
