{"_links": {"parentClass": {"href": "/mdr/sdtmig/3-1-3/classes/Findings", "title": "Findings Observation Class", "type": "Class"}, "parentProduct": {"href": "/mdr/sdtmig/3-1-3", "title": "Study Data Tabulation Model Implementation Guide: Human Clinical Trials Version 3.1.3 (Final)", "type": "Implementation Guide"}, "self": {"href": "/mdr/sdtmig/3-1-3/datasets/TU", "title": "Tumor Identification", "type": "SDTM Dataset"}}, "datasetStructure": "One record per identified tumor per subject per assessor", "datasetVariables": [{"_links": {"modelClassVariable": {"href": "/mdr/sdtm/1-3/classes/GeneralObservations/variables/STUDYID", "title": "Study Identifier", "type": "Class Variable"}, "parentDataset": {"href": "/mdr/sdtmig/3-1-3/datasets/TU", "title": "Tumor Identification", "type": "SDTM Dataset"}, "parentProduct": {"href": "/mdr/sdtmig/3-1-3", "title": "Study Data Tabulation Model Implementation Guide: Human Clinical Trials Version 3.1.3 (Final)", "type": "Implementation Guide"}, "rootItem": {"href": "/mdr/root/sdtmig/datasets/TU/variables/STUDYID", "title": "Version-agnostic anchor resource for SDTMIG variable TU.STUDYID", "type": "Root Data Element"}, "self": {"href": "/mdr/sdtmig/3-1-3/datasets/TU/variables/STUDYID", "title": "Study Identifier", "type": "SDTM Dataset Variable"}}, "core": "Req", "description": "Unique identifier for a study.", "label": "Study Identifier", "name": "STUDYID", "ordinal": "1", "role": "Identifier", "simpleDatatype": "Char"}, {"_links": {"modelClassVariable": {"href": "/mdr/sdtm/1-3/classes/GeneralObservations/variables/DOMAIN", "title": "Domain Abbreviation", "type": "Class Variable"}, "parentDataset": {"href": "/mdr/sdtmig/3-1-3/datasets/TU", "title": "Tumor Identification", "type": "SDTM Dataset"}, "parentProduct": {"href": "/mdr/sdtmig/3-1-3", "title": "Study Data Tabulation Model Implementation Guide: Human Clinical Trials Version 3.1.3 (Final)", "type": "Implementation Guide"}, "rootItem": {"href": "/mdr/root/sdtmig/datasets/TU/variables/DOMAIN", "title": "Version-agnostic anchor resource for SDTMIG variable TU.DOMAIN", "type": "Root Data Element"}, "self": {"href": "/mdr/sdtmig/3-1-3/datasets/TU/variables/DOMAIN", "title": "Domain Abbreviation", "type": "SDTM Dataset Variable"}}, "core": "Req", "description": "Two-character abbreviation for the domain.", "label": "Domain Abbreviation", "name": "DOMAIN", "ordinal": "2", "role": "Identifier", "simpleDatatype": "Char", "valueList": ["TU"]}, {"_links": {"modelClassVariable": {"href": "/mdr/sdtm/1-3/classes/GeneralObservations/variables/USUBJID", "title": "Unique Subject Identifier", "type": "Class Variable"}, "parentDataset": {"href": "/mdr/sdtmig/3-1-3/datasets/TU", "title": "Tumor Identification", "type": "SDTM Dataset"}, "parentProduct": {"href": "/mdr/sdtmig/3-1-3", "title": "Study Data Tabulation Model Implementation Guide: Human Clinical Trials Version 3.1.3 (Final)", "type": "Implementation Guide"}, "rootItem": {"href": "/mdr/root/sdtmig/datasets/TU/variables/USUBJID", "title": "Version-agnostic anchor resource for SDTMIG variable TU.USUBJID", "type": "Root Data Element"}, "self": {"href": "/mdr/sdtmig/3-1-3/datasets/TU/variables/USUBJID", "title": "Unique Subject Identifier", "type": "SDTM Dataset Variable"}}, "core": "Req", "description": "Identifier used to uniquely identify a subject across all studies for all applications or submissions involving the product.", "label": "Unique Subject Identifier", "name": "USUBJID", "ordinal": "3", "role": "Identifier", "simpleDatatype": "Char"}, {"_links": {"modelClassVariable": {"href": "/mdr/sdtm/1-3/classes/GeneralObservations/variables/--SEQ", "title": "Sequence Number", "type": "Class Variable"}, "parentDataset": {"href": "/mdr/sdtmig/3-1-3/datasets/TU", "title": "Tumor Identification", "type": "SDTM Dataset"}, "parentProduct": {"href": "/mdr/sdtmig/3-1-3", "title": "Study Data Tabulation Model Implementation Guide: Human Clinical Trials Version 3.1.3 (Final)", "type": "Implementation Guide"}, "rootItem": {"href": "/mdr/root/sdtmig/datasets/TU/variables/TUSEQ", "title": "Version-agnostic anchor resource for SDTMIG variable TU.TUSEQ", "type": "Root Data Element"}, "self": {"href": "/mdr/sdtmig/3-1-3/datasets/TU/variables/TUSEQ", "title": "Sequence Number", "type": "SDTM Dataset Variable"}}, "core": "Req", "description": "Sequence number given to ensure uniqueness within a dataset for a subject. May be any valid number.", "label": "Sequence Number", "name": "TUSEQ", "ordinal": "4", "role": "Identifier", "simpleDatatype": "Num"}, {"_links": {"modelClassVariable": {"href": "/mdr/sdtm/1-3/classes/GeneralObservations/variables/--GRPID", "title": "Group ID", "type": "Class Variable"}, "parentDataset": {"href": "/mdr/sdtmig/3-1-3/datasets/TU", "title": "Tumor Identification", "type": "SDTM Dataset"}, "parentProduct": {"href": "/mdr/sdtmig/3-1-3", "title": "Study Data Tabulation Model Implementation Guide: Human Clinical Trials Version 3.1.3 (Final)", "type": "Implementation Guide"}, "rootItem": {"href": "/mdr/root/sdtmig/datasets/TU/variables/TUGRPID", "title": "Version-agnostic anchor resource for SDTMIG variable TU.TUGRPID", "type": "Root Data Element"}, "self": {"href": "/mdr/sdtmig/3-1-3/datasets/TU/variables/TUGRPID", "title": "Group ID", "type": "SDTM Dataset Variable"}}, "core": "Perm", "description": "Used to link together a block of related records within a subject in a domain.  Can be used to group split or merged tumors which have been identified.", "label": "Group ID", "name": "TUGRPID", "ordinal": "5", "role": "Identifier", "simpleDatatype": "Char"}, {"_links": {"modelClassVariable": {"href": "/mdr/sdtm/1-3/classes/GeneralObservations/variables/--REFID", "title": "Reference ID", "type": "Class Variable"}, "parentDataset": {"href": "/mdr/sdtmig/3-1-3/datasets/TU", "title": "Tumor Identification", "type": "SDTM Dataset"}, "parentProduct": {"href": "/mdr/sdtmig/3-1-3", "title": "Study Data Tabulation Model Implementation Guide: Human Clinical Trials Version 3.1.3 (Final)", "type": "Implementation Guide"}, "rootItem": {"href": "/mdr/root/sdtmig/datasets/TU/variables/TUREFID", "title": "Version-agnostic anchor resource for SDTMIG variable TU.TUREFID", "type": "Root Data Element"}, "self": {"href": "/mdr/sdtmig/3-1-3/datasets/TU/variables/TUREFID", "title": "Reference ID", "type": "SDTM Dataset Variable"}}, "core": "Perm", "description": "Internal or external identifier. Example: Medical image ID number.", "label": "Reference ID", "name": "TUREFID", "ordinal": "6", "role": "Identifier", "simpleDatatype": "Char"}, {"_links": {"modelClassVariable": {"href": "/mdr/sdtm/1-3/classes/GeneralObservations/variables/--SPID", "title": "Sponsor ID", "type": "Class Variable"}, "parentDataset": {"href": "/mdr/sdtmig/3-1-3/datasets/TU", "title": "Tumor Identification", "type": "SDTM Dataset"}, "parentProduct": {"href": "/mdr/sdtmig/3-1-3", "title": "Study Data Tabulation Model Implementation Guide: Human Clinical Trials Version 3.1.3 (Final)", "type": "Implementation Guide"}, "rootItem": {"href": "/mdr/root/sdtmig/datasets/TU/variables/TUSPID", "title": "Version-agnostic anchor resource for SDTMIG variable TU.TUSPID", "type": "Root Data Element"}, "self": {"href": "/mdr/sdtmig/3-1-3/datasets/TU/variables/TUSPID", "title": "Sponsor-Defined Identifier", "type": "SDTM Dataset Variable"}}, "core": "Perm", "description": "Sponsor-defined identifier.", "label": "Sponsor-Defined Identifier", "name": "TUSPID", "ordinal": "7", "role": "Identifier", "simpleDatatype": "Char"}, {"_links": {"modelClassVariable": {"href": "/mdr/sdtm/1-3/classes/GeneralObservations/variables/--LNKID", "title": "Link ID", "type": "Class Variable"}, "parentDataset": {"href": "/mdr/sdtmig/3-1-3/datasets/TU", "title": "Tumor Identification", "type": "SDTM Dataset"}, "parentProduct": {"href": "/mdr/sdtmig/3-1-3", "title": "Study Data Tabulation Model Implementation Guide: Human Clinical Trials Version 3.1.3 (Final)", "type": "Implementation Guide"}, "rootItem": {"href": "/mdr/root/sdtmig/datasets/TU/variables/TULNKID", "title": "Version-agnostic anchor resource for SDTMIG variable TU.TULNKID", "type": "Root Data Element"}, "self": {"href": "/mdr/sdtmig/3-1-3/datasets/TU/variables/TULNKID", "title": "Link ID", "type": "SDTM Dataset Variable"}}, "core": "Exp", "description": "Identifier used to link identified tumors to the assessment results (in TR domain) over the course of the study.", "label": "Link ID", "name": "TULNKID", "ordinal": "8", "role": "Identifier", "simpleDatatype": "Char"}, {"_links": {"codelist": [{"href": "/mdr/root/ct/sdtmct/codelists/C96784", "title": "Version-agnostic anchor resource for codelist C96784", "type": "Root Value Domain"}], "modelClassVariable": {"href": "/mdr/sdtm/1-3/classes/Findings/variables/--TESTCD", "title": "Short Name of Measurement, Test or Examination", "type": "Class Variable"}, "parentDataset": {"href": "/mdr/sdtmig/3-1-3/datasets/TU", "title": "Tumor Identification", "type": "SDTM Dataset"}, "parentProduct": {"href": "/mdr/sdtmig/3-1-3", "title": "Study Data Tabulation Model Implementation Guide: Human Clinical Trials Version 3.1.3 (Final)", "type": "Implementation Guide"}, "rootItem": {"href": "/mdr/root/sdtmig/datasets/TU/variables/TUTESTCD", "title": "Version-agnostic anchor resource for SDTMIG variable TU.TUTESTCD", "type": "Root Data Element"}, "self": {"href": "/mdr/sdtmig/3-1-3/datasets/TU/variables/TUTESTCD", "title": "Tumor Identification Short Name", "type": "SDTM Dataset Variable"}}, "core": "Req", "description": "Short name of the TEST in TUTEST. TUTESTCD cannot be longer than 8 characters nor can start with a number. TUTESTCD contain characters other than letters, numbers, or underscores.  Example: TUMIDENT (Tumor Identification). See Assumption 2.", "label": "Tumor Identification Short Name", "name": "TUTESTCD", "ordinal": "9", "role": "Topic", "simpleDatatype": "Char"}, {"_links": {"codelist": [{"href": "/mdr/root/ct/sdtmct/codelists/C96783", "title": "Version-agnostic anchor resource for codelist C96783", "type": "Root Value Domain"}], "modelClassVariable": {"href": "/mdr/sdtm/1-3/classes/Findings/variables/--TEST", "title": "Name of Measurement, Test or Examination", "type": "Class Variable"}, "parentDataset": {"href": "/mdr/sdtmig/3-1-3/datasets/TU", "title": "Tumor Identification", "type": "SDTM Dataset"}, "parentProduct": {"href": "/mdr/sdtmig/3-1-3", "title": "Study Data Tabulation Model Implementation Guide: Human Clinical Trials Version 3.1.3 (Final)", "type": "Implementation Guide"}, "rootItem": {"href": "/mdr/root/sdtmig/datasets/TU/variables/TUTEST", "title": "Version-agnostic anchor resource for SDTMIG variable TU.TUTEST", "type": "Root Data Element"}, "self": {"href": "/mdr/sdtmig/3-1-3/datasets/TU/variables/TUTEST", "title": "Tumor Identification Test Name", "type": "SDTM Dataset Variable"}}, "core": "Req", "description": "Verbatim name of the test for the tumor identification. The value in TUTEST cannot be longer than 40 characters. Example: Tumor Identification. See Assumption 2.", "label": "Tumor Identification Test Name", "name": "TUTEST", "ordinal": "10", "role": "Synonym Qualifier", "simpleDatatype": "Char"}, {"_links": {"modelClassVariable": {"href": "/mdr/sdtm/1-3/classes/Findings/variables/--ORRES", "title": "Result or Finding in Original Units", "type": "Class Variable"}, "parentDataset": {"href": "/mdr/sdtmig/3-1-3/datasets/TU", "title": "Tumor Identification", "type": "SDTM Dataset"}, "parentProduct": {"href": "/mdr/sdtmig/3-1-3", "title": "Study Data Tabulation Model Implementation Guide: Human Clinical Trials Version 3.1.3 (Final)", "type": "Implementation Guide"}, "rootItem": {"href": "/mdr/root/sdtmig/datasets/TU/variables/TUORRES", "title": "Version-agnostic anchor resource for SDTMIG variable TU.TUORRES", "type": "Root Data Element"}, "self": {"href": "/mdr/sdtmig/3-1-3/datasets/TU/variables/TUORRES", "title": "Tumor Identification Result", "type": "SDTM Dataset Variable"}}, "core": "Exp", "description": "Result of the Tumor identification.  The result of tumor identification is a classification of identified tumor.  Examples: When TUTESTCD=TUMIDENT (Tumor Identification), values of TUORRES might be: TARGET, NON-TARGET, or NEW. or BENIGN ABNORMALITY", "label": "Tumor Identification Result", "name": "TUORRES", "ordinal": "11", "role": "Result Qualifier", "simpleDatatype": "Char"}, {"_links": {"codelist": [{"href": "/mdr/root/ct/sdtmct/codelists/C96780", "title": "Version-agnostic anchor resource for codelist C96780", "type": "Root Value Domain"}], "modelClassVariable": {"href": "/mdr/sdtm/1-3/classes/Findings/variables/--STRESC", "title": "Result or Finding in Standard Format", "type": "Class Variable"}, "parentDataset": {"href": "/mdr/sdtmig/3-1-3/datasets/TU", "title": "Tumor Identification", "type": "SDTM Dataset"}, "parentProduct": {"href": "/mdr/sdtmig/3-1-3", "title": "Study Data Tabulation Model Implementation Guide: Human Clinical Trials Version 3.1.3 (Final)", "type": "Implementation Guide"}, "rootItem": {"href": "/mdr/root/sdtmig/datasets/TU/variables/TUSTRESC", "title": "Version-agnostic anchor resource for SDTMIG variable TU.TUSTRESC", "type": "Root Data Element"}, "self": {"href": "/mdr/sdtmig/3-1-3/datasets/TU/variables/TUSTRESC", "title": "Tumor Identification Result Std. Format", "type": "SDTM Dataset Variable"}}, "core": "Exp", "description": "Contains the result value for all findings copied from TUORRES.", "label": "Tumor Identification Result Std. Format", "name": "TUSTRESC", "ordinal": "12", "role": "Record Qualifier", "simpleDatatype": "Char"}, {"_links": {"modelClassVariable": {"href": "/mdr/sdtm/1-3/classes/Findings/variables/--NAM", "title": "Laboratory/Vendor Name", "type": "Class Variable"}, "parentDataset": {"href": "/mdr/sdtmig/3-1-3/datasets/TU", "title": "Tumor Identification", "type": "SDTM Dataset"}, "parentProduct": {"href": "/mdr/sdtmig/3-1-3", "title": "Study Data Tabulation Model Implementation Guide: Human Clinical Trials Version 3.1.3 (Final)", "type": "Implementation Guide"}, "rootItem": {"href": "/mdr/root/sdtmig/datasets/TU/variables/TUNAM", "title": "Version-agnostic anchor resource for SDTMIG variable TU.TUNAM", "type": "Root Data Element"}, "self": {"href": "/mdr/sdtmig/3-1-3/datasets/TU/variables/TUNAM", "title": "Vendor Name", "type": "SDTM Dataset Variable"}}, "core": "Perm", "description": "The name or identifier of the vendor that performed the Tumor Identification.  This column can be left Null when the Investigator provides the complete set of data in the domain.", "label": "Vendor Name", "name": "TUNAM", "ordinal": "13", "role": "Record Qualifier", "simpleDatatype": "Char"}, {"_links": {"codelist": [{"href": "/mdr/root/ct/sdtmct/codelists/C74456", "title": "Version-agnostic anchor resource for codelist C74456", "type": "Root Value Domain"}], "modelClassVariable": {"href": "/mdr/sdtm/1-3/classes/Findings/variables/--LOC", "title": "Location Used for the Measurement", "type": "Class Variable"}, "parentDataset": {"href": "/mdr/sdtmig/3-1-3/datasets/TU", "title": "Tumor Identification", "type": "SDTM Dataset"}, "parentProduct": {"href": "/mdr/sdtmig/3-1-3", "title": "Study Data Tabulation Model Implementation Guide: Human Clinical Trials Version 3.1.3 (Final)", "type": "Implementation Guide"}, "rootItem": {"href": "/mdr/root/sdtmig/datasets/TU/variables/TULOC", "title": "Version-agnostic anchor resource for SDTMIG variable TU.TULOC", "type": "Root Data Element"}, "self": {"href": "/mdr/sdtmig/3-1-3/datasets/TU/variables/TULOC", "title": "Location of the Tumor", "type": "SDTM Dataset Variable"}}, "core": "Exp", "description": "Used to specify the anatomical location of the identified tumor. Example: LIVER  Note: When anatomical location is broken down and collected as distinct pieces of data that when combined provide the overall location information (e.g. laterality /directionality / distribution) then the additional anatomical location qualifiers should be used. See Assumption 3.", "label": "Location of the Tumor", "name": "TULOC", "ordinal": "14", "role": "Record Qualifier", "simpleDatatype": "Char"}, {"_links": {"codelist": [{"href": "/mdr/root/ct/sdtmct/codelists/C99073", "title": "Version-agnostic anchor resource for codelist C99073", "type": "Root Value Domain"}], "modelClassVariable": {"href": "/mdr/sdtm/1-3/classes/Findings/variables/--LAT", "title": "Laterality", "type": "Class Variable"}, "parentDataset": {"href": "/mdr/sdtmig/3-1-3/datasets/TU", "title": "Tumor Identification", "type": "SDTM Dataset"}, "parentProduct": {"href": "/mdr/sdtmig/3-1-3", "title": "Study Data Tabulation Model Implementation Guide: Human Clinical Trials Version 3.1.3 (Final)", "type": "Implementation Guide"}, "rootItem": {"href": "/mdr/root/sdtmig/datasets/TU/variables/TULAT", "title": "Version-agnostic anchor resource for SDTMIG variable TU.TULAT", "type": "Root Data Element"}, "self": {"href": "/mdr/sdtmig/3-1-3/datasets/TU/variables/TULAT", "title": "Laterality", "type": "SDTM Dataset Variable"}}, "core": "Perm", "description": "Qualifier for anatomical location or specimen further detailing laterality, for example, LEFT, RIGHT, BILATERAL.", "label": "Laterality", "name": "TULAT", "ordinal": "15", "role": "Record Qualifier", "simpleDatatype": "Char"}, {"_links": {"codelist": [{"href": "/mdr/root/ct/sdtmct/codelists/C99074", "title": "Version-agnostic anchor resource for codelist C99074", "type": "Root Value Domain"}], "modelClassVariable": {"href": "/mdr/sdtm/1-3/classes/Findings/variables/--DIR", "title": "Directionality", "type": "Class Variable"}, "parentDataset": {"href": "/mdr/sdtmig/3-1-3/datasets/TU", "title": "Tumor Identification", "type": "SDTM Dataset"}, "parentProduct": {"href": "/mdr/sdtmig/3-1-3", "title": "Study Data Tabulation Model Implementation Guide: Human Clinical Trials Version 3.1.3 (Final)", "type": "Implementation Guide"}, "rootItem": {"href": "/mdr/root/sdtmig/datasets/TU/variables/TUDIR", "title": "Version-agnostic anchor resource for SDTMIG variable TU.TUDIR", "type": "Root Data Element"}, "self": {"href": "/mdr/sdtmig/3-1-3/datasets/TU/variables/TUDIR", "title": "Directionality", "type": "SDTM Dataset Variable"}}, "core": "Perm", "description": "Qualifier for anatomical location or specimen further detailing directionality, for example, UPPER, INTERIOR.", "label": "Directionality", "name": "TUDIR", "ordinal": "16", "role": "Record Qualifier", "simpleDatatype": "Char"}, {"_links": {"codelist": [{"href": "/mdr/root/ct/sdtmct/codelists/C99075", "title": "Version-agnostic anchor resource for codelist C99075", "type": "Root Value Domain"}], "modelClassVariable": {"href": "/mdr/sdtm/1-3/classes/Findings/variables/--PORTOT", "title": "Portion or Totality", "type": "Class Variable"}, "parentDataset": {"href": "/mdr/sdtmig/3-1-3/datasets/TU", "title": "Tumor Identification", "type": "SDTM Dataset"}, "parentProduct": {"href": "/mdr/sdtmig/3-1-3", "title": "Study Data Tabulation Model Implementation Guide: Human Clinical Trials Version 3.1.3 (Final)", "type": "Implementation Guide"}, "rootItem": {"href": "/mdr/root/sdtmig/datasets/TU/variables/TUPORTOT", "title": "Version-agnostic anchor resource for SDTMIG variable TU.TUPORTOT", "type": "Root Data Element"}, "self": {"href": "/mdr/sdtmig/3-1-3/datasets/TU/variables/TUPORTOT", "title": "Portion or Totality", "type": "SDTM Dataset Variable"}}, "core": "Perm", "description": "Qualifier for anatomical location or specimen further detailing the distribution which means arrangement of, or apportioning of, for example, ENTIRE, SINGLE, SEGMENT, MANY.", "label": "Portion or Totality", "name": "TUPORTOT", "ordinal": "17", "role": "Record Qualifier", "simpleDatatype": "Char"}, {"_links": {"codelist": [{"href": "/mdr/root/ct/sdtmct/codelists/C85492", "title": "Version-agnostic anchor resource for codelist C85492", "type": "Root Value Domain"}], "modelClassVariable": {"href": "/mdr/sdtm/1-3/classes/Findings/variables/--METHOD", "title": "Method of Test or Examination", "type": "Class Variable"}, "parentDataset": {"href": "/mdr/sdtmig/3-1-3/datasets/TU", "title": "Tumor Identification", "type": "SDTM Dataset"}, "parentProduct": {"href": "/mdr/sdtmig/3-1-3", "title": "Study Data Tabulation Model Implementation Guide: Human Clinical Trials Version 3.1.3 (Final)", "type": "Implementation Guide"}, "rootItem": {"href": "/mdr/root/sdtmig/datasets/TU/variables/TUMETHOD", "title": "Version-agnostic anchor resource for SDTMIG variable TU.TUMETHOD", "type": "Root Data Element"}, "self": {"href": "/mdr/sdtmig/3-1-3/datasets/TU/variables/TUMETHOD", "title": "Method of Identification", "type": "SDTM Dataset Variable"}}, "core": "Exp", "description": "Method used to identify the tumor. Examples:  MRI, CT SCAN.", "label": "Method of Identification", "name": "TUMETHOD", "ordinal": "18", "role": "Record Qualifier", "simpleDatatype": "Char"}, {"_links": {"codelist": [{"href": "/mdr/root/ct/sdtmct/codelists/C78735", "title": "Version-agnostic anchor resource for codelist C78735", "type": "Root Value Domain"}], "modelClassVariable": {"href": "/mdr/sdtm/1-3/classes/Findings/variables/--EVAL", "title": "Evaluator", "type": "Class Variable"}, "parentDataset": {"href": "/mdr/sdtmig/3-1-3/datasets/TU", "title": "Tumor Identification", "type": "SDTM Dataset"}, "parentProduct": {"href": "/mdr/sdtmig/3-1-3", "title": "Study Data Tabulation Model Implementation Guide: Human Clinical Trials Version 3.1.3 (Final)", "type": "Implementation Guide"}, "rootItem": {"href": "/mdr/root/sdtmig/datasets/TU/variables/TUEVAL", "title": "Version-agnostic anchor resource for SDTMIG variable TU.TUEVAL", "type": "Root Data Element"}, "self": {"href": "/mdr/sdtmig/3-1-3/datasets/TU/variables/TUEVAL", "title": "Evaluator", "type": "SDTM Dataset Variable"}}, "core": "Exp", "description": "Role of the person who provided the evaluation. Examples: INVESTIGATOR, INDEPENDNT ASSESSOR  This column can be left Null when the Investigator provides the complete set of data in the domain. However the column should contain no Null values when data from one or more independent assessors is included meaning that the rows attributed to the Investigator should contain a value of INVESTIGATOR.", "label": "Evaluator", "name": "TUEVAL", "ordinal": "19", "role": "Record Qualifier", "simpleDatatype": "Char"}, {"_links": {"codelist": [{"href": "/mdr/root/ct/sdtmct/codelists/C96777", "title": "Version-agnostic anchor resource for codelist C96777", "type": "Root Value Domain"}], "modelClassVariable": {"href": "/mdr/sdtm/1-3/classes/Findings/variables/--EVALID", "title": "Evaluator Identifier", "type": "Class Variable"}, "parentDataset": {"href": "/mdr/sdtmig/3-1-3/datasets/TU", "title": "Tumor Identification", "type": "SDTM Dataset"}, "parentProduct": {"href": "/mdr/sdtmig/3-1-3", "title": "Study Data Tabulation Model Implementation Guide: Human Clinical Trials Version 3.1.3 (Final)", "type": "Implementation Guide"}, "rootItem": {"href": "/mdr/root/sdtmig/datasets/TU/variables/TUEVALID", "title": "Version-agnostic anchor resource for SDTMIG variable TU.TUEVALID", "type": "Root Data Element"}, "self": {"href": "/mdr/sdtmig/3-1-3/datasets/TU/variables/TUEVALID", "title": "Evaluator Identifier", "type": "SDTM Dataset Variable"}}, "core": "Perm", "description": "The Evaluator Specified variable is used in conjunction with TUEVAL to provide an additional level of detail. When multiple assessors play the role identified in TUEVAL, values of TUEVALID will attribute a row of data to a particular assessor. TUEVALID should not contain the names of the assessors, or a code identifier for a specific assessor, but should contain values such as RADIOLOGIST, RADIOLOGIST 1 or RADIOLOGIST 2. The TUEVALID is subject to CDISC Controlled Terminology. See Assumption 7.", "label": "Evaluator Identifier", "name": "TUEVALID", "ordinal": "20", "role": "Variable Qualifier", "simpleDatatype": "Char"}, {"_links": {"codelist": [{"href": "/mdr/root/ct/sdtmct/codelists/C66742", "title": "Version-agnostic anchor resource for codelist C66742", "type": "Root Value Domain"}], "modelClassVariable": {"href": "/mdr/sdtm/1-3/classes/Findings/variables/--ACPTFL", "title": "Accepted Record Flag", "type": "Class Variable"}, "parentDataset": {"href": "/mdr/sdtmig/3-1-3/datasets/TU", "title": "Tumor Identification", "type": "SDTM Dataset"}, "parentProduct": {"href": "/mdr/sdtmig/3-1-3", "title": "Study Data Tabulation Model Implementation Guide: Human Clinical Trials Version 3.1.3 (Final)", "type": "Implementation Guide"}, "rootItem": {"href": "/mdr/root/sdtmig/datasets/TU/variables/TUACPTFL", "title": "Version-agnostic anchor resource for SDTMIG variable TU.TUACPTFL", "type": "Root Data Element"}, "self": {"href": "/mdr/sdtmig/3-1-3/datasets/TU/variables/TUACPTFL", "title": "Accepted Record Flag", "type": "SDTM Dataset Variable"}}, "core": "Perm", "description": "In cases where more than one independent assessor (e.g. RADIOLOGIST 1, RADIOLOGIST 2, ADJUDICATOR) provide independent assessments at the same time point this flag identifies the record that is considered to be the accepted assessment.", "label": "Accepted Record Flag", "name": "TUACPTFL", "ordinal": "21", "role": "Record Qualifier", "simpleDatatype": "Char"}, {"_links": {"modelClassVariable": {"href": "/mdr/sdtm/1-3/classes/GeneralObservations/variables/VISITNUM", "title": "Visit Number", "type": "Class Variable"}, "parentDataset": {"href": "/mdr/sdtmig/3-1-3/datasets/TU", "title": "Tumor Identification", "type": "SDTM Dataset"}, "parentProduct": {"href": "/mdr/sdtmig/3-1-3", "title": "Study Data Tabulation Model Implementation Guide: Human Clinical Trials Version 3.1.3 (Final)", "type": "Implementation Guide"}, "rootItem": {"href": "/mdr/root/sdtmig/datasets/TU/variables/VISITNUM", "title": "Version-agnostic anchor resource for SDTMIG variable TU.VISITNUM", "type": "Root Data Element"}, "self": {"href": "/mdr/sdtmig/3-1-3/datasets/TU/variables/VISITNUM", "title": "Visit Number", "type": "SDTM Dataset Variable"}}, "core": "Exp", "description": "1. Clinical encounter number.  2. Numeric version of VISIT, used for sorting.", "label": "Visit Number", "name": "VISITNUM", "ordinal": "22", "role": "Timing", "simpleDatatype": "Num"}, {"_links": {"modelClassVariable": {"href": "/mdr/sdtm/1-3/classes/GeneralObservations/variables/VISIT", "title": "Visit Name", "type": "Class Variable"}, "parentDataset": {"href": "/mdr/sdtmig/3-1-3/datasets/TU", "title": "Tumor Identification", "type": "SDTM Dataset"}, "parentProduct": {"href": "/mdr/sdtmig/3-1-3", "title": "Study Data Tabulation Model Implementation Guide: Human Clinical Trials Version 3.1.3 (Final)", "type": "Implementation Guide"}, "rootItem": {"href": "/mdr/root/sdtmig/datasets/TU/variables/VISIT", "title": "Version-agnostic anchor resource for SDTMIG variable TU.VISIT", "type": "Root Data Element"}, "self": {"href": "/mdr/sdtmig/3-1-3/datasets/TU/variables/VISIT", "title": "Visit Name", "type": "SDTM Dataset Variable"}}, "core": "Perm", "description": "1. Protocol-defined description of clinical encounter.  2. May be used in addition to VISITNUM and/or VISITDY.", "label": "Visit Name", "name": "VISIT", "ordinal": "23", "role": "Timing", "simpleDatatype": "Char"}, {"_links": {"modelClassVariable": {"href": "/mdr/sdtm/1-3/classes/GeneralObservations/variables/VISITDY", "title": "Planned Study Day of Visit", "type": "Class Variable"}, "parentDataset": {"href": "/mdr/sdtmig/3-1-3/datasets/TU", "title": "Tumor Identification", "type": "SDTM Dataset"}, "parentProduct": {"href": "/mdr/sdtmig/3-1-3", "title": "Study Data Tabulation Model Implementation Guide: Human Clinical Trials Version 3.1.3 (Final)", "type": "Implementation Guide"}, "rootItem": {"href": "/mdr/root/sdtmig/datasets/TU/variables/VISITDY", "title": "Version-agnostic anchor resource for SDTMIG variable TU.VISITDY", "type": "Root Data Element"}, "self": {"href": "/mdr/sdtmig/3-1-3/datasets/TU/variables/VISITDY", "title": "Planned Study Day of Visit", "type": "SDTM Dataset Variable"}}, "core": "Perm", "label": "Planned Study Day of Visit", "name": "VISITDY", "ordinal": "24", "role": "Timing", "simpleDatatype": "Num"}, {"_links": {"modelClassVariable": {"href": "/mdr/sdtm/1-3/classes/GeneralObservations/variables/EPOCH", "title": "Epoch", "type": "Class Variable"}, "parentDataset": {"href": "/mdr/sdtmig/3-1-3/datasets/TU", "title": "Tumor Identification", "type": "SDTM Dataset"}, "parentProduct": {"href": "/mdr/sdtmig/3-1-3", "title": "Study Data Tabulation Model Implementation Guide: Human Clinical Trials Version 3.1.3 (Final)", "type": "Implementation Guide"}, "rootItem": {"href": "/mdr/root/sdtmig/datasets/TU/variables/EPOCH", "title": "Version-agnostic anchor resource for SDTMIG variable TU.EPOCH", "type": "Root Data Element"}, "self": {"href": "/mdr/sdtmig/3-1-3/datasets/TU/variables/EPOCH", "title": "Epoch", "type": "SDTM Dataset Variable"}}, "core": "Perm", "description": "Epoch associated with the Element in the planned sequence of Elements for the ARM to which the subject was assigned.", "label": "Epoch", "name": "EPOCH", "ordinal": "25", "role": "Timing", "simpleDatatype": "Char"}, {"_links": {"modelClassVariable": {"href": "/mdr/sdtm/1-3/classes/GeneralObservations/variables/--DTC", "title": "Date/Time of Collection", "type": "Class Variable"}, "parentDataset": {"href": "/mdr/sdtmig/3-1-3/datasets/TU", "title": "Tumor Identification", "type": "SDTM Dataset"}, "parentProduct": {"href": "/mdr/sdtmig/3-1-3", "title": "Study Data Tabulation Model Implementation Guide: Human Clinical Trials Version 3.1.3 (Final)", "type": "Implementation Guide"}, "rootItem": {"href": "/mdr/root/sdtmig/datasets/TU/variables/TUDTC", "title": "Version-agnostic anchor resource for SDTMIG variable TU.TUDTC", "type": "Root Data Element"}, "self": {"href": "/mdr/sdtmig/3-1-3/datasets/TU/variables/TUDTC", "title": "Date/Time of Tumor Identification", "type": "SDTM Dataset Variable"}}, "core": "Exp", "describedValueDomain": "ISO 8601", "description": "TUDTC variable represents the date of the scan/image/physical exam not the date that the image was read to identify tumors.  TUDTC variable does not represent the VISIT date.", "label": "Date/Time of Tumor Identification", "name": "TUDTC", "ordinal": "26", "role": "Timing", "simpleDatatype": "Char"}, {"_links": {"modelClassVariable": {"href": "/mdr/sdtm/1-3/classes/GeneralObservations/variables/--DY", "title": "Study Day of Visit/Collection/Exam", "type": "Class Variable"}, "parentDataset": {"href": "/mdr/sdtmig/3-1-3/datasets/TU", "title": "Tumor Identification", "type": "SDTM Dataset"}, "parentProduct": {"href": "/mdr/sdtmig/3-1-3", "title": "Study Data Tabulation Model Implementation Guide: Human Clinical Trials Version 3.1.3 (Final)", "type": "Implementation Guide"}, "rootItem": {"href": "/mdr/root/sdtmig/datasets/TU/variables/TUDY", "title": "Version-agnostic anchor resource for SDTMIG variable TU.TUDY", "type": "Root Data Element"}, "self": {"href": "/mdr/sdtmig/3-1-3/datasets/TU/variables/TUDY", "title": "Study Day of Tumor Identification", "type": "SDTM Dataset Variable"}}, "core": "Perm", "description": "1. Study day of the scan/image/physical exam, measured as integer days.  2. Algorithm for calculations must be relative to the sponsor-defined RFSTDTC variable in Demographics.", "label": "Study Day of Tumor Identification", "name": "TUDY", "ordinal": "27", "role": "Timing", "simpleDatatype": "Num"}], "description": "A findings domain that represents data that uniquely identifies tumors or lesions under study. (Source: CDISC Controlled Terminology, DOMAIN, C106577, 2018-06-29)", "label": "Tumor Identification", "name": "TU", "ordinal": "25"}
