{"_links": {"parentClass": {"href": "/mdr/sendig/ar-1-0/classes/Interventions", "title": "Interventions Observation Class", "type": "Class"}, "parentProduct": {"href": "/mdr/sendig/ar-1-0", "title": "Standard for Exchange of Nonclinical Data Implementation Guide: Animal Rule Version 1.0 (Final)", "type": "Implementation Guide"}, "self": {"href": "/mdr/sendig/ar-1-0/datasets/AG", "title": "Procedure Agents", "type": "SDTM Dataset"}}, "datasetStructure": "One record per constant dosing interval per treatment per subject or pool", "datasetVariables": [{"_links": {"modelClassVariable": {"href": "/mdr/sdtm/1-8/classes/GeneralObservations/variables/STUDYID", "title": "Study Identifier", "type": "Class Variable"}, "parentDataset": {"href": "/mdr/sendig/ar-1-0/datasets/AG", "title": "Procedure Agents", "type": "SDTM Dataset"}, "parentProduct": {"href": "/mdr/sendig/ar-1-0", "title": "Standard for Exchange of Nonclinical Data Implementation Guide: Animal Rule Version 1.0 (Final)", "type": "Implementation Guide"}, "rootItem": {"href": "/mdr/root/sendig/datasets/AG/variables/STUDYID", "title": "Version-agnostic anchor resource for SENDIG variable AG.STUDYID", "type": "Root Data Element"}, "self": {"href": "/mdr/sendig/ar-1-0/datasets/AG/variables/STUDYID", "title": "Study Identifier", "type": "SDTM Dataset Variable"}}, "core": "Req", "description": "Unique identifier for a study.", "label": "Study Identifier", "name": "STUDYID", "ordinal": "1", "role": "Identifier", "simpleDatatype": "Char"}, {"_links": {"modelClassVariable": {"href": "/mdr/sdtm/1-8/classes/GeneralObservations/variables/DOMAIN", "title": "Domain Abbreviation", "type": "Class Variable"}, "parentDataset": {"href": "/mdr/sendig/ar-1-0/datasets/AG", "title": "Procedure Agents", "type": "SDTM Dataset"}, "parentProduct": {"href": "/mdr/sendig/ar-1-0", "title": "Standard for Exchange of Nonclinical Data Implementation Guide: Animal Rule Version 1.0 (Final)", "type": "Implementation Guide"}, "rootItem": {"href": "/mdr/root/sendig/datasets/AG/variables/DOMAIN", "title": "Version-agnostic anchor resource for SENDIG variable AG.DOMAIN", "type": "Root Data Element"}, "self": {"href": "/mdr/sendig/ar-1-0/datasets/AG/variables/DOMAIN", "title": "Domain Abbreviation", "type": "SDTM Dataset Variable"}}, "core": "Req", "description": "Two-character abbreviation for the domain.", "label": "Domain Abbreviation", "name": "DOMAIN", "ordinal": "2", "role": "Identifier", "simpleDatatype": "Char", "valueList": ["AG"]}, {"_links": {"modelClassVariable": {"href": "/mdr/sdtm/1-8/classes/GeneralObservations/variables/USUBJID", "title": "Unique Subject Identifier", "type": "Class Variable"}, "parentDataset": {"href": "/mdr/sendig/ar-1-0/datasets/AG", "title": "Procedure Agents", "type": "SDTM Dataset"}, "parentProduct": {"href": "/mdr/sendig/ar-1-0", "title": "Standard for Exchange of Nonclinical Data Implementation Guide: Animal Rule Version 1.0 (Final)", "type": "Implementation Guide"}, "rootItem": {"href": "/mdr/root/sendig/datasets/AG/variables/USUBJID", "title": "Version-agnostic anchor resource for SENDIG variable AG.USUBJID", "type": "Root Data Element"}, "self": {"href": "/mdr/sendig/ar-1-0/datasets/AG/variables/USUBJID", "title": "Unique Subject Identifier", "type": "SDTM Dataset Variable"}}, "core": "Req", "description": "Identifier used to uniquely identify a subject across all studies for all applications or submissions involving the product.", "label": "Unique Subject Identifier", "name": "USUBJID", "ordinal": "3", "role": "Identifier", "simpleDatatype": "Char"}, {"_links": {"modelClassVariable": {"href": "/mdr/sdtm/1-8/classes/GeneralObservations/variables/FOCID", "title": "Focus of Study-Specific Interest", "type": "Class Variable"}, "parentDataset": {"href": "/mdr/sendig/ar-1-0/datasets/AG", "title": "Procedure Agents", "type": "SDTM Dataset"}, "parentProduct": {"href": "/mdr/sendig/ar-1-0", "title": "Standard for Exchange of Nonclinical Data Implementation Guide: Animal Rule Version 1.0 (Final)", "type": "Implementation Guide"}, "rootItem": {"href": "/mdr/root/sendig/datasets/AG/variables/FOCID", "title": "Version-agnostic anchor resource for SENDIG variable AG.FOCID", "type": "Root Data Element"}, "self": {"href": "/mdr/sendig/ar-1-0/datasets/AG/variables/FOCID", "title": "Focus of Study-SpecificInterest", "type": "SDTM Dataset Variable"}}, "core": "Perm", "description": "Identification of a focus of study-specific interest on or within a subject or specimen as called out in the protocol for which a measurement, test, or examination was performed, such the exposure site of the agent. The value in this variable should have inherent semantic meaning. Examples: \"Injection site 1\", \"Upper left quadrant of the back\".", "label": "Focus of Study-SpecificInterest", "name": "FOCID", "ordinal": "4", "role": "Identifier", "simpleDatatype": "Char"}, {"_links": {"modelClassVariable": {"href": "/mdr/sdtm/1-8/classes/GeneralObservations/variables/--SEQ", "title": "Sequence Number", "type": "Class Variable"}, "parentDataset": {"href": "/mdr/sendig/ar-1-0/datasets/AG", "title": "Procedure Agents", "type": "SDTM Dataset"}, "parentProduct": {"href": "/mdr/sendig/ar-1-0", "title": "Standard for Exchange of Nonclinical Data Implementation Guide: Animal Rule Version 1.0 (Final)", "type": "Implementation Guide"}, "rootItem": {"href": "/mdr/root/sendig/datasets/AG/variables/AGSEQ", "title": "Version-agnostic anchor resource for SENDIG variable AG.AGSEQ", "type": "Root Data Element"}, "self": {"href": "/mdr/sendig/ar-1-0/datasets/AG/variables/AGSEQ", "title": "Sequence Number", "type": "SDTM Dataset Variable"}}, "core": "Req", "description": "Sequence number given to ensure uniqueness of subject records within a domain. May be any valid number.", "label": "Sequence Number", "name": "AGSEQ", "ordinal": "5", "role": "Identifier", "simpleDatatype": "Num"}, {"_links": {"modelClassVariable": {"href": "/mdr/sdtm/1-8/classes/GeneralObservations/variables/--GRPID", "title": "Group ID", "type": "Class Variable"}, "parentDataset": {"href": "/mdr/sendig/ar-1-0/datasets/AG", "title": "Procedure Agents", "type": "SDTM Dataset"}, "parentProduct": {"href": "/mdr/sendig/ar-1-0", "title": "Standard for Exchange of Nonclinical Data Implementation Guide: Animal Rule Version 1.0 (Final)", "type": "Implementation Guide"}, "rootItem": {"href": "/mdr/root/sendig/datasets/AG/variables/AGGRPID", "title": "Version-agnostic anchor resource for SENDIG variable AG.AGGRPID", "type": "Root Data Element"}, "self": {"href": "/mdr/sendig/ar-1-0/datasets/AG/variables/AGGRPID", "title": "Group ID", "type": "SDTM Dataset Variable"}}, "core": "Perm", "description": "Used to tie together a block of related records in a single domain for a subject.", "label": "Group ID", "name": "AGGRPID", "ordinal": "6", "role": "Identifier", "simpleDatatype": "Char"}, {"_links": {"modelClassVariable": {"href": "/mdr/sdtm/1-8/classes/GeneralObservations/variables/--SPID", "title": "Sponsor-Defined Identifier", "type": "Class Variable"}, "parentDataset": {"href": "/mdr/sendig/ar-1-0/datasets/AG", "title": "Procedure Agents", "type": "SDTM Dataset"}, "parentProduct": {"href": "/mdr/sendig/ar-1-0", "title": "Standard for Exchange of Nonclinical Data Implementation Guide: Animal Rule Version 1.0 (Final)", "type": "Implementation Guide"}, "rootItem": {"href": "/mdr/root/sendig/datasets/AG/variables/AGSPID", "title": "Version-agnostic anchor resource for SENDIG variable AG.AGSPID", "type": "Root Data Element"}, "self": {"href": "/mdr/sendig/ar-1-0/datasets/AG/variables/AGSPID", "title": "Sponsor-Defined Identifier", "type": "SDTM Dataset Variable"}}, "core": "Perm", "description": "Sponsor-defined reference number.", "label": "Sponsor-Defined Identifier", "name": "AGSPID", "ordinal": "7", "role": "Identifier", "simpleDatatype": "Char"}, {"_links": {"modelClassVariable": {"href": "/mdr/sdtm/1-8/classes/GeneralObservations/variables/--LNKID", "title": "Link ID", "type": "Class Variable"}, "parentDataset": {"href": "/mdr/sendig/ar-1-0/datasets/AG", "title": "Procedure Agents", "type": "SDTM Dataset"}, "parentProduct": {"href": "/mdr/sendig/ar-1-0", "title": "Standard for Exchange of Nonclinical Data Implementation Guide: Animal Rule Version 1.0 (Final)", "type": "Implementation Guide"}, "rootItem": {"href": "/mdr/root/sendig/datasets/AG/variables/AGLNKID", "title": "Version-agnostic anchor resource for SENDIG variable AG.AGLNKID", "type": "Root Data Element"}, "self": {"href": "/mdr/sendig/ar-1-0/datasets/AG/variables/AGLNKID", "title": "Link ID", "type": "SDTM Dataset Variable"}}, "core": "Perm", "description": "Identifier used to link related records across domains. This may be a one-to-one or a one-to-many relationship.", "label": "Link ID", "name": "AGLNKID", "ordinal": "8", "role": "Identifier", "simpleDatatype": "Char"}, {"_links": {"modelClassVariable": {"href": "/mdr/sdtm/1-8/classes/GeneralObservations/variables/--LNKGRP", "title": "Link Group ID", "type": "Class Variable"}, "parentDataset": {"href": "/mdr/sendig/ar-1-0/datasets/AG", "title": "Procedure Agents", "type": "SDTM Dataset"}, "parentProduct": {"href": "/mdr/sendig/ar-1-0", "title": "Standard for Exchange of Nonclinical Data Implementation Guide: Animal Rule Version 1.0 (Final)", "type": "Implementation Guide"}, "rootItem": {"href": "/mdr/root/sendig/datasets/AG/variables/AGLNKGRP", "title": "Version-agnostic anchor resource for SENDIG variable AG.AGLNKGRP", "type": "Root Data Element"}, "self": {"href": "/mdr/sendig/ar-1-0/datasets/AG/variables/AGLNKGRP", "title": "Link Group ID", "type": "SDTM Dataset Variable"}}, "core": "Perm", "description": "Identifier used to link related records across domains. This will usually be a many-to-one relationship.", "label": "Link Group ID", "name": "AGLNKGRP", "ordinal": "9", "role": "Identifier", "simpleDatatype": "Char"}, {"_links": {"modelClassVariable": {"href": "/mdr/sdtm/1-8/classes/Interventions/variables/--TRT", "title": "Name of Treatment", "type": "Class Variable"}, "parentDataset": {"href": "/mdr/sendig/ar-1-0/datasets/AG", "title": "Procedure Agents", "type": "SDTM Dataset"}, "parentProduct": {"href": "/mdr/sendig/ar-1-0", "title": "Standard for Exchange of Nonclinical Data Implementation Guide: Animal Rule Version 1.0 (Final)", "type": "Implementation Guide"}, "rootItem": {"href": "/mdr/root/sendig/datasets/AG/variables/AGTRT", "title": "Version-agnostic anchor resource for SENDIG variable AG.AGTRT", "type": "Root Data Element"}, "self": {"href": "/mdr/sendig/ar-1-0/datasets/AG/variables/AGTRT", "title": "Reported Agent Name", "type": "SDTM Dataset Variable"}}, "core": "Req", "description": "Verbatim name of challenge agent or other procedure agent administered.", "label": "Reported Agent Name", "name": "AGTRT", "ordinal": "10", "role": "Topic", "simpleDatatype": "Char"}, {"_links": {"modelClassVariable": {"href": "/mdr/sdtm/1-8/classes/Interventions/variables/--CAT", "title": "Category", "type": "Class Variable"}, "parentDataset": {"href": "/mdr/sendig/ar-1-0/datasets/AG", "title": "Procedure Agents", "type": "SDTM Dataset"}, "parentProduct": {"href": "/mdr/sendig/ar-1-0", "title": "Standard for Exchange of Nonclinical Data Implementation Guide: Animal Rule Version 1.0 (Final)", "type": "Implementation Guide"}, "rootItem": {"href": "/mdr/root/sendig/datasets/AG/variables/AGCAT", "title": "Version-agnostic anchor resource for SENDIG variable AG.AGCAT", "type": "Root Data Element"}, "self": {"href": "/mdr/sendig/ar-1-0/datasets/AG/variables/AGCAT", "title": "Category of Agent", "type": "SDTM Dataset Variable"}}, "core": "Perm", "description": "Category of agent. Examples: \"CHALLENGE AGENT\", \"RESTRAINT AGENT\", \"EUTHANASIA AGENT\".", "label": "Category of Agent", "name": "AGCAT", "ordinal": "11", "role": "Record Qualifier", "simpleDatatype": "Char"}, {"_links": {"codelist": [{"href": "/mdr/root/ct/sendct/codelists/C66789", "title": "Version-agnostic anchor resource for codelist C66789", "type": "Root Value Domain"}], "modelClassVariable": {"href": "/mdr/sdtm/1-8/classes/Interventions/variables/--STAT", "title": "Completion Status", "type": "Class Variable"}, "parentDataset": {"href": "/mdr/sendig/ar-1-0/datasets/AG", "title": "Procedure Agents", "type": "SDTM Dataset"}, "parentProduct": {"href": "/mdr/sendig/ar-1-0", "title": "Standard for Exchange of Nonclinical Data Implementation Guide: Animal Rule Version 1.0 (Final)", "type": "Implementation Guide"}, "rootItem": {"href": "/mdr/root/sendig/datasets/AG/variables/AGSTAT", "title": "Version-agnostic anchor resource for SENDIG variable AG.AGSTAT", "type": "Root Data Element"}, "self": {"href": "/mdr/sendig/ar-1-0/datasets/AG/variables/AGSTAT", "title": "Completion Status", "type": "SDTM Dataset Variable"}}, "core": "Perm", "description": "Used to indicate that a question about a pre-specified agent was not answered. Should be null or have a value of \"NOT DONE\".", "label": "Completion Status", "name": "AGSTAT", "ordinal": "12", "role": "Record Qualifier", "simpleDatatype": "Char"}, {"_links": {"modelClassVariable": {"href": "/mdr/sdtm/1-8/classes/Interventions/variables/--REASND", "title": "Reason Not Done", "type": "Class Variable"}, "parentDataset": {"href": "/mdr/sendig/ar-1-0/datasets/AG", "title": "Procedure Agents", "type": "SDTM Dataset"}, "parentProduct": {"href": "/mdr/sendig/ar-1-0", "title": "Standard for Exchange of Nonclinical Data Implementation Guide: Animal Rule Version 1.0 (Final)", "type": "Implementation Guide"}, "rootItem": {"href": "/mdr/root/sendig/datasets/AG/variables/AGREASND", "title": "Version-agnostic anchor resource for SENDIG variable AG.AGREASND", "type": "Root Data Element"}, "self": {"href": "/mdr/sendig/ar-1-0/datasets/AG/variables/AGREASND", "title": "Reason Not Done", "type": "SDTM Dataset Variable"}}, "core": "Perm", "description": "Describes the reason procedure agent information was not collected. Used in conjunction with AGSTAT when value is \"NOT DONE\".", "label": "Reason Not Done", "name": "AGREASND", "ordinal": "13", "role": "Record Qualifier", "simpleDatatype": "Char"}, {"_links": {"modelClassVariable": {"href": "/mdr/sdtm/1-8/classes/Interventions/variables/--DOSE", "title": "Dose", "type": "Class Variable"}, "parentDataset": {"href": "/mdr/sendig/ar-1-0/datasets/AG", "title": "Procedure Agents", "type": "SDTM Dataset"}, "parentProduct": {"href": "/mdr/sendig/ar-1-0", "title": "Standard for Exchange of Nonclinical Data Implementation Guide: Animal Rule Version 1.0 (Final)", "type": "Implementation Guide"}, "rootItem": {"href": "/mdr/root/sendig/datasets/AG/variables/AGDOSE", "title": "Version-agnostic anchor resource for SENDIG variable AG.AGDOSE", "type": "Root Data Element"}, "self": {"href": "/mdr/sendig/ar-1-0/datasets/AG/variables/AGDOSE", "title": "Dose per Administration", "type": "SDTM Dataset Variable"}}, "core": "Perm", "description": "Amount of AGTRT administered.", "label": "Dose per Administration", "name": "AGDOSE", "ordinal": "14", "role": "Record Qualifier", "simpleDatatype": "Num"}, {"_links": {"modelClassVariable": {"href": "/mdr/sdtm/1-8/classes/Interventions/variables/--DOSTXT", "title": "Dose Description", "type": "Class Variable"}, "parentDataset": {"href": "/mdr/sendig/ar-1-0/datasets/AG", "title": "Procedure Agents", "type": "SDTM Dataset"}, "parentProduct": {"href": "/mdr/sendig/ar-1-0", "title": "Standard for Exchange of Nonclinical Data Implementation Guide: Animal Rule Version 1.0 (Final)", "type": "Implementation Guide"}, "rootItem": {"href": "/mdr/root/sendig/datasets/AG/variables/AGDOSTXT", "title": "Version-agnostic anchor resource for SENDIG variable AG.AGDOSTXT", "type": "Root Data Element"}, "self": {"href": "/mdr/sendig/ar-1-0/datasets/AG/variables/AGDOSTXT", "title": "Dose Description", "type": "SDTM Dataset Variable"}}, "core": "Perm", "description": "Dosing amounts or a range of dosing information collected in text form. Units may be stored in AGDOSU. Examples: \"200-400\", \"15-20\".", "label": "Dose Description", "name": "AGDOSTXT", "ordinal": "15", "role": "Record Qualifier", "simpleDatatype": "Char"}, {"_links": {"codelist": [{"href": "/mdr/root/ct/sendct/codelists/C71620", "title": "Version-agnostic anchor resource for codelist C71620", "type": "Root Value Domain"}], "modelClassVariable": {"href": "/mdr/sdtm/1-8/classes/Interventions/variables/--DOSU", "title": "Dose Units", "type": "Class Variable"}, "parentDataset": {"href": "/mdr/sendig/ar-1-0/datasets/AG", "title": "Procedure Agents", "type": "SDTM Dataset"}, "parentProduct": {"href": "/mdr/sendig/ar-1-0", "title": "Standard for Exchange of Nonclinical Data Implementation Guide: Animal Rule Version 1.0 (Final)", "type": "Implementation Guide"}, "rootItem": {"href": "/mdr/root/sendig/datasets/AG/variables/AGDOSU", "title": "Version-agnostic anchor resource for SENDIG variable AG.AGDOSU", "type": "Root Data Element"}, "self": {"href": "/mdr/sendig/ar-1-0/datasets/AG/variables/AGDOSU", "title": "Dose Units", "type": "SDTM Dataset Variable"}}, "core": "Perm", "description": "Units for AGDOSE and AGDOSTXT. Examples: \"ng\", \"mg\", \"mg/kg\".", "label": "Dose Units", "name": "AGDOSU", "ordinal": "16", "role": "Variable Qualifier", "simpleDatatype": "Char"}, {"_links": {"modelClassVariable": {"href": "/mdr/sdtm/1-8/classes/Interventions/variables/--TDOSD", "title": "Toxic/Physiologic Dose Descr", "type": "Class Variable"}, "parentDataset": {"href": "/mdr/sendig/ar-1-0/datasets/AG", "title": "Procedure Agents", "type": "SDTM Dataset"}, "parentProduct": {"href": "/mdr/sendig/ar-1-0", "title": "Standard for Exchange of Nonclinical Data Implementation Guide: Animal Rule Version 1.0 (Final)", "type": "Implementation Guide"}, "rootItem": {"href": "/mdr/root/sendig/datasets/AG/variables/AGTDOSD", "title": "Version-agnostic anchor resource for SENDIG variable AG.AGTDOSD", "type": "Root Data Element"}, "self": {"href": "/mdr/sendig/ar-1-0/datasets/AG/variables/AGTDOSD", "title": "Toxic/Physiologic Dose Descr", "type": "SDTM Dataset Variable"}}, "core": "Perm", "description": "A description of a statistically derived estimate of a dose with a certain toxicological or physiologic effect in a population, based on data from a dose-response study. Examples: \"LD50\", \"ED90\"[2].", "label": "Toxic/Physiologic Dose Descr", "name": "AGTDOSD", "ordinal": "17", "role": "Variable Qualifier", "simpleDatatype": "Char"}, {"_links": {"modelClassVariable": {"href": "/mdr/sdtm/1-8/classes/Interventions/variables/--FTDOSD", "title": "Factor for Toxic/Physiologic Dose Descr", "type": "Class Variable"}, "parentDataset": {"href": "/mdr/sendig/ar-1-0/datasets/AG", "title": "Procedure Agents", "type": "SDTM Dataset"}, "parentProduct": {"href": "/mdr/sendig/ar-1-0", "title": "Standard for Exchange of Nonclinical Data Implementation Guide: Animal Rule Version 1.0 (Final)", "type": "Implementation Guide"}, "rootItem": {"href": "/mdr/root/sendig/datasets/AG/variables/AGFTDOSD", "title": "Version-agnostic anchor resource for SENDIG variable AG.AGFTDOSD", "type": "Root Data Element"}, "self": {"href": "/mdr/sendig/ar-1-0/datasets/AG/variables/AGFTDOSD", "title": "Factor for Toxic/Physiologic Dose Descr", "type": "SDTM Dataset Variable"}}, "core": "Perm", "description": "The quantity given for the multiplier of the Toxicologic/Physiologic Dose Descriptor. \n Example: AGFTDOSD=\"10\" used when AGTDOSD=\"LD50\" to represent a dose that is 10 times the LD50.", "label": "Factor for Toxic/Physiologic Dose Descr", "name": "AGFTDOSD", "ordinal": "18", "role": "Record Qualifier", "simpleDatatype": "Num"}, {"_links": {"codelist": [{"href": "/mdr/root/ct/sendct/codelists/C66726", "title": "Version-agnostic anchor resource for codelist C66726", "type": "Root Value Domain"}], "modelClassVariable": {"href": "/mdr/sdtm/1-8/classes/Interventions/variables/--DOSFRM", "title": "Dose Form", "type": "Class Variable"}, "parentDataset": {"href": "/mdr/sendig/ar-1-0/datasets/AG", "title": "Procedure Agents", "type": "SDTM Dataset"}, "parentProduct": {"href": "/mdr/sendig/ar-1-0", "title": "Standard for Exchange of Nonclinical Data Implementation Guide: Animal Rule Version 1.0 (Final)", "type": "Implementation Guide"}, "rootItem": {"href": "/mdr/root/sendig/datasets/AG/variables/AGDOSFRM", "title": "Version-agnostic anchor resource for SENDIG variable AG.AGDOSFRM", "type": "Root Data Element"}, "self": {"href": "/mdr/sendig/ar-1-0/datasets/AG/variables/AGDOSFRM", "title": "Dose Form", "type": "SDTM Dataset Variable"}}, "core": "Perm", "description": "Dose form for AGTRT. Examples: \"TABLET\", \"AEROSOL\".", "label": "Dose Form", "name": "AGDOSFRM", "ordinal": "19", "role": "Variable Qualifier", "simpleDatatype": "Char"}, {"_links": {"codelist": [{"href": "/mdr/root/ct/sendct/codelists/C71113", "title": "Version-agnostic anchor resource for codelist C71113", "type": "Root Value Domain"}], "modelClassVariable": {"href": "/mdr/sdtm/1-8/classes/Interventions/variables/--DOSFRQ", "title": "Dosing Frequency per Interval", "type": "Class Variable"}, "parentDataset": {"href": "/mdr/sendig/ar-1-0/datasets/AG", "title": "Procedure Agents", "type": "SDTM Dataset"}, "parentProduct": {"href": "/mdr/sendig/ar-1-0", "title": "Standard for Exchange of Nonclinical Data Implementation Guide: Animal Rule Version 1.0 (Final)", "type": "Implementation Guide"}, "rootItem": {"href": "/mdr/root/sendig/datasets/AG/variables/AGDOSFRQ", "title": "Version-agnostic anchor resource for SENDIG variable AG.AGDOSFRQ", "type": "Root Data Element"}, "self": {"href": "/mdr/sendig/ar-1-0/datasets/AG/variables/AGDOSFRQ", "title": "Dosing Frequency per Interval", "type": "SDTM Dataset Variable"}}, "core": "Perm", "description": "Usually expressed as the number of repeated administrations of AGDOSE within a specific time period. Example: \"ONCE\".", "label": "Dosing Frequency per Interval", "name": "AGDOSFRQ", "ordinal": "20", "role": "Variable Qualifier", "simpleDatatype": "Char"}, {"_links": {"codelist": [{"href": "/mdr/root/ct/sendct/codelists/C66729", "title": "Version-agnostic anchor resource for codelist C66729", "type": "Root Value Domain"}], "modelClassVariable": {"href": "/mdr/sdtm/1-8/classes/Interventions/variables/--ROUTE", "title": "Route of Administration", "type": "Class Variable"}, "parentDataset": {"href": "/mdr/sendig/ar-1-0/datasets/AG", "title": "Procedure Agents", "type": "SDTM Dataset"}, "parentProduct": {"href": "/mdr/sendig/ar-1-0", "title": "Standard for Exchange of Nonclinical Data Implementation Guide: Animal Rule Version 1.0 (Final)", "type": "Implementation Guide"}, "rootItem": {"href": "/mdr/root/sendig/datasets/AG/variables/AGROUTE", "title": "Version-agnostic anchor resource for SENDIG variable AG.AGROUTE", "type": "Root Data Element"}, "self": {"href": "/mdr/sendig/ar-1-0/datasets/AG/variables/AGROUTE", "title": "Route of Administration", "type": "SDTM Dataset Variable"}}, "core": "Perm", "description": "Route of administration for AGTRT. Examples: \"ORAL\", \"INTRAMUSCULAR\".", "label": "Route of Administration", "name": "AGROUTE", "ordinal": "21", "role": "Variable Qualifier", "simpleDatatype": "Char"}, {"_links": {"codelist": [{"href": "/mdr/root/ct/sendct/codelists/C66742", "title": "Version-agnostic anchor resource for codelist C66742", "type": "Root Value Domain"}], "modelClassVariable": {"href": "/mdr/sdtm/1-8/classes/Interventions/variables/--RSTIND", "title": "Restraint Indicator", "type": "Class Variable"}, "parentDataset": {"href": "/mdr/sendig/ar-1-0/datasets/AG", "title": "Procedure Agents", "type": "SDTM Dataset"}, "parentProduct": {"href": "/mdr/sendig/ar-1-0", "title": "Standard for Exchange of Nonclinical Data Implementation Guide: Animal Rule Version 1.0 (Final)", "type": "Implementation Guide"}, "rootItem": {"href": "/mdr/root/sendig/datasets/AG/variables/AGRSTIND", "title": "Version-agnostic anchor resource for SENDIG variable AG.AGRSTIND", "type": "Root Data Element"}, "self": {"href": "/mdr/sendig/ar-1-0/datasets/AG/variables/AGRSTIND", "title": "Restraint Indicator", "type": "SDTM Dataset Variable"}}, "core": "Exp", "description": "An indicator as to whether the subject was restrained during the intervention period.", "label": "Restraint Indicator", "name": "AGRSTIND", "ordinal": "22", "role": "Record Qualifier", "simpleDatatype": "Char"}, {"_links": {"codelist": [{"href": "/mdr/root/ct/sendct/codelists/C158123", "title": "Version-agnostic anchor resource for codelist C158123", "type": "Root Value Domain"}], "modelClassVariable": {"href": "/mdr/sdtm/1-8/classes/Interventions/variables/--RSTMOD", "title": "Restraint Mode", "type": "Class Variable"}, "parentDataset": {"href": "/mdr/sendig/ar-1-0/datasets/AG", "title": "Procedure Agents", "type": "SDTM Dataset"}, "parentProduct": {"href": "/mdr/sendig/ar-1-0", "title": "Standard for Exchange of Nonclinical Data Implementation Guide: Animal Rule Version 1.0 (Final)", "type": "Implementation Guide"}, "rootItem": {"href": "/mdr/root/sendig/datasets/AG/variables/AGRSTMOD", "title": "Version-agnostic anchor resource for SENDIG variable AG.AGRSTMOD", "type": "Root Data Element"}, "self": {"href": "/mdr/sendig/ar-1-0/datasets/AG/variables/AGRSTMOD", "title": "Restraint Mode", "type": "SDTM Dataset Variable"}}, "core": "Exp", "description": "A description of whether the restraint was physical and/or chemical.", "label": "Restraint Mode", "name": "AGRSTMOD", "ordinal": "23", "role": "Record Qualifier", "simpleDatatype": "Char"}, {"_links": {"modelClassVariable": {"href": "/mdr/sdtm/1-8/classes/GeneralObservations/variables/--STDTC", "title": "Start Date/Time of Observation", "type": "Class Variable"}, "parentDataset": {"href": "/mdr/sendig/ar-1-0/datasets/AG", "title": "Procedure Agents", "type": "SDTM Dataset"}, "parentProduct": {"href": "/mdr/sendig/ar-1-0", "title": "Standard for Exchange of Nonclinical Data Implementation Guide: Animal Rule Version 1.0 (Final)", "type": "Implementation Guide"}, "rootItem": {"href": "/mdr/root/sendig/datasets/AG/variables/AGSTDTC", "title": "Version-agnostic anchor resource for SENDIG variable AG.AGSTDTC", "type": "Root Data Element"}, "self": {"href": "/mdr/sendig/ar-1-0/datasets/AG/variables/AGSTDTC", "title": "Start Date/Time of Agent", "type": "SDTM Dataset Variable"}}, "core": "Perm", "describedValueDomain": "ISO 8601", "description": "The date/time when administration of the agent indicated by AGTRT and the dosing variables began.", "label": "Start Date/Time of Agent", "name": "AGSTDTC", "ordinal": "24", "role": "Timing", "simpleDatatype": "Char"}, {"_links": {"modelClassVariable": {"href": "/mdr/sdtm/1-8/classes/GeneralObservations/variables/--ENDTC", "title": "End Date/Time of Observation", "type": "Class Variable"}, "parentDataset": {"href": "/mdr/sendig/ar-1-0/datasets/AG", "title": "Procedure Agents", "type": "SDTM Dataset"}, "parentProduct": {"href": "/mdr/sendig/ar-1-0", "title": "Standard for Exchange of Nonclinical Data Implementation Guide: Animal Rule Version 1.0 (Final)", "type": "Implementation Guide"}, "rootItem": {"href": "/mdr/root/sendig/datasets/AG/variables/AGENDTC", "title": "Version-agnostic anchor resource for SENDIG variable AG.AGENDTC", "type": "Root Data Element"}, "self": {"href": "/mdr/sendig/ar-1-0/datasets/AG/variables/AGENDTC", "title": "End Date/Time of Agent", "type": "SDTM Dataset Variable"}}, "core": "Perm", "describedValueDomain": "ISO 8601", "description": "The date/time when administration of the agent indicated by AGTRT and the dosing variables ended.", "label": "End Date/Time of Agent", "name": "AGENDTC", "ordinal": "25", "role": "Timing", "simpleDatatype": "Char"}, {"_links": {"modelClassVariable": {"href": "/mdr/sdtm/1-8/classes/GeneralObservations/variables/--STDY", "title": "Study Day of Start of Observation", "type": "Class Variable"}, "parentDataset": {"href": "/mdr/sendig/ar-1-0/datasets/AG", "title": "Procedure Agents", "type": "SDTM Dataset"}, "parentProduct": {"href": "/mdr/sendig/ar-1-0", "title": "Standard for Exchange of Nonclinical Data Implementation Guide: Animal Rule Version 1.0 (Final)", "type": "Implementation Guide"}, "rootItem": {"href": "/mdr/root/sendig/datasets/AG/variables/AGSTDY", "title": "Version-agnostic anchor resource for SENDIG variable AG.AGSTDY", "type": "Root Data Element"}, "self": {"href": "/mdr/sendig/ar-1-0/datasets/AG/variables/AGSTDY", "title": "Study Day of Start of Treatment", "type": "SDTM Dataset Variable"}}, "core": "Exp", "description": "Day of start of exposure to challenge agent in AGSTDTC relative to the first date of study start (RFSTDTC in Demographics). Must be an integer.", "label": "Study Day of Start of Treatment", "name": "AGSTDY", "ordinal": "26", "role": "Timing", "simpleDatatype": "Num"}, {"_links": {"modelClassVariable": {"href": "/mdr/sdtm/1-8/classes/GeneralObservations/variables/--ENDY", "title": "Study Day of End of Observation", "type": "Class Variable"}, "parentDataset": {"href": "/mdr/sendig/ar-1-0/datasets/AG", "title": "Procedure Agents", "type": "SDTM Dataset"}, "parentProduct": {"href": "/mdr/sendig/ar-1-0", "title": "Standard for Exchange of Nonclinical Data Implementation Guide: Animal Rule Version 1.0 (Final)", "type": "Implementation Guide"}, "rootItem": {"href": "/mdr/root/sendig/datasets/AG/variables/AGENDY", "title": "Version-agnostic anchor resource for SENDIG variable AG.AGENDY", "type": "Root Data Element"}, "self": {"href": "/mdr/sendig/ar-1-0/datasets/AG/variables/AGENDY", "title": "Study Day of End of Treatment", "type": "SDTM Dataset Variable"}}, "core": "Perm", "description": "Day of end of exposure to challenge agent in AGENDTC relative to the first date of study start (RFSTDTC in Demographics). Must be an integer.", "label": "Study Day of End of Treatment", "name": "AGENDY", "ordinal": "27", "role": "Timing", "simpleDatatype": "Num"}, {"_links": {"modelClassVariable": {"href": "/mdr/sdtm/1-8/classes/GeneralObservations/variables/--NOMDY", "title": "Nominal Study Day for Tabulations", "type": "Class Variable"}, "parentDataset": {"href": "/mdr/sendig/ar-1-0/datasets/AG", "title": "Procedure Agents", "type": "SDTM Dataset"}, "parentProduct": {"href": "/mdr/sendig/ar-1-0", "title": "Standard for Exchange of Nonclinical Data Implementation Guide: Animal Rule Version 1.0 (Final)", "type": "Implementation Guide"}, "rootItem": {"href": "/mdr/root/sendig/datasets/AG/variables/AGNOMDY", "title": "Version-agnostic anchor resource for SENDIG variable AG.AGNOMDY", "type": "Root Data Element"}, "self": {"href": "/mdr/sendig/ar-1-0/datasets/AG/variables/AGNOMDY", "title": "Nominal Study Day for Tabulations", "type": "SDTM Dataset Variable"}}, "core": "Exp", "description": "Nominal study day used for grouping records for observations that may occur on different days into a single reported study day. Should be an integer.", "label": "Nominal Study Day for Tabulations", "name": "AGNOMDY", "ordinal": "28", "role": "Timing", "simpleDatatype": "Num"}, {"_links": {"modelClassVariable": {"href": "/mdr/sdtm/1-8/classes/GeneralObservations/variables/--NOMLBL", "title": "Label for Nominal Study Day", "type": "Class Variable"}, "parentDataset": {"href": "/mdr/sendig/ar-1-0/datasets/AG", "title": "Procedure Agents", "type": "SDTM Dataset"}, "parentProduct": {"href": "/mdr/sendig/ar-1-0", "title": "Standard for Exchange of Nonclinical Data Implementation Guide: Animal Rule Version 1.0 (Final)", "type": "Implementation Guide"}, "rootItem": {"href": "/mdr/root/sendig/datasets/AG/variables/AGNOMLBL", "title": "Version-agnostic anchor resource for SENDIG variable AG.AGNOMLBL", "type": "Root Data Element"}, "self": {"href": "/mdr/sendig/ar-1-0/datasets/AG/variables/AGNOMLBL", "title": "Label for Nominal Study Day", "type": "SDTM Dataset Variable"}}, "core": "Perm", "description": "A label for a given value of AGNOMDY as presented in the study report. Examples: \"Week 4\", \"Day 28\".", "label": "Label for Nominal Study Day", "name": "AGNOMLBL", "ordinal": "29", "role": "Timing", "simpleDatatype": "Char"}, {"_links": {"modelClassVariable": {"href": "/mdr/sdtm/1-8/classes/GeneralObservations/variables/--XSTDY", "title": "Start Day of Obs Relative to Exposure", "type": "Class Variable"}, "parentDataset": {"href": "/mdr/sendig/ar-1-0/datasets/AG", "title": "Procedure Agents", "type": "SDTM Dataset"}, "parentProduct": {"href": "/mdr/sendig/ar-1-0", "title": "Standard for Exchange of Nonclinical Data Implementation Guide: Animal Rule Version 1.0 (Final)", "type": "Implementation Guide"}, "rootItem": {"href": "/mdr/root/sendig/datasets/AG/variables/AGXSTDY", "title": "Version-agnostic anchor resource for SENDIG variable AG.AGXSTDY", "type": "Root Data Element"}, "self": {"href": "/mdr/sendig/ar-1-0/datasets/AG/variables/AGXSTDY", "title": "Start Day of Chall Agent Rel to Exposure", "type": "SDTM Dataset Variable"}}, "core": "Exp", "description": "Day of start of exposure to challenge agent in AGSTDTC relative to the first date of exposure (RFXSTDTC in Demographics). Must be an integer.", "label": "Start Day of Chall Agent Rel to Exposure", "name": "AGXSTDY", "ordinal": "30", "role": "Timing", "simpleDatatype": "Num"}, {"_links": {"modelClassVariable": {"href": "/mdr/sdtm/1-8/classes/GeneralObservations/variables/--XENDY", "title": "End Day of Obs Relative to Exposure", "type": "Class Variable"}, "parentDataset": {"href": "/mdr/sendig/ar-1-0/datasets/AG", "title": "Procedure Agents", "type": "SDTM Dataset"}, "parentProduct": {"href": "/mdr/sendig/ar-1-0", "title": "Standard for Exchange of Nonclinical Data Implementation Guide: Animal Rule Version 1.0 (Final)", "type": "Implementation Guide"}, "rootItem": {"href": "/mdr/root/sendig/datasets/AG/variables/AGXENDY", "title": "Version-agnostic anchor resource for SENDIG variable AG.AGXENDY", "type": "Root Data Element"}, "self": {"href": "/mdr/sendig/ar-1-0/datasets/AG/variables/AGXENDY", "title": "End Day of Chall Agent Rel to Exposure", "type": "SDTM Dataset Variable"}}, "core": "Perm", "description": "Day of end of exposure to challenge agent in AGENDTC relative to the first date of exposure (RFXSTDTC in Demographics). Must be an integer.", "label": "End Day of Chall Agent Rel to Exposure", "name": "AGXENDY", "ordinal": "31", "role": "Timing", "simpleDatatype": "Num"}], "label": "Procedure Agents", "name": "AG", "ordinal": "3"}
