{"_links": {"modelDataset": {"href": "/mdr/sdtm/1-8/datasets/DM", "title": "Demographics", "type": "SDTM Dataset"}, "parentClass": {"href": "/mdr/sendig/ar-1-0/classes/SpecialPurpose", "title": "Special-Purpose Datasets", "type": "Class"}, "parentProduct": {"href": "/mdr/sendig/ar-1-0", "title": "Standard for Exchange of Nonclinical Data Implementation Guide: Animal Rule Version 1.0 (Final)", "type": "Implementation Guide"}, "self": {"href": "/mdr/sendig/ar-1-0/datasets/DM", "title": "Demographics", "type": "SDTM Dataset"}}, "datasetStructure": "One record per subject", "datasetVariables": [{"_links": {"modelDatasetVariable": {"href": "/mdr/sdtm/1-8/datasets/DM/variables/STUDYID", "title": "Study Identifier", "type": "SDTM Dataset Variable"}, "parentDataset": {"href": "/mdr/sendig/ar-1-0/datasets/DM", "title": "Demographics", "type": "SDTM Dataset"}, "parentProduct": {"href": "/mdr/sendig/ar-1-0", "title": "Standard for Exchange of Nonclinical Data Implementation Guide: Animal Rule Version 1.0 (Final)", "type": "Implementation Guide"}, "rootItem": {"href": "/mdr/root/sendig/datasets/DM/variables/STUDYID", "title": "Version-agnostic anchor resource for SENDIG variable DM.STUDYID", "type": "Root Data Element"}, "self": {"href": "/mdr/sendig/ar-1-0/datasets/DM/variables/STUDYID", "title": "Study Identifier", "type": "SDTM Dataset Variable"}}, "core": "Req", "description": "Unique identifier for a study.", "label": "Study Identifier", "name": "STUDYID", "ordinal": "1", "role": "Identifier", "simpleDatatype": "Char"}, {"_links": {"modelDatasetVariable": {"href": "/mdr/sdtm/1-8/datasets/DM/variables/DOMAIN", "title": "Domain Abbreviation", "type": "SDTM Dataset Variable"}, "parentDataset": {"href": "/mdr/sendig/ar-1-0/datasets/DM", "title": "Demographics", "type": "SDTM Dataset"}, "parentProduct": {"href": "/mdr/sendig/ar-1-0", "title": "Standard for Exchange of Nonclinical Data Implementation Guide: Animal Rule Version 1.0 (Final)", "type": "Implementation Guide"}, "rootItem": {"href": "/mdr/root/sendig/datasets/DM/variables/DOMAIN", "title": "Version-agnostic anchor resource for SENDIG variable DM.DOMAIN", "type": "Root Data Element"}, "self": {"href": "/mdr/sendig/ar-1-0/datasets/DM/variables/DOMAIN", "title": "Domain Abbreviation", "type": "SDTM Dataset Variable"}}, "core": "Req", "description": "Two-character abbreviation for the domain.", "label": "Domain Abbreviation", "name": "DOMAIN", "ordinal": "2", "role": "Identifier", "simpleDatatype": "Char", "valueList": ["DM"]}, {"_links": {"modelDatasetVariable": {"href": "/mdr/sdtm/1-8/datasets/DM/variables/USUBJID", "title": "Unique Subject Identifier", "type": "SDTM Dataset Variable"}, "parentDataset": {"href": "/mdr/sendig/ar-1-0/datasets/DM", "title": "Demographics", "type": "SDTM Dataset"}, "parentProduct": {"href": "/mdr/sendig/ar-1-0", "title": "Standard for Exchange of Nonclinical Data Implementation Guide: Animal Rule Version 1.0 (Final)", "type": "Implementation Guide"}, "rootItem": {"href": "/mdr/root/sendig/datasets/DM/variables/USUBJID", "title": "Version-agnostic anchor resource for SENDIG variable DM.USUBJID", "type": "Root Data Element"}, "self": {"href": "/mdr/sendig/ar-1-0/datasets/DM/variables/USUBJID", "title": "Unique Subject Identifier", "type": "SDTM Dataset Variable"}}, "core": "Req", "description": "Identifier used to uniquely identify a subject across all studies for all applications or submissions involving the product.", "label": "Unique Subject Identifier", "name": "USUBJID", "ordinal": "3", "role": "Identifier", "simpleDatatype": "Char"}, {"_links": {"modelDatasetVariable": {"href": "/mdr/sdtm/1-8/datasets/DM/variables/SUBJID", "title": "Subject Identifier for the Study", "type": "SDTM Dataset Variable"}, "parentDataset": {"href": "/mdr/sendig/ar-1-0/datasets/DM", "title": "Demographics", "type": "SDTM Dataset"}, "parentProduct": {"href": "/mdr/sendig/ar-1-0", "title": "Standard for Exchange of Nonclinical Data Implementation Guide: Animal Rule Version 1.0 (Final)", "type": "Implementation Guide"}, "rootItem": {"href": "/mdr/root/sendig/datasets/DM/variables/SUBJID", "title": "Version-agnostic anchor resource for SENDIG variable DM.SUBJID", "type": "Root Data Element"}, "self": {"href": "/mdr/sendig/ar-1-0/datasets/DM/variables/SUBJID", "title": "Subject Identifier for the Study", "type": "SDTM Dataset Variable"}}, "core": "Req", "description": "Subject (i.e., animal) identifier used within the study.", "label": "Subject Identifier for the Study", "name": "SUBJID", "ordinal": "4", "role": "Topic", "simpleDatatype": "Char"}, {"_links": {"modelDatasetVariable": {"href": "/mdr/sdtm/1-8/datasets/DM/variables/RFSTDTC", "title": "Subject Reference Start Date/Time", "type": "SDTM Dataset Variable"}, "parentDataset": {"href": "/mdr/sendig/ar-1-0/datasets/DM", "title": "Demographics", "type": "SDTM Dataset"}, "parentProduct": {"href": "/mdr/sendig/ar-1-0", "title": "Standard for Exchange of Nonclinical Data Implementation Guide: Animal Rule Version 1.0 (Final)", "type": "Implementation Guide"}, "rootItem": {"href": "/mdr/root/sendig/datasets/DM/variables/RFSTDTC", "title": "Version-agnostic anchor resource for SENDIG variable DM.RFSTDTC", "type": "Root Data Element"}, "self": {"href": "/mdr/sendig/ar-1-0/datasets/DM/variables/RFSTDTC", "title": "Subject Reference Start Date/Time", "type": "SDTM Dataset Variable"}}, "core": "Req", "describedValueDomain": "ISO 8601", "description": "Reference start date/time for the subject in ISO 8601 format. Usually equivalent to date/time when subject was first exposed to study treatment. Study day calculation (the --DY variable) in all domains will be based on this date. The sponsor must define what collected date is used to populate RFSTDTC in the data definition file.", "label": "Subject Reference Start Date/Time", "name": "RFSTDTC", "ordinal": "5", "role": "Record Qualifier", "simpleDatatype": "Char"}, {"_links": {"modelDatasetVariable": {"href": "/mdr/sdtm/1-8/datasets/DM/variables/RFENDTC", "title": "Subject Reference End Date/Time", "type": "SDTM Dataset Variable"}, "parentDataset": {"href": "/mdr/sendig/ar-1-0/datasets/DM", "title": "Demographics", "type": "SDTM Dataset"}, "parentProduct": {"href": "/mdr/sendig/ar-1-0", "title": "Standard for Exchange of Nonclinical Data Implementation Guide: Animal Rule Version 1.0 (Final)", "type": "Implementation Guide"}, "rootItem": {"href": "/mdr/root/sendig/datasets/DM/variables/RFENDTC", "title": "Version-agnostic anchor resource for SENDIG variable DM.RFENDTC", "type": "Root Data Element"}, "self": {"href": "/mdr/sendig/ar-1-0/datasets/DM/variables/RFENDTC", "title": "Subject Reference End Date/Time", "type": "SDTM Dataset Variable"}}, "core": "Exp", "describedValueDomain": "ISO 8601", "description": "Reference end date/time for the subject in ISO 8601 format. Usually equivalent to the date/time when the subject was determined to have left the study. The sponsor must define what collected date is used to populate RFENDTC in the data definition file.", "label": "Subject Reference End Date/Time", "name": "RFENDTC", "ordinal": "6", "role": "Record Qualifier", "simpleDatatype": "Char"}, {"_links": {"modelDatasetVariable": {"href": "/mdr/sdtm/1-8/datasets/DM/variables/RFXSTDTC", "title": "Date/Time of First Study Treatment", "type": "SDTM Dataset Variable"}, "parentDataset": {"href": "/mdr/sendig/ar-1-0/datasets/DM", "title": "Demographics", "type": "SDTM Dataset"}, "parentProduct": {"href": "/mdr/sendig/ar-1-0", "title": "Standard for Exchange of Nonclinical Data Implementation Guide: Animal Rule Version 1.0 (Final)", "type": "Implementation Guide"}, "rootItem": {"href": "/mdr/root/sendig/datasets/DM/variables/RFXSTDTC", "title": "Version-agnostic anchor resource for SENDIG variable DM.RFXSTDTC", "type": "Root Data Element"}, "self": {"href": "/mdr/sendig/ar-1-0/datasets/DM/variables/RFXSTDTC", "title": "Date/Time of First Study Treatment", "type": "SDTM Dataset Variable"}}, "core": "Exp", "describedValueDomain": "ISO 8601", "description": "First date/time of exposure to any protocol-specified treatment or therapy, equal to the earliest value of EXSTDTC. Note: Absolute first.", "label": "Date/Time of First Study Treatment", "name": "RFXSTDTC", "ordinal": "7", "role": "Record Qualifier", "simpleDatatype": "Char"}, {"_links": {"modelDatasetVariable": {"href": "/mdr/sdtm/1-8/datasets/DM/variables/RFXENDTC", "title": "Date/Time of Last Study Treatment", "type": "SDTM Dataset Variable"}, "parentDataset": {"href": "/mdr/sendig/ar-1-0/datasets/DM", "title": "Demographics", "type": "SDTM Dataset"}, "parentProduct": {"href": "/mdr/sendig/ar-1-0", "title": "Standard for Exchange of Nonclinical Data Implementation Guide: Animal Rule Version 1.0 (Final)", "type": "Implementation Guide"}, "rootItem": {"href": "/mdr/root/sendig/datasets/DM/variables/RFXENDTC", "title": "Version-agnostic anchor resource for SENDIG variable DM.RFXENDTC", "type": "Root Data Element"}, "self": {"href": "/mdr/sendig/ar-1-0/datasets/DM/variables/RFXENDTC", "title": "Date/Time of Last Study Treatment", "type": "SDTM Dataset Variable"}}, "core": "Exp", "describedValueDomain": "ISO 8601", "description": "Last date/time of exposure to any protocol-specified treatment or therapy, equal to the latest value of EXENDTC (or the latest value of EXSTDTC if EXENDTC was not collected or is missing). Note: Absolute last.", "label": "Date/Time of Last Study Treatment", "name": "RFXENDTC", "ordinal": "8", "role": "Record Qualifier", "simpleDatatype": "Char"}, {"_links": {"modelDatasetVariable": {"href": "/mdr/sdtm/1-8/datasets/DM/variables/RFCSTDTC", "title": "Date/Time of First Challenge Agent Admin", "type": "SDTM Dataset Variable"}, "parentDataset": {"href": "/mdr/sendig/ar-1-0/datasets/DM", "title": "Demographics", "type": "SDTM Dataset"}, "parentProduct": {"href": "/mdr/sendig/ar-1-0", "title": "Standard for Exchange of Nonclinical Data Implementation Guide: Animal Rule Version 1.0 (Final)", "type": "Implementation Guide"}, "rootItem": {"href": "/mdr/root/sendig/datasets/DM/variables/RFCSTDTC", "title": "Version-agnostic anchor resource for SENDIG variable DM.RFCSTDTC", "type": "Root Data Element"}, "self": {"href": "/mdr/sendig/ar-1-0/datasets/DM/variables/RFCSTDTC", "title": "Date/Time of First Challenge Agent Admin", "type": "SDTM Dataset Variable"}}, "core": "Exp", "describedValueDomain": "ISO 8601", "description": "The start date or date and time of the first exposure to any protocol-specified challenge agent that induces the disease or condition that the investigational treatment is intended to cure, mitigate, treat, or prevent, represented in a standardized character format. \n Equal to the earliest value of AGSTDTC for the challenge agent.", "label": "Date/Time of First Challenge Agent Admin", "name": "RFCSTDTC", "ordinal": "9", "role": "Record Qualifier", "simpleDatatype": "Char"}, {"_links": {"modelDatasetVariable": {"href": "/mdr/sdtm/1-8/datasets/DM/variables/RFCENDTC", "title": "Date/Time of Last Challenge Agent Admin", "type": "SDTM Dataset Variable"}, "parentDataset": {"href": "/mdr/sendig/ar-1-0/datasets/DM", "title": "Demographics", "type": "SDTM Dataset"}, "parentProduct": {"href": "/mdr/sendig/ar-1-0", "title": "Standard for Exchange of Nonclinical Data Implementation Guide: Animal Rule Version 1.0 (Final)", "type": "Implementation Guide"}, "rootItem": {"href": "/mdr/root/sendig/datasets/DM/variables/RFCENDTC", "title": "Version-agnostic anchor resource for SENDIG variable DM.RFCENDTC", "type": "Root Data Element"}, "self": {"href": "/mdr/sendig/ar-1-0/datasets/DM/variables/RFCENDTC", "title": "Date/Time of Last Challenge Agent Admin", "type": "SDTM Dataset Variable"}}, "core": "Exp", "describedValueDomain": "ISO 8601", "description": "The end date or date and time of the last exposure to any protocol-specified challenge agent that induces the disease or condition that the investigational treatment is intended to cure, mitigate, treat, or prevent, represented in a standardized character format. \n Equal to the latest value of AGENDTC for the challenge agent.", "label": "Date/Time of Last Challenge Agent Admin", "name": "RFCENDTC", "ordinal": "10", "role": "Record Qualifier", "simpleDatatype": "Char"}, {"_links": {"modelDatasetVariable": {"href": "/mdr/sdtm/1-8/datasets/DM/variables/SITEID", "title": "Study Site Identifier", "type": "SDTM Dataset Variable"}, "parentDataset": {"href": "/mdr/sendig/ar-1-0/datasets/DM", "title": "Demographics", "type": "SDTM Dataset"}, "parentProduct": {"href": "/mdr/sendig/ar-1-0", "title": "Standard for Exchange of Nonclinical Data Implementation Guide: Animal Rule Version 1.0 (Final)", "type": "Implementation Guide"}, "rootItem": {"href": "/mdr/root/sendig/datasets/DM/variables/SITEID", "title": "Version-agnostic anchor resource for SENDIG variable DM.SITEID", "type": "Root Data Element"}, "self": {"href": "/mdr/sendig/ar-1-0/datasets/DM/variables/SITEID", "title": "Study Site Identifier", "type": "SDTM Dataset Variable"}}, "core": "Perm", "description": "Unique identifier for a study site within a submission. Use only if subjects are housed at different sites.", "label": "Study Site Identifier", "name": "SITEID", "ordinal": "11", "role": "Record Qualifier", "simpleDatatype": "Char"}, {"_links": {"modelDatasetVariable": {"href": "/mdr/sdtm/1-8/datasets/DM/variables/BRTHDTC", "title": "Date/Time of Birth", "type": "SDTM Dataset Variable"}, "parentDataset": {"href": "/mdr/sendig/ar-1-0/datasets/DM", "title": "Demographics", "type": "SDTM Dataset"}, "parentProduct": {"href": "/mdr/sendig/ar-1-0", "title": "Standard for Exchange of Nonclinical Data Implementation Guide: Animal Rule Version 1.0 (Final)", "type": "Implementation Guide"}, "rootItem": {"href": "/mdr/root/sendig/datasets/DM/variables/BRTHDTC", "title": "Version-agnostic anchor resource for SENDIG variable DM.BRTHDTC", "type": "Root Data Element"}, "self": {"href": "/mdr/sendig/ar-1-0/datasets/DM/variables/BRTHDTC", "title": "Date/Time of Birth", "type": "SDTM Dataset Variable"}}, "core": "Perm", "describedValueDomain": "ISO 8601", "description": "Date/time of birth of the subject, in ISO 8601 format.", "label": "Date/Time of Birth", "name": "BRTHDTC", "ordinal": "12", "role": "Record Qualifier", "simpleDatatype": "Char"}, {"_links": {"modelDatasetVariable": {"href": "/mdr/sdtm/1-8/datasets/DM/variables/AGE", "title": "Age", "type": "SDTM Dataset Variable"}, "parentDataset": {"href": "/mdr/sendig/ar-1-0/datasets/DM", "title": "Demographics", "type": "SDTM Dataset"}, "parentProduct": {"href": "/mdr/sendig/ar-1-0", "title": "Standard for Exchange of Nonclinical Data Implementation Guide: Animal Rule Version 1.0 (Final)", "type": "Implementation Guide"}, "rootItem": {"href": "/mdr/root/sendig/datasets/DM/variables/AGE", "title": "Version-agnostic anchor resource for SENDIG variable DM.AGE", "type": "Root Data Element"}, "self": {"href": "/mdr/sendig/ar-1-0/datasets/DM/variables/AGE", "title": "Age", "type": "SDTM Dataset Variable"}}, "core": "Perm", "description": "May be derived (RFSTDTC - BRTHDTC), but BRTHDTC may not be available in all cases. Age may also be collected.", "label": "Age", "name": "AGE", "ordinal": "13", "role": "Record Qualifier", "simpleDatatype": "Num"}, {"_links": {"modelDatasetVariable": {"href": "/mdr/sdtm/1-8/datasets/DM/variables/AGETXT", "title": "Age Text", "type": "SDTM Dataset Variable"}, "parentDataset": {"href": "/mdr/sendig/ar-1-0/datasets/DM", "title": "Demographics", "type": "SDTM Dataset"}, "parentProduct": {"href": "/mdr/sendig/ar-1-0", "title": "Standard for Exchange of Nonclinical Data Implementation Guide: Animal Rule Version 1.0 (Final)", "type": "Implementation Guide"}, "rootItem": {"href": "/mdr/root/sendig/datasets/DM/variables/AGETXT", "title": "Version-agnostic anchor resource for SENDIG variable DM.AGETXT", "type": "Root Data Element"}, "self": {"href": "/mdr/sendig/ar-1-0/datasets/DM/variables/AGETXT", "title": "Age Range", "type": "SDTM Dataset Variable"}}, "core": "Perm", "describedValueDomain": "number-number", "description": "Used when the age is a range and the exact birthdate is not known. This variable is a character field for the purpose of defining age ranges (e.g., if the information available for the age of the subject is 6-8 and AGEU is WEEKS). Populate only when BRTHDTC or AGE is not specified. The format for AGETXT is \"number-number\" (e.g., \"6-8\").", "label": "Age Range", "name": "AGETXT", "ordinal": "14", "role": "Record Qualifier", "simpleDatatype": "Char"}, {"_links": {"codelist": [{"href": "/mdr/root/ct/sendct/codelists/C66781", "title": "Version-agnostic anchor resource for codelist C66781", "type": "Root Value Domain"}], "modelDatasetVariable": {"href": "/mdr/sdtm/1-8/datasets/DM/variables/AGEU", "title": "Age Units", "type": "SDTM Dataset Variable"}, "parentDataset": {"href": "/mdr/sendig/ar-1-0/datasets/DM", "title": "Demographics", "type": "SDTM Dataset"}, "parentProduct": {"href": "/mdr/sendig/ar-1-0", "title": "Standard for Exchange of Nonclinical Data Implementation Guide: Animal Rule Version 1.0 (Final)", "type": "Implementation Guide"}, "rootItem": {"href": "/mdr/root/sendig/datasets/DM/variables/AGEU", "title": "Version-agnostic anchor resource for SENDIG variable DM.AGEU", "type": "Root Data Element"}, "self": {"href": "/mdr/sendig/ar-1-0/datasets/DM/variables/AGEU", "title": "Age Unit", "type": "SDTM Dataset Variable"}}, "core": "Exp", "description": "Units associated with AGE and AGETXT.", "label": "Age Unit", "name": "AGEU", "ordinal": "15", "role": "Variable Qualifier", "simpleDatatype": "Char"}, {"_links": {"codelist": [{"href": "/mdr/root/ct/sendct/codelists/C66731", "title": "Version-agnostic anchor resource for codelist C66731", "type": "Root Value Domain"}], "modelDatasetVariable": {"href": "/mdr/sdtm/1-8/datasets/DM/variables/SEX", "title": "Sex", "type": "SDTM Dataset Variable"}, "parentDataset": {"href": "/mdr/sendig/ar-1-0/datasets/DM", "title": "Demographics", "type": "SDTM Dataset"}, "parentProduct": {"href": "/mdr/sendig/ar-1-0", "title": "Standard for Exchange of Nonclinical Data Implementation Guide: Animal Rule Version 1.0 (Final)", "type": "Implementation Guide"}, "rootItem": {"href": "/mdr/root/sendig/datasets/DM/variables/SEX", "title": "Version-agnostic anchor resource for SENDIG variable DM.SEX", "type": "Root Data Element"}, "self": {"href": "/mdr/sendig/ar-1-0/datasets/DM/variables/SEX", "title": "Sex", "type": "SDTM Dataset Variable"}}, "core": "Req", "description": "The sex of the subject.", "label": "Sex", "name": "SEX", "ordinal": "16", "role": "Record Qualifier", "simpleDatatype": "Char"}, {"_links": {"codelist": [{"href": "/mdr/root/ct/sendct/codelists/C160931", "title": "Version-agnostic anchor resource for codelist C160931", "type": "Root Value Domain"}], "modelDatasetVariable": {"href": "/mdr/sdtm/1-8/datasets/DM/variables/SPECIES", "title": "Species", "type": "SDTM Dataset Variable"}, "parentDataset": {"href": "/mdr/sendig/ar-1-0/datasets/DM", "title": "Demographics", "type": "SDTM Dataset"}, "parentProduct": {"href": "/mdr/sendig/ar-1-0", "title": "Standard for Exchange of Nonclinical Data Implementation Guide: Animal Rule Version 1.0 (Final)", "type": "Implementation Guide"}, "rootItem": {"href": "/mdr/root/sendig/datasets/DM/variables/SPECIES", "title": "Version-agnostic anchor resource for SENDIG variable DM.SPECIES", "type": "Root Data Element"}, "self": {"href": "/mdr/sendig/ar-1-0/datasets/DM/variables/SPECIES", "title": "Species", "type": "SDTM Dataset Variable"}}, "core": "Perm", "description": "If this variable is excluded in the DM domain, the information must be present at a higher level (either Trial Sets or Trial Summary).", "label": "Species", "name": "SPECIES", "ordinal": "17", "role": "Record Qualifier", "simpleDatatype": "Char"}, {"_links": {"codelist": [{"href": "/mdr/root/ct/sendct/codelists/C77530", "title": "Version-agnostic anchor resource for codelist C77530", "type": "Root Value Domain"}], "modelDatasetVariable": {"href": "/mdr/sdtm/1-8/datasets/DM/variables/STRAIN", "title": "Strain/Substrain", "type": "SDTM Dataset Variable"}, "parentDataset": {"href": "/mdr/sendig/ar-1-0/datasets/DM", "title": "Demographics", "type": "SDTM Dataset"}, "parentProduct": {"href": "/mdr/sendig/ar-1-0", "title": "Standard for Exchange of Nonclinical Data Implementation Guide: Animal Rule Version 1.0 (Final)", "type": "Implementation Guide"}, "rootItem": {"href": "/mdr/root/sendig/datasets/DM/variables/STRAIN", "title": "Version-agnostic anchor resource for SENDIG variable DM.STRAIN", "type": "Root Data Element"}, "self": {"href": "/mdr/sendig/ar-1-0/datasets/DM/variables/STRAIN", "title": "Strain/Substrain", "type": "SDTM Dataset Variable"}}, "core": "Perm", "describedValueDomain": "Mouse Genome Database; Rat Genome Database", "description": "Used to identify the vendor-supplied strain. \n MGI Nomenclature should be used for mice. See http://www.informatics.jax.org/mgihome/nomen/strains.shtml \n The Rat Genome Database should be used for rats. See https://rgd.mcw.edu \n It is important that the full symbol for the strain, not an abbreviated form, be used. Because the .xpt format does not support superscripts, superscripted text should be enclosed in angle brackets (i.e., \"<value>\"). For example, \"B6.Cg-Tyrc-2JHrhr/J\" would be \"B6.Cg-Tyr<c-2J>Hr<hr>/J\". \n The STRAIN codelist should be used for all species other than rats and mice.", "label": "Strain/Substrain", "name": "STRAIN", "ordinal": "18", "role": "Record Qualifier", "simpleDatatype": "Char"}, {"_links": {"modelDatasetVariable": {"href": "/mdr/sdtm/1-8/datasets/DM/variables/SBSTRAIN", "title": "Strain/Substrain Details", "type": "SDTM Dataset Variable"}, "parentDataset": {"href": "/mdr/sendig/ar-1-0/datasets/DM", "title": "Demographics", "type": "SDTM Dataset"}, "parentProduct": {"href": "/mdr/sendig/ar-1-0", "title": "Standard for Exchange of Nonclinical Data Implementation Guide: Animal Rule Version 1.0 (Final)", "type": "Implementation Guide"}, "rootItem": {"href": "/mdr/root/sendig/datasets/DM/variables/SBSTRAIN", "title": "Version-agnostic anchor resource for SENDIG variable DM.SBSTRAIN", "type": "Root Data Element"}, "self": {"href": "/mdr/sendig/ar-1-0/datasets/DM/variables/SBSTRAIN", "title": "Strain/Substrain Details", "type": "SDTM Dataset Variable"}}, "core": "Perm", "description": "Not used for rats and mice. Free-text field that allows the sponsor to enter further details qualifying the SPECIES and/or STRAIN, depending on the level to which these variables were defined. Examples include the description of a specific genetic alteration, country of origin for non-human primates, details related to coat color (e.g., white and red designations for New Zealand Rabbits), and important animal husbandry information (e.g., \"SPF\", \"BR\", \"VAF\").", "label": "Strain/Substrain Details", "name": "SBSTRAIN", "ordinal": "19", "role": "Variable Qualifier", "simpleDatatype": "Char"}, {"_links": {"modelDatasetVariable": {"href": "/mdr/sdtm/1-8/datasets/DM/variables/ARMCD", "title": "Planned Arm Code", "type": "SDTM Dataset Variable"}, "parentDataset": {"href": "/mdr/sendig/ar-1-0/datasets/DM", "title": "Demographics", "type": "SDTM Dataset"}, "parentProduct": {"href": "/mdr/sendig/ar-1-0", "title": "Standard for Exchange of Nonclinical Data Implementation Guide: Animal Rule Version 1.0 (Final)", "type": "Implementation Guide"}, "rootItem": {"href": "/mdr/root/sendig/datasets/DM/variables/ARMCD", "title": "Version-agnostic anchor resource for SENDIG variable DM.ARMCD", "type": "Root Data Element"}, "self": {"href": "/mdr/sendig/ar-1-0/datasets/DM/variables/ARMCD", "title": "Planned Arm Code", "type": "SDTM Dataset Variable"}}, "core": "Exp", "description": "Short name for ARM (may be up to 20 characters) used for sorting and programming. Should be populated when arms have been defined in the TA domain.", "label": "Planned Arm Code", "name": "ARMCD", "ordinal": "20", "role": "Record Qualifier", "simpleDatatype": "Char"}, {"_links": {"modelDatasetVariable": {"href": "/mdr/sdtm/1-8/datasets/DM/variables/ARM", "title": "Description of Planned Arm", "type": "SDTM Dataset Variable"}, "parentDataset": {"href": "/mdr/sendig/ar-1-0/datasets/DM", "title": "Demographics", "type": "SDTM Dataset"}, "parentProduct": {"href": "/mdr/sendig/ar-1-0", "title": "Standard for Exchange of Nonclinical Data Implementation Guide: Animal Rule Version 1.0 (Final)", "type": "Implementation Guide"}, "rootItem": {"href": "/mdr/root/sendig/datasets/DM/variables/ARM", "title": "Version-agnostic anchor resource for SENDIG variable DM.ARM", "type": "Root Data Element"}, "self": {"href": "/mdr/sendig/ar-1-0/datasets/DM/variables/ARM", "title": "Description of Planned Arm", "type": "SDTM Dataset Variable"}}, "core": "Perm", "description": "Descriptive name given to a specific trial arm (e.g., \"Low Dose\", \"Mid Dose\", \"10 mg/kg/day dose\", \"Third Arm\") to which the subject was assigned.", "label": "Description of Planned Arm", "name": "ARM", "ordinal": "21", "role": "Synonym Qualifier", "simpleDatatype": "Char"}, {"_links": {"modelDatasetVariable": {"href": "/mdr/sdtm/1-8/datasets/DM/variables/SETCD", "title": "Set Code", "type": "SDTM Dataset Variable"}, "parentDataset": {"href": "/mdr/sendig/ar-1-0/datasets/DM", "title": "Demographics", "type": "SDTM Dataset"}, "parentProduct": {"href": "/mdr/sendig/ar-1-0", "title": "Standard for Exchange of Nonclinical Data Implementation Guide: Animal Rule Version 1.0 (Final)", "type": "Implementation Guide"}, "rootItem": {"href": "/mdr/root/sendig/datasets/DM/variables/SETCD", "title": "Version-agnostic anchor resource for SENDIG variable DM.SETCD", "type": "Root Data Element"}, "self": {"href": "/mdr/sendig/ar-1-0/datasets/DM/variables/SETCD", "title": "Set Code", "type": "SDTM Dataset Variable"}}, "core": "Req", "description": "Short name of a specific trial set to which the subject was assigned, as defined by the sponsor. Maximum of 8 characters. This represents the Trial Set for which parameters are being submitted.", "label": "Set Code", "name": "SETCD", "ordinal": "22", "role": "Record Qualifier", "simpleDatatype": "Char"}], "description": "A special-purpose domain that includes a set of essential standard variables that describe each subject in a clinical study. It is the parent domain for all other observations for human clinical subjects. (Source: CDISC Controlled Terminology, SDOMAIN, C49572, 2018-06-29)", "label": "Demographics", "name": "DM", "ordinal": "1"}
