{"_links": {"parentClass": {"href": "/mdr/sendig/ar-1-0/classes/FindingsAbout", "title": "Findings About Events or Interventions", "type": "Class"}, "parentProduct": {"href": "/mdr/sendig/ar-1-0", "title": "Standard for Exchange of Nonclinical Data Implementation Guide: Animal Rule Version 1.0 (Final)", "type": "Implementation Guide"}, "self": {"href": "/mdr/sendig/ar-1-0/datasets/FA", "title": "Findings About Events or Interventions", "type": "SDTM Dataset"}}, "datasetStructure": "One record per finding, per object, per time point, per visit per subject", "datasetVariables": [{"_links": {"modelClassVariable": {"href": "/mdr/sdtm/1-8/classes/GeneralObservations/variables/STUDYID", "title": "Study Identifier", "type": "Class Variable"}, "parentDataset": {"href": "/mdr/sendig/ar-1-0/datasets/FA", "title": "Findings About Events or Interventions", "type": "SDTM Dataset"}, "parentProduct": {"href": "/mdr/sendig/ar-1-0", "title": "Standard for Exchange of Nonclinical Data Implementation Guide: Animal Rule Version 1.0 (Final)", "type": "Implementation Guide"}, "rootItem": {"href": "/mdr/root/sendig/datasets/FA/variables/STUDYID", "title": "Version-agnostic anchor resource for SENDIG variable FA.STUDYID", "type": "Root Data Element"}, "self": {"href": "/mdr/sendig/ar-1-0/datasets/FA/variables/STUDYID", "title": "Study Identifier", "type": "SDTM Dataset Variable"}}, "core": "Req", "description": "Unique identifier for a study.", "label": "Study Identifier", "name": "STUDYID", "ordinal": "1", "role": "Identifier", "simpleDatatype": "Char"}, {"_links": {"modelClassVariable": {"href": "/mdr/sdtm/1-8/classes/GeneralObservations/variables/DOMAIN", "title": "Domain Abbreviation", "type": "Class Variable"}, "parentDataset": {"href": "/mdr/sendig/ar-1-0/datasets/FA", "title": "Findings About Events or Interventions", "type": "SDTM Dataset"}, "parentProduct": {"href": "/mdr/sendig/ar-1-0", "title": "Standard for Exchange of Nonclinical Data Implementation Guide: Animal Rule Version 1.0 (Final)", "type": "Implementation Guide"}, "rootItem": {"href": "/mdr/root/sendig/datasets/FA/variables/DOMAIN", "title": "Version-agnostic anchor resource for SENDIG variable FA.DOMAIN", "type": "Root Data Element"}, "self": {"href": "/mdr/sendig/ar-1-0/datasets/FA/variables/DOMAIN", "title": "Domain Abbreviation", "type": "SDTM Dataset Variable"}}, "core": "Req", "description": "Two-character abbreviation for the domain.", "label": "Domain Abbreviation", "name": "DOMAIN", "ordinal": "2", "role": "Identifier", "simpleDatatype": "Char", "valueList": ["FA"]}, {"_links": {"modelClassVariable": {"href": "/mdr/sdtm/1-8/classes/GeneralObservations/variables/USUBJID", "title": "Unique Subject Identifier", "type": "Class Variable"}, "parentDataset": {"href": "/mdr/sendig/ar-1-0/datasets/FA", "title": "Findings About Events or Interventions", "type": "SDTM Dataset"}, "parentProduct": {"href": "/mdr/sendig/ar-1-0", "title": "Standard for Exchange of Nonclinical Data Implementation Guide: Animal Rule Version 1.0 (Final)", "type": "Implementation Guide"}, "rootItem": {"href": "/mdr/root/sendig/datasets/FA/variables/USUBJID", "title": "Version-agnostic anchor resource for SENDIG variable FA.USUBJID", "type": "Root Data Element"}, "self": {"href": "/mdr/sendig/ar-1-0/datasets/FA/variables/USUBJID", "title": "Unique Subject Identifier", "type": "SDTM Dataset Variable"}}, "core": "Req", "description": "Identifier used to uniquely identify a subject across all studies for all applications or submissions involving the product.", "label": "Unique Subject Identifier", "name": "USUBJID", "ordinal": "3", "role": "Identifier", "simpleDatatype": "Char"}, {"_links": {"modelClassVariable": {"href": "/mdr/sdtm/1-8/classes/GeneralObservations/variables/--SEQ", "title": "Sequence Number", "type": "Class Variable"}, "parentDataset": {"href": "/mdr/sendig/ar-1-0/datasets/FA", "title": "Findings About Events or Interventions", "type": "SDTM Dataset"}, "parentProduct": {"href": "/mdr/sendig/ar-1-0", "title": "Standard for Exchange of Nonclinical Data Implementation Guide: Animal Rule Version 1.0 (Final)", "type": "Implementation Guide"}, "rootItem": {"href": "/mdr/root/sendig/datasets/FA/variables/FASEQ", "title": "Version-agnostic anchor resource for SENDIG variable FA.FASEQ", "type": "Root Data Element"}, "self": {"href": "/mdr/sendig/ar-1-0/datasets/FA/variables/FASEQ", "title": "Sequence Number", "type": "SDTM Dataset Variable"}}, "core": "Req", "description": "Sequence number given to ensure uniqueness of subject records within a domain. May be any valid number.", "label": "Sequence Number", "name": "FASEQ", "ordinal": "4", "role": "Identifier", "simpleDatatype": "Num"}, {"_links": {"modelClassVariable": {"href": "/mdr/sdtm/1-8/classes/GeneralObservations/variables/--GRPID", "title": "Group ID", "type": "Class Variable"}, "parentDataset": {"href": "/mdr/sendig/ar-1-0/datasets/FA", "title": "Findings About Events or Interventions", "type": "SDTM Dataset"}, "parentProduct": {"href": "/mdr/sendig/ar-1-0", "title": "Standard for Exchange of Nonclinical Data Implementation Guide: Animal Rule Version 1.0 (Final)", "type": "Implementation Guide"}, "rootItem": {"href": "/mdr/root/sendig/datasets/FA/variables/FAGRPID", "title": "Version-agnostic anchor resource for SENDIG variable FA.FAGRPID", "type": "Root Data Element"}, "self": {"href": "/mdr/sendig/ar-1-0/datasets/FA/variables/FAGRPID", "title": "Group ID", "type": "SDTM Dataset Variable"}}, "core": "Perm", "description": "Used to tie together a block of related records in a single domain for a subject.", "label": "Group ID", "name": "FAGRPID", "ordinal": "5", "role": "Identifier", "simpleDatatype": "Char"}, {"_links": {"modelClassVariable": {"href": "/mdr/sdtm/1-8/classes/GeneralObservations/variables/--SPID", "title": "Sponsor-Defined Identifier", "type": "Class Variable"}, "parentDataset": {"href": "/mdr/sendig/ar-1-0/datasets/FA", "title": "Findings About Events or Interventions", "type": "SDTM Dataset"}, "parentProduct": {"href": "/mdr/sendig/ar-1-0", "title": "Standard for Exchange of Nonclinical Data Implementation Guide: Animal Rule Version 1.0 (Final)", "type": "Implementation Guide"}, "rootItem": {"href": "/mdr/root/sendig/datasets/FA/variables/FASPID", "title": "Version-agnostic anchor resource for SENDIG variable FA.FASPID", "type": "Root Data Element"}, "self": {"href": "/mdr/sendig/ar-1-0/datasets/FA/variables/FASPID", "title": "Sponsor-Defined Identifier", "type": "SDTM Dataset Variable"}}, "core": "Perm", "description": "Sponsor-defined reference number.", "label": "Sponsor-Defined Identifier", "name": "FASPID", "ordinal": "6", "role": "Identifier", "simpleDatatype": "Char"}, {"_links": {"modelClassVariable": {"href": "/mdr/sdtm/1-8/classes/Findings/variables/--TESTCD", "title": "Short Name of Measurement, Test, or Exam", "type": "Class Variable"}, "parentDataset": {"href": "/mdr/sendig/ar-1-0/datasets/FA", "title": "Findings About Events or Interventions", "type": "SDTM Dataset"}, "parentProduct": {"href": "/mdr/sendig/ar-1-0", "title": "Standard for Exchange of Nonclinical Data Implementation Guide: Animal Rule Version 1.0 (Final)", "type": "Implementation Guide"}, "rootItem": {"href": "/mdr/root/sendig/datasets/FA/variables/FATESTCD", "title": "Version-agnostic anchor resource for SENDIG variable FA.FATESTCD", "type": "Root Data Element"}, "self": {"href": "/mdr/sendig/ar-1-0/datasets/FA/variables/FATESTCD", "title": "Findings About Test Short Name", "type": "SDTM Dataset Variable"}}, "core": "Req", "description": "Short name of the measurement, test, or examination described in FATEST. It can be used as a column name when converting a dataset from a vertical to a horizontal format. The value in FATESTCD cannot be longer than 8 characters, nor can it start with a number (e.g., \"1TEST\" is not valid). FATESTCD cannot contain characters other than letters, numbers, or underscores.", "label": "Findings About Test Short Name", "name": "FATESTCD", "ordinal": "7", "role": "Topic", "simpleDatatype": "Char"}, {"_links": {"modelClassVariable": {"href": "/mdr/sdtm/1-8/classes/Findings/variables/--TEST", "title": "Name of Measurement, Test, or Exam", "type": "Class Variable"}, "parentDataset": {"href": "/mdr/sendig/ar-1-0/datasets/FA", "title": "Findings About Events or Interventions", "type": "SDTM Dataset"}, "parentProduct": {"href": "/mdr/sendig/ar-1-0", "title": "Standard for Exchange of Nonclinical Data Implementation Guide: Animal Rule Version 1.0 (Final)", "type": "Implementation Guide"}, "rootItem": {"href": "/mdr/root/sendig/datasets/FA/variables/FATEST", "title": "Version-agnostic anchor resource for SENDIG variable FA.FATEST", "type": "Root Data Element"}, "self": {"href": "/mdr/sendig/ar-1-0/datasets/FA/variables/FATEST", "title": "Findings About Test Name", "type": "SDTM Dataset Variable"}}, "core": "Req", "description": "Verbatim name of the test or examination used to obtain the measurement or finding. The value in FATEST cannot be longer than 40 characters.", "label": "Findings About Test Name", "name": "FATEST", "ordinal": "8", "role": "Synonym Qualifier", "simpleDatatype": "Char"}, {"_links": {"modelClassVariable": {"href": "/mdr/sdtm/1-8/classes/FindingsAbout/variables/--OBJ", "title": "Object of the Observation", "type": "Class Variable"}, "parentDataset": {"href": "/mdr/sendig/ar-1-0/datasets/FA", "title": "Findings About Events or Interventions", "type": "SDTM Dataset"}, "parentProduct": {"href": "/mdr/sendig/ar-1-0", "title": "Standard for Exchange of Nonclinical Data Implementation Guide: Animal Rule Version 1.0 (Final)", "type": "Implementation Guide"}, "rootItem": {"href": "/mdr/root/sendig/datasets/FA/variables/FAOBJ", "title": "Version-agnostic anchor resource for SENDIG variable FA.FAOBJ", "type": "Root Data Element"}, "self": {"href": "/mdr/sendig/ar-1-0/datasets/FA/variables/FAOBJ", "title": "Object of the Observation", "type": "SDTM Dataset Variable"}}, "core": "Req", "description": "Used to describe the object or focal point of the findings observation that is represented by --TEST. Examples: the term (such as Acne) describing a clinical sign or symptom that is being measured by a Severity test, or an event such as \"VOMIT\", where the volume of vomit is being measured by a volume test.", "label": "Object of the Observation", "name": "FAOBJ", "ordinal": "9", "role": "Record Qualifier", "simpleDatatype": "Char"}, {"_links": {"modelClassVariable": {"href": "/mdr/sdtm/1-8/classes/Findings/variables/--CAT", "title": "Category", "type": "Class Variable"}, "parentDataset": {"href": "/mdr/sendig/ar-1-0/datasets/FA", "title": "Findings About Events or Interventions", "type": "SDTM Dataset"}, "parentProduct": {"href": "/mdr/sendig/ar-1-0", "title": "Standard for Exchange of Nonclinical Data Implementation Guide: Animal Rule Version 1.0 (Final)", "type": "Implementation Guide"}, "rootItem": {"href": "/mdr/root/sendig/datasets/FA/variables/FACAT", "title": "Version-agnostic anchor resource for SENDIG variable FA.FACAT", "type": "Root Data Element"}, "self": {"href": "/mdr/sendig/ar-1-0/datasets/FA/variables/FACAT", "title": "Category for Findings About", "type": "SDTM Dataset Variable"}}, "core": "Perm", "description": "Used to define a category of related records.", "label": "Category for Findings About", "name": "FACAT", "ordinal": "10", "role": "Grouping Qualifier", "simpleDatatype": "Char"}, {"_links": {"modelClassVariable": {"href": "/mdr/sdtm/1-8/classes/Findings/variables/--SCAT", "title": "Subcategory", "type": "Class Variable"}, "parentDataset": {"href": "/mdr/sendig/ar-1-0/datasets/FA", "title": "Findings About Events or Interventions", "type": "SDTM Dataset"}, "parentProduct": {"href": "/mdr/sendig/ar-1-0", "title": "Standard for Exchange of Nonclinical Data Implementation Guide: Animal Rule Version 1.0 (Final)", "type": "Implementation Guide"}, "rootItem": {"href": "/mdr/root/sendig/datasets/FA/variables/FASCAT", "title": "Version-agnostic anchor resource for SENDIG variable FA.FASCAT", "type": "Root Data Element"}, "self": {"href": "/mdr/sendig/ar-1-0/datasets/FA/variables/FASCAT", "title": "Subcategory for Findings About", "type": "SDTM Dataset Variable"}}, "core": "Perm", "description": "A further categorization of FACAT.", "label": "Subcategory for Findings About", "name": "FASCAT", "ordinal": "11", "role": "Grouping Qualifier", "simpleDatatype": "Char"}, {"_links": {"modelClassVariable": {"href": "/mdr/sdtm/1-8/classes/Findings/variables/--ORRES", "title": "Result or Finding in Original Units", "type": "Class Variable"}, "parentDataset": {"href": "/mdr/sendig/ar-1-0/datasets/FA", "title": "Findings About Events or Interventions", "type": "SDTM Dataset"}, "parentProduct": {"href": "/mdr/sendig/ar-1-0", "title": "Standard for Exchange of Nonclinical Data Implementation Guide: Animal Rule Version 1.0 (Final)", "type": "Implementation Guide"}, "rootItem": {"href": "/mdr/root/sendig/datasets/FA/variables/FAORRES", "title": "Version-agnostic anchor resource for SENDIG variable FA.FAORRES", "type": "Root Data Element"}, "self": {"href": "/mdr/sendig/ar-1-0/datasets/FA/variables/FAORRES", "title": "Result or Finding in Original Units", "type": "SDTM Dataset Variable"}}, "core": "Exp", "description": "Result of the test as originally received or collected.", "label": "Result or Finding in Original Units", "name": "FAORRES", "ordinal": "12", "role": "Result Qualifier", "simpleDatatype": "Char"}, {"_links": {"codelist": [{"href": "/mdr/root/ct/sendct/codelists/C71620", "title": "Version-agnostic anchor resource for codelist C71620", "type": "Root Value Domain"}], "modelClassVariable": {"href": "/mdr/sdtm/1-8/classes/Findings/variables/--ORRESU", "title": "Original Units", "type": "Class Variable"}, "parentDataset": {"href": "/mdr/sendig/ar-1-0/datasets/FA", "title": "Findings About Events or Interventions", "type": "SDTM Dataset"}, "parentProduct": {"href": "/mdr/sendig/ar-1-0", "title": "Standard for Exchange of Nonclinical Data Implementation Guide: Animal Rule Version 1.0 (Final)", "type": "Implementation Guide"}, "rootItem": {"href": "/mdr/root/sendig/datasets/FA/variables/FAORRESU", "title": "Version-agnostic anchor resource for SENDIG variable FA.FAORRESU", "type": "Root Data Element"}, "self": {"href": "/mdr/sendig/ar-1-0/datasets/FA/variables/FAORRESU", "title": "Original Units", "type": "SDTM Dataset Variable"}}, "core": "Perm", "description": "Original units in which the data were collected. The unit for FAORRES.", "label": "Original Units", "name": "FAORRESU", "ordinal": "13", "role": "Variable Qualifier", "simpleDatatype": "Char"}, {"_links": {"modelClassVariable": {"href": "/mdr/sdtm/1-8/classes/Findings/variables/--STRESC", "title": "Result or Finding in Standard Format", "type": "Class Variable"}, "parentDataset": {"href": "/mdr/sendig/ar-1-0/datasets/FA", "title": "Findings About Events or Interventions", "type": "SDTM Dataset"}, "parentProduct": {"href": "/mdr/sendig/ar-1-0", "title": "Standard for Exchange of Nonclinical Data Implementation Guide: Animal Rule Version 1.0 (Final)", "type": "Implementation Guide"}, "rootItem": {"href": "/mdr/root/sendig/datasets/FA/variables/FASTRESC", "title": "Version-agnostic anchor resource for SENDIG variable FA.FASTRESC", "type": "Root Data Element"}, "self": {"href": "/mdr/sendig/ar-1-0/datasets/FA/variables/FASTRESC", "title": "Character Result/Finding in Std Format", "type": "SDTM Dataset Variable"}}, "core": "Exp", "description": "Contains the result value for all findings, copied or derived from FAORRES in a standard format or standard units. FASTRESC should store all results or findings in character format; if results are numeric, they should also be stored in numeric format in FASTRESN.", "label": "Character Result/Finding in Std Format", "name": "FASTRESC", "ordinal": "14", "role": "Result Qualifier", "simpleDatatype": "Char"}, {"_links": {"modelClassVariable": {"href": "/mdr/sdtm/1-8/classes/Findings/variables/--STRESN", "title": "Numeric Result/Finding in Standard Units", "type": "Class Variable"}, "parentDataset": {"href": "/mdr/sendig/ar-1-0/datasets/FA", "title": "Findings About Events or Interventions", "type": "SDTM Dataset"}, "parentProduct": {"href": "/mdr/sendig/ar-1-0", "title": "Standard for Exchange of Nonclinical Data Implementation Guide: Animal Rule Version 1.0 (Final)", "type": "Implementation Guide"}, "rootItem": {"href": "/mdr/root/sendig/datasets/FA/variables/FASTRESN", "title": "Version-agnostic anchor resource for SENDIG variable FA.FASTRESN", "type": "Root Data Element"}, "self": {"href": "/mdr/sendig/ar-1-0/datasets/FA/variables/FASTRESN", "title": "Numeric Result/Finding in Standard Units", "type": "SDTM Dataset Variable"}}, "core": "Perm", "description": "Used for continuous or numeric results or findings in standard format; copied in numeric format from FASTRESC. FASTRESN should store all numeric test results or findings.", "label": "Numeric Result/Finding in Standard Units", "name": "FASTRESN", "ordinal": "15", "role": "Result Qualifier", "simpleDatatype": "Num"}, {"_links": {"codelist": [{"href": "/mdr/root/ct/sendct/codelists/C71620", "title": "Version-agnostic anchor resource for codelist C71620", "type": "Root Value Domain"}], "modelClassVariable": {"href": "/mdr/sdtm/1-8/classes/Findings/variables/--STRESU", "title": "Standard Units", "type": "Class Variable"}, "parentDataset": {"href": "/mdr/sendig/ar-1-0/datasets/FA", "title": "Findings About Events or Interventions", "type": "SDTM Dataset"}, "parentProduct": {"href": "/mdr/sendig/ar-1-0", "title": "Standard for Exchange of Nonclinical Data Implementation Guide: Animal Rule Version 1.0 (Final)", "type": "Implementation Guide"}, "rootItem": {"href": "/mdr/root/sendig/datasets/FA/variables/FASTRESU", "title": "Version-agnostic anchor resource for SENDIG variable FA.FASTRESU", "type": "Root Data Element"}, "self": {"href": "/mdr/sendig/ar-1-0/datasets/FA/variables/FASTRESU", "title": "Standard Units", "type": "SDTM Dataset Variable"}}, "core": "Perm", "description": "Standardized unit used for FASTRESC and FASTRESN.", "label": "Standard Units", "name": "FASTRESU", "ordinal": "16", "role": "Variable Qualifier", "simpleDatatype": "Char"}, {"_links": {"codelist": [{"href": "/mdr/root/ct/sendct/codelists/C66789", "title": "Version-agnostic anchor resource for codelist C66789", "type": "Root Value Domain"}], "modelClassVariable": {"href": "/mdr/sdtm/1-8/classes/Findings/variables/--STAT", "title": "Completion Status", "type": "Class Variable"}, "parentDataset": {"href": "/mdr/sendig/ar-1-0/datasets/FA", "title": "Findings About Events or Interventions", "type": "SDTM Dataset"}, "parentProduct": {"href": "/mdr/sendig/ar-1-0", "title": "Standard for Exchange of Nonclinical Data Implementation Guide: Animal Rule Version 1.0 (Final)", "type": "Implementation Guide"}, "rootItem": {"href": "/mdr/root/sendig/datasets/FA/variables/FASTAT", "title": "Version-agnostic anchor resource for SENDIG variable FA.FASTAT", "type": "Root Data Element"}, "self": {"href": "/mdr/sendig/ar-1-0/datasets/FA/variables/FASTAT", "title": "Completion Status", "type": "SDTM Dataset Variable"}}, "core": "Perm", "description": "Used to indicate that the measurement was not done. Should be null if a result exists in FAORRES.", "label": "Completion Status", "name": "FASTAT", "ordinal": "17", "role": "Record Qualifier", "simpleDatatype": "Char"}, {"_links": {"modelClassVariable": {"href": "/mdr/sdtm/1-8/classes/Findings/variables/--REASND", "title": "Reason Not Done", "type": "Class Variable"}, "parentDataset": {"href": "/mdr/sendig/ar-1-0/datasets/FA", "title": "Findings About Events or Interventions", "type": "SDTM Dataset"}, "parentProduct": {"href": "/mdr/sendig/ar-1-0", "title": "Standard for Exchange of Nonclinical Data Implementation Guide: Animal Rule Version 1.0 (Final)", "type": "Implementation Guide"}, "rootItem": {"href": "/mdr/root/sendig/datasets/FA/variables/FAREASND", "title": "Version-agnostic anchor resource for SENDIG variable FA.FAREASND", "type": "Root Data Element"}, "self": {"href": "/mdr/sendig/ar-1-0/datasets/FA/variables/FAREASND", "title": "Reason Not Performed", "type": "SDTM Dataset Variable"}}, "core": "Perm", "description": "Describes why a question was not answered. Used in conjunction with FASTAT when value is \"NOT DONE\".", "label": "Reason Not Performed", "name": "FAREASND", "ordinal": "18", "role": "Record Qualifier", "simpleDatatype": "Char"}, {"_links": {"codelist": [{"href": "/mdr/root/ct/sendct/codelists/C74456", "title": "Version-agnostic anchor resource for codelist C74456", "type": "Root Value Domain"}], "modelClassVariable": {"href": "/mdr/sdtm/1-8/classes/Findings/variables/--LOC", "title": "Location Used for the Measurement", "type": "Class Variable"}, "parentDataset": {"href": "/mdr/sendig/ar-1-0/datasets/FA", "title": "Findings About Events or Interventions", "type": "SDTM Dataset"}, "parentProduct": {"href": "/mdr/sendig/ar-1-0", "title": "Standard for Exchange of Nonclinical Data Implementation Guide: Animal Rule Version 1.0 (Final)", "type": "Implementation Guide"}, "rootItem": {"href": "/mdr/root/sendig/datasets/FA/variables/FALOC", "title": "Version-agnostic anchor resource for SENDIG variable FA.FALOC", "type": "Root Data Element"}, "self": {"href": "/mdr/sendig/ar-1-0/datasets/FA/variables/FALOC", "title": "Location of the Finding About", "type": "SDTM Dataset Variable"}}, "core": "Perm", "description": "Used to specify the location of the clinical evaluation. Example: \"EAR\".", "label": "Location of the Finding About", "name": "FALOC", "ordinal": "19", "role": "Record Qualifier", "simpleDatatype": "Char"}, {"_links": {"codelist": [{"href": "/mdr/root/ct/sendct/codelists/C99073", "title": "Version-agnostic anchor resource for codelist C99073", "type": "Root Value Domain"}], "modelClassVariable": {"href": "/mdr/sdtm/1-8/classes/Findings/variables/--LAT", "title": "Laterality", "type": "Class Variable"}, "parentDataset": {"href": "/mdr/sendig/ar-1-0/datasets/FA", "title": "Findings About Events or Interventions", "type": "SDTM Dataset"}, "parentProduct": {"href": "/mdr/sendig/ar-1-0", "title": "Standard for Exchange of Nonclinical Data Implementation Guide: Animal Rule Version 1.0 (Final)", "type": "Implementation Guide"}, "rootItem": {"href": "/mdr/root/sendig/datasets/FA/variables/FALAT", "title": "Version-agnostic anchor resource for SENDIG variable FA.FALAT", "type": "Root Data Element"}, "self": {"href": "/mdr/sendig/ar-1-0/datasets/FA/variables/FALAT", "title": "Laterality", "type": "SDTM Dataset Variable"}}, "core": "Perm", "description": "Qualifier for anatomical location or specimen further detailing laterality. Examples: \"RIGHT\", \"LEFT\", \"BILATERAL\".", "label": "Laterality", "name": "FALAT", "ordinal": "20", "role": "Variable Qualifier", "simpleDatatype": "Char"}, {"_links": {"codelist": [{"href": "/mdr/root/ct/sendct/codelists/C66742", "title": "Version-agnostic anchor resource for codelist C66742", "type": "Root Value Domain"}], "modelClassVariable": {"href": "/mdr/sdtm/1-8/classes/Findings/variables/--BLFL", "title": "Baseline Flag", "type": "Class Variable"}, "parentDataset": {"href": "/mdr/sendig/ar-1-0/datasets/FA", "title": "Findings About Events or Interventions", "type": "SDTM Dataset"}, "parentProduct": {"href": "/mdr/sendig/ar-1-0", "title": "Standard for Exchange of Nonclinical Data Implementation Guide: Animal Rule Version 1.0 (Final)", "type": "Implementation Guide"}, "rootItem": {"href": "/mdr/root/sendig/datasets/FA/variables/FABLFL", "title": "Version-agnostic anchor resource for SENDIG variable FA.FABLFL", "type": "Root Data Element"}, "self": {"href": "/mdr/sendig/ar-1-0/datasets/FA/variables/FABLFL", "title": "Baseline Flag", "type": "SDTM Dataset Variable"}}, "core": "Perm", "description": "Indicator used to identify a baseline value. The value should be \"Y\" or null. Note that FABLFL is retained for backward compatibility. The authoritative baseline flag for statistical analysis is in an ADaM dataset.", "label": "Baseline Flag", "name": "FABLFL", "ordinal": "21", "role": "Record Qualifier", "simpleDatatype": "Char"}, {"_links": {"modelClassVariable": {"href": "/mdr/sdtm/1-8/classes/Findings/variables/--EVAL", "title": "Evaluator", "type": "Class Variable"}, "parentDataset": {"href": "/mdr/sendig/ar-1-0/datasets/FA", "title": "Findings About Events or Interventions", "type": "SDTM Dataset"}, "parentProduct": {"href": "/mdr/sendig/ar-1-0", "title": "Standard for Exchange of Nonclinical Data Implementation Guide: Animal Rule Version 1.0 (Final)", "type": "Implementation Guide"}, "rootItem": {"href": "/mdr/root/sendig/datasets/FA/variables/FAEVAL", "title": "Version-agnostic anchor resource for SENDIG variable FA.FAEVAL", "type": "Root Data Element"}, "self": {"href": "/mdr/sendig/ar-1-0/datasets/FA/variables/FAEVAL", "title": "Evaluator", "type": "SDTM Dataset Variable"}}, "core": "Perm", "description": "Role of the person who provided the evaluation. Used only for results that are subjective (e.g., assigned by a person or a group). Should be null for records that contain collected or derived data. Examples: \"INVESTIGATOR\", \"ADJUDICATION COMMITTEE\", \"VENDOR\".", "label": "Evaluator", "name": "FAEVAL", "ordinal": "22", "role": "Record Qualifier", "simpleDatatype": "Char"}, {"_links": {"modelClassVariable": {"href": "/mdr/sdtm/1-8/classes/GeneralObservations/variables/--DTC", "title": "Date/Time of Collection", "type": "Class Variable"}, "parentDataset": {"href": "/mdr/sendig/ar-1-0/datasets/FA", "title": "Findings About Events or Interventions", "type": "SDTM Dataset"}, "parentProduct": {"href": "/mdr/sendig/ar-1-0", "title": "Standard for Exchange of Nonclinical Data Implementation Guide: Animal Rule Version 1.0 (Final)", "type": "Implementation Guide"}, "rootItem": {"href": "/mdr/root/sendig/datasets/FA/variables/FADTC", "title": "Version-agnostic anchor resource for SENDIG variable FA.FADTC", "type": "Root Data Element"}, "self": {"href": "/mdr/sendig/ar-1-0/datasets/FA/variables/FADTC", "title": "Date/Time of Collection", "type": "SDTM Dataset Variable"}}, "core": "Exp", "describedValueDomain": "ISO 8601", "description": "Collection date and time of findings assessment represented in ISO 8601 character format.", "label": "Date/Time of Collection", "name": "FADTC", "ordinal": "23", "role": "Timing", "simpleDatatype": "Char"}, {"_links": {"modelClassVariable": {"href": "/mdr/sdtm/1-8/classes/GeneralObservations/variables/--DY", "title": "Study Day of Visit/Collection/Exam", "type": "Class Variable"}, "parentDataset": {"href": "/mdr/sendig/ar-1-0/datasets/FA", "title": "Findings About Events or Interventions", "type": "SDTM Dataset"}, "parentProduct": {"href": "/mdr/sendig/ar-1-0", "title": "Standard for Exchange of Nonclinical Data Implementation Guide: Animal Rule Version 1.0 (Final)", "type": "Implementation Guide"}, "rootItem": {"href": "/mdr/root/sendig/datasets/FA/variables/FADY", "title": "Version-agnostic anchor resource for SENDIG variable FA.FADY", "type": "Root Data Element"}, "self": {"href": "/mdr/sendig/ar-1-0/datasets/FA/variables/FADY", "title": "Study Day of Collection", "type": "SDTM Dataset Variable"}}, "core": "Perm", "description": "Study day of collection, measured as integer days. \n Algorithm for calculations must be relative to the sponsor-defined RFSTDTC variable in Demographics. This formula should be consistent across the submission.", "label": "Study Day of Collection", "name": "FADY", "ordinal": "24", "role": "Timing", "simpleDatatype": "Num"}, {"_links": {"modelClassVariable": {"href": "/mdr/sdtm/1-8/classes/GeneralObservations/variables/--NOMDY", "title": "Nominal Study Day for Tabulations", "type": "Class Variable"}, "parentDataset": {"href": "/mdr/sendig/ar-1-0/datasets/FA", "title": "Findings About Events or Interventions", "type": "SDTM Dataset"}, "parentProduct": {"href": "/mdr/sendig/ar-1-0", "title": "Standard for Exchange of Nonclinical Data Implementation Guide: Animal Rule Version 1.0 (Final)", "type": "Implementation Guide"}, "rootItem": {"href": "/mdr/root/sendig/datasets/FA/variables/FANOMDY", "title": "Version-agnostic anchor resource for SENDIG variable FA.FANOMDY", "type": "Root Data Element"}, "self": {"href": "/mdr/sendig/ar-1-0/datasets/FA/variables/FANOMDY", "title": "Nominal Study Day for Tabulations", "type": "SDTM Dataset Variable"}}, "core": "Exp", "description": "Nominal study day used for grouping records for observations that may occur on different days into a single reported study day. Should be an integer.", "label": "Nominal Study Day for Tabulations", "name": "FANOMDY", "ordinal": "25", "role": "Timing", "simpleDatatype": "Num"}, {"_links": {"modelClassVariable": {"href": "/mdr/sdtm/1-8/classes/GeneralObservations/variables/--NOMLBL", "title": "Label for Nominal Study Day", "type": "Class Variable"}, "parentDataset": {"href": "/mdr/sendig/ar-1-0/datasets/FA", "title": "Findings About Events or Interventions", "type": "SDTM Dataset"}, "parentProduct": {"href": "/mdr/sendig/ar-1-0", "title": "Standard for Exchange of Nonclinical Data Implementation Guide: Animal Rule Version 1.0 (Final)", "type": "Implementation Guide"}, "rootItem": {"href": "/mdr/root/sendig/datasets/FA/variables/FANOMLBL", "title": "Version-agnostic anchor resource for SENDIG variable FA.FANOMLBL", "type": "Root Data Element"}, "self": {"href": "/mdr/sendig/ar-1-0/datasets/FA/variables/FANOMLBL", "title": "Label for Nominal Study Day", "type": "SDTM Dataset Variable"}}, "core": "Perm", "description": "A label for a given value of FANOMDY as presented in the study report. Examples: \"Week 4\", \"Day 28\".", "label": "Label for Nominal Study Day", "name": "FANOMLBL", "ordinal": "26", "role": "Timing", "simpleDatatype": "Char"}, {"_links": {"modelClassVariable": {"href": "/mdr/sdtm/1-8/classes/GeneralObservations/variables/--XDY", "title": "Day of Obs Relative to Exposure", "type": "Class Variable"}, "parentDataset": {"href": "/mdr/sendig/ar-1-0/datasets/FA", "title": "Findings About Events or Interventions", "type": "SDTM Dataset"}, "parentProduct": {"href": "/mdr/sendig/ar-1-0", "title": "Standard for Exchange of Nonclinical Data Implementation Guide: Animal Rule Version 1.0 (Final)", "type": "Implementation Guide"}, "rootItem": {"href": "/mdr/root/sendig/datasets/FA/variables/FAXDY", "title": "Version-agnostic anchor resource for SENDIG variable FA.FAXDY", "type": "Root Data Element"}, "self": {"href": "/mdr/sendig/ar-1-0/datasets/FA/variables/FAXDY", "title": "Day of Obs Relative to Exposure", "type": "SDTM Dataset Variable"}}, "core": "Perm", "description": "The actual study day of a finding about an intervention or event derived relative to the first exposure to any protocol-specified treatment. Derived relative to the RFXSTDTC in Demographics. Expressed in integer days relative to the RFXSTDTC in Demographics.", "label": "Day of Obs Relative to Exposure", "name": "FAXDY", "ordinal": "27", "role": "Timing", "simpleDatatype": "Num"}, {"_links": {"modelClassVariable": {"href": "/mdr/sdtm/1-8/classes/GeneralObservations/variables/--XSTDY", "title": "Start Day of Obs Relative to Exposure", "type": "Class Variable"}, "parentDataset": {"href": "/mdr/sendig/ar-1-0/datasets/FA", "title": "Findings About Events or Interventions", "type": "SDTM Dataset"}, "parentProduct": {"href": "/mdr/sendig/ar-1-0", "title": "Standard for Exchange of Nonclinical Data Implementation Guide: Animal Rule Version 1.0 (Final)", "type": "Implementation Guide"}, "rootItem": {"href": "/mdr/root/sendig/datasets/FA/variables/FAXSTDY", "title": "Version-agnostic anchor resource for SENDIG variable FA.FAXSTDY", "type": "Root Data Element"}, "self": {"href": "/mdr/sendig/ar-1-0/datasets/FA/variables/FAXSTDY", "title": "Start Day of Obs Relative to Exposure", "type": "SDTM Dataset Variable"}}, "core": "Perm", "description": "The actual study day of the start of a finding about an intervention or event, derived relative to the first exposure to any protocol-specified treatment. Derived relative to the RFXSTDTC in Demographics. Expressed in integer days relative to the RFXSTDTC in Demographics.", "label": "Start Day of Obs Relative to Exposure", "name": "FAXSTDY", "ordinal": "28", "role": "Timing", "simpleDatatype": "Num"}, {"_links": {"modelClassVariable": {"href": "/mdr/sdtm/1-8/classes/GeneralObservations/variables/--XENDY", "title": "End Day of Obs Relative to Exposure", "type": "Class Variable"}, "parentDataset": {"href": "/mdr/sendig/ar-1-0/datasets/FA", "title": "Findings About Events or Interventions", "type": "SDTM Dataset"}, "parentProduct": {"href": "/mdr/sendig/ar-1-0", "title": "Standard for Exchange of Nonclinical Data Implementation Guide: Animal Rule Version 1.0 (Final)", "type": "Implementation Guide"}, "rootItem": {"href": "/mdr/root/sendig/datasets/FA/variables/FAXENDY", "title": "Version-agnostic anchor resource for SENDIG variable FA.FAXENDY", "type": "Root Data Element"}, "self": {"href": "/mdr/sendig/ar-1-0/datasets/FA/variables/FAXENDY", "title": "End Day of Obs Relative to Exposure", "type": "SDTM Dataset Variable"}}, "core": "Perm", "description": "The actual study day of the end of a finding about an intervention or event derived relative to the first exposure to any protocol-specified treatment. Derived relative to the RFXSTDTC in Demographics. Expressed in integer days relative to the RFXSTDTC in Demographics.", "label": "End Day of Obs Relative to Exposure", "name": "FAXENDY", "ordinal": "29", "role": "Timing", "simpleDatatype": "Num"}, {"_links": {"modelClassVariable": {"href": "/mdr/sdtm/1-8/classes/GeneralObservations/variables/--CHDY", "title": "Day of Obs Rel to Challenge Agent", "type": "Class Variable"}, "parentDataset": {"href": "/mdr/sendig/ar-1-0/datasets/FA", "title": "Findings About Events or Interventions", "type": "SDTM Dataset"}, "parentProduct": {"href": "/mdr/sendig/ar-1-0", "title": "Standard for Exchange of Nonclinical Data Implementation Guide: Animal Rule Version 1.0 (Final)", "type": "Implementation Guide"}, "rootItem": {"href": "/mdr/root/sendig/datasets/FA/variables/FACHDY", "title": "Version-agnostic anchor resource for SENDIG variable FA.FACHDY", "type": "Root Data Element"}, "self": {"href": "/mdr/sendig/ar-1-0/datasets/FA/variables/FACHDY", "title": "Day of Obs Rel to Challenge Agent", "type": "SDTM Dataset Variable"}}, "core": "Perm", "description": "The actual study day of a finding about an intervention or event derived relative to the first exposure to the challenge agent that induces the disease or condition that the investigational treatment is intended to cure, mitigate, treat, or prevent. Derived relative to the RFCSTDTC in Demographics. Expressed in integer days relative to the RFCSTDTC in Demographics. Not to be used with human clinical trials.", "label": "Day of Obs Rel to Challenge Agent", "name": "FACHDY", "ordinal": "30", "role": "Timing", "simpleDatatype": "Num"}, {"_links": {"modelClassVariable": {"href": "/mdr/sdtm/1-8/classes/GeneralObservations/variables/--CHSTDY", "title": "Start Day of Obs Rel to Challenge Agent", "type": "Class Variable"}, "parentDataset": {"href": "/mdr/sendig/ar-1-0/datasets/FA", "title": "Findings About Events or Interventions", "type": "SDTM Dataset"}, "parentProduct": {"href": "/mdr/sendig/ar-1-0", "title": "Standard for Exchange of Nonclinical Data Implementation Guide: Animal Rule Version 1.0 (Final)", "type": "Implementation Guide"}, "rootItem": {"href": "/mdr/root/sendig/datasets/FA/variables/FACHSTDY", "title": "Version-agnostic anchor resource for SENDIG variable FA.FACHSTDY", "type": "Root Data Element"}, "self": {"href": "/mdr/sendig/ar-1-0/datasets/FA/variables/FACHSTDY", "title": "Start Day of Obs Rel to Challenge Agent", "type": "SDTM Dataset Variable"}}, "core": "Perm", "description": "The actual study day of the start of a finding about an intervention or event derived relative to the first exposure to the challenge agent that induces the disease or condition that the investigational treatment is intended to cure, mitigate, treat, or prevent. Derived relative to the RFCSTDTC in Demographics. Expressed in integer days relative to the RFCSTDTC in Demographics. Not to be used with human clinical trials.", "label": "Start Day of Obs Rel to Challenge Agent", "name": "FACHSTDY", "ordinal": "31", "role": "Timing", "simpleDatatype": "Num"}, {"_links": {"modelClassVariable": {"href": "/mdr/sdtm/1-8/classes/GeneralObservations/variables/--CHENDY", "title": "End Day of Obs Rel to Challenge Agent", "type": "Class Variable"}, "parentDataset": {"href": "/mdr/sendig/ar-1-0/datasets/FA", "title": "Findings About Events or Interventions", "type": "SDTM Dataset"}, "parentProduct": {"href": "/mdr/sendig/ar-1-0", "title": "Standard for Exchange of Nonclinical Data Implementation Guide: Animal Rule Version 1.0 (Final)", "type": "Implementation Guide"}, "rootItem": {"href": "/mdr/root/sendig/datasets/FA/variables/FACHENDY", "title": "Version-agnostic anchor resource for SENDIG variable FA.FACHENDY", "type": "Root Data Element"}, "self": {"href": "/mdr/sendig/ar-1-0/datasets/FA/variables/FACHENDY", "title": "End Day of Obs Rel to Challenge Agent", "type": "SDTM Dataset Variable"}}, "core": "Perm", "description": "The actual study day of the end of a finding about an intervention or event derived relative to the first exposure to the challenge agent that induces the disease or condition that the investigational treatment is intended to cure, mitigate, treat, or prevent. Derived relative to the RFCSTDTC in Demographics. Expressed in integer days relative to the RFCSTDTC in Demographics. Not to be used with human clinical trials.", "label": "End Day of Obs Rel to Challenge Agent", "name": "FACHENDY", "ordinal": "32", "role": "Timing", "simpleDatatype": "Num"}], "label": "Findings About Events or Interventions", "name": "FA", "ordinal": "7"}
