{"_links": {"parentClass": {"href": "/mdr/sendig/ar-1-0/classes/Findings", "title": "Findings Observation Class", "type": "Class"}, "parentProduct": {"href": "/mdr/sendig/ar-1-0", "title": "Standard for Exchange of Nonclinical Data Implementation Guide: Animal Rule Version 1.0 (Final)", "type": "Implementation Guide"}, "self": {"href": "/mdr/sendig/ar-1-0/datasets/MB", "title": "Microbiology Specimen", "type": "SDTM Dataset"}}, "datasetStructure": "One record per microbiology specimen finding per time point per visit per subject", "datasetVariables": [{"_links": {"modelClassVariable": {"href": "/mdr/sdtm/1-8/classes/GeneralObservations/variables/STUDYID", "title": "Study Identifier", "type": "Class Variable"}, "parentDataset": {"href": "/mdr/sendig/ar-1-0/datasets/MB", "title": "Microbiology Specimen", "type": "SDTM Dataset"}, "parentProduct": {"href": "/mdr/sendig/ar-1-0", "title": "Standard for Exchange of Nonclinical Data Implementation Guide: Animal Rule Version 1.0 (Final)", "type": "Implementation Guide"}, "rootItem": {"href": "/mdr/root/sendig/datasets/MB/variables/STUDYID", "title": "Version-agnostic anchor resource for SENDIG variable MB.STUDYID", "type": "Root Data Element"}, "self": {"href": "/mdr/sendig/ar-1-0/datasets/MB/variables/STUDYID", "title": "Study Identifier", "type": "SDTM Dataset Variable"}}, "core": "Req", "description": "Unique identifier for a study.", "label": "Study Identifier", "name": "STUDYID", "ordinal": "1", "role": "Identifier", "simpleDatatype": "Char"}, {"_links": {"modelClassVariable": {"href": "/mdr/sdtm/1-8/classes/GeneralObservations/variables/DOMAIN", "title": "Domain Abbreviation", "type": "Class Variable"}, "parentDataset": {"href": "/mdr/sendig/ar-1-0/datasets/MB", "title": "Microbiology Specimen", "type": "SDTM Dataset"}, "parentProduct": {"href": "/mdr/sendig/ar-1-0", "title": "Standard for Exchange of Nonclinical Data Implementation Guide: Animal Rule Version 1.0 (Final)", "type": "Implementation Guide"}, "rootItem": {"href": "/mdr/root/sendig/datasets/MB/variables/DOMAIN", "title": "Version-agnostic anchor resource for SENDIG variable MB.DOMAIN", "type": "Root Data Element"}, "self": {"href": "/mdr/sendig/ar-1-0/datasets/MB/variables/DOMAIN", "title": "Domain Abbreviation", "type": "SDTM Dataset Variable"}}, "core": "Req", "description": "Two-character abbreviation for the domain.", "label": "Domain Abbreviation", "name": "DOMAIN", "ordinal": "2", "role": "Identifier", "simpleDatatype": "Char", "valueList": ["MB"]}, {"_links": {"modelClassVariable": {"href": "/mdr/sdtm/1-8/classes/GeneralObservations/variables/USUBJID", "title": "Unique Subject Identifier", "type": "Class Variable"}, "parentDataset": {"href": "/mdr/sendig/ar-1-0/datasets/MB", "title": "Microbiology Specimen", "type": "SDTM Dataset"}, "parentProduct": {"href": "/mdr/sendig/ar-1-0", "title": "Standard for Exchange of Nonclinical Data Implementation Guide: Animal Rule Version 1.0 (Final)", "type": "Implementation Guide"}, "rootItem": {"href": "/mdr/root/sendig/datasets/MB/variables/USUBJID", "title": "Version-agnostic anchor resource for SENDIG variable MB.USUBJID", "type": "Root Data Element"}, "self": {"href": "/mdr/sendig/ar-1-0/datasets/MB/variables/USUBJID", "title": "Unique Subject Identifier", "type": "SDTM Dataset Variable"}}, "core": "Req", "description": "Identifier used to uniquely identify a subject across all studies for all applications or submissions involving the product.", "label": "Unique Subject Identifier", "name": "USUBJID", "ordinal": "3", "role": "Identifier", "simpleDatatype": "Char"}, {"_links": {"modelClassVariable": {"href": "/mdr/sdtm/1-8/classes/GeneralObservations/variables/FOCID", "title": "Focus of Study-Specific Interest", "type": "Class Variable"}, "parentDataset": {"href": "/mdr/sendig/ar-1-0/datasets/MB", "title": "Microbiology Specimen", "type": "SDTM Dataset"}, "parentProduct": {"href": "/mdr/sendig/ar-1-0", "title": "Standard for Exchange of Nonclinical Data Implementation Guide: Animal Rule Version 1.0 (Final)", "type": "Implementation Guide"}, "rootItem": {"href": "/mdr/root/sendig/datasets/MB/variables/FOCID", "title": "Version-agnostic anchor resource for SENDIG variable MB.FOCID", "type": "Root Data Element"}, "self": {"href": "/mdr/sendig/ar-1-0/datasets/MB/variables/FOCID", "title": "Focus of Study-Specific Interest", "type": "SDTM Dataset Variable"}}, "core": "Perm", "description": "Identification of a focus of study-specific interest on or within a subject or specimen as called out in the protocol for which a measurement, test, or examination was performed. The value in this variable should have inherent semantic meaning.", "label": "Focus of Study-Specific Interest", "name": "FOCID", "ordinal": "4", "role": "Identifier", "simpleDatatype": "Char"}, {"_links": {"modelClassVariable": {"href": "/mdr/sdtm/1-8/classes/GeneralObservations/variables/--SEQ", "title": "Sequence Number", "type": "Class Variable"}, "parentDataset": {"href": "/mdr/sendig/ar-1-0/datasets/MB", "title": "Microbiology Specimen", "type": "SDTM Dataset"}, "parentProduct": {"href": "/mdr/sendig/ar-1-0", "title": "Standard for Exchange of Nonclinical Data Implementation Guide: Animal Rule Version 1.0 (Final)", "type": "Implementation Guide"}, "rootItem": {"href": "/mdr/root/sendig/datasets/MB/variables/MBSEQ", "title": "Version-agnostic anchor resource for SENDIG variable MB.MBSEQ", "type": "Root Data Element"}, "self": {"href": "/mdr/sendig/ar-1-0/datasets/MB/variables/MBSEQ", "title": "Sequence Number", "type": "SDTM Dataset Variable"}}, "core": "Req", "description": "Sequence number to ensure uniqueness of records within a dataset for a subject. May be any valid number.", "label": "Sequence Number", "name": "MBSEQ", "ordinal": "5", "role": "Identifier", "simpleDatatype": "Num"}, {"_links": {"modelClassVariable": {"href": "/mdr/sdtm/1-8/classes/GeneralObservations/variables/--GRPID", "title": "Group ID", "type": "Class Variable"}, "parentDataset": {"href": "/mdr/sendig/ar-1-0/datasets/MB", "title": "Microbiology Specimen", "type": "SDTM Dataset"}, "parentProduct": {"href": "/mdr/sendig/ar-1-0", "title": "Standard for Exchange of Nonclinical Data Implementation Guide: Animal Rule Version 1.0 (Final)", "type": "Implementation Guide"}, "rootItem": {"href": "/mdr/root/sendig/datasets/MB/variables/MBGRPID", "title": "Version-agnostic anchor resource for SENDIG variable MB.MBGRPID", "type": "Root Data Element"}, "self": {"href": "/mdr/sendig/ar-1-0/datasets/MB/variables/MBGRPID", "title": "Group ID", "type": "SDTM Dataset Variable"}}, "core": "Perm", "description": "Optional group identifier, used to link together a block of related records within a subject in a domain.", "label": "Group ID", "name": "MBGRPID", "ordinal": "6", "role": "Identifier", "simpleDatatype": "Char"}, {"_links": {"modelClassVariable": {"href": "/mdr/sdtm/1-8/classes/GeneralObservations/variables/--REFID", "title": "Reference ID", "type": "Class Variable"}, "parentDataset": {"href": "/mdr/sendig/ar-1-0/datasets/MB", "title": "Microbiology Specimen", "type": "SDTM Dataset"}, "parentProduct": {"href": "/mdr/sendig/ar-1-0", "title": "Standard for Exchange of Nonclinical Data Implementation Guide: Animal Rule Version 1.0 (Final)", "type": "Implementation Guide"}, "rootItem": {"href": "/mdr/root/sendig/datasets/MB/variables/MBREFID", "title": "Version-agnostic anchor resource for SENDIG variable MB.MBREFID", "type": "Root Data Element"}, "self": {"href": "/mdr/sendig/ar-1-0/datasets/MB/variables/MBREFID", "title": "Reference ID", "type": "SDTM Dataset Variable"}}, "core": "Perm", "description": "Internal or external specimen identifier (e.g., sample ID for a subject sample from which a microbial culture was generated).", "label": "Reference ID", "name": "MBREFID", "ordinal": "7", "role": "Identifier", "simpleDatatype": "Char"}, {"_links": {"modelClassVariable": {"href": "/mdr/sdtm/1-8/classes/GeneralObservations/variables/--SPID", "title": "Sponsor-Defined Identifier", "type": "Class Variable"}, "parentDataset": {"href": "/mdr/sendig/ar-1-0/datasets/MB", "title": "Microbiology Specimen", "type": "SDTM Dataset"}, "parentProduct": {"href": "/mdr/sendig/ar-1-0", "title": "Standard for Exchange of Nonclinical Data Implementation Guide: Animal Rule Version 1.0 (Final)", "type": "Implementation Guide"}, "rootItem": {"href": "/mdr/root/sendig/datasets/MB/variables/MBSPID", "title": "Version-agnostic anchor resource for SENDIG variable MB.MBSPID", "type": "Root Data Element"}, "self": {"href": "/mdr/sendig/ar-1-0/datasets/MB/variables/MBSPID", "title": "Sponsor-Defined Identifier", "type": "SDTM Dataset Variable"}}, "core": "Perm", "description": "Sponsor-defined reference number. Perhaps preprinted on the CRF as an explicit line identifier or defined in the sponsor's operational database.", "label": "Sponsor-Defined Identifier", "name": "MBSPID", "ordinal": "8", "role": "Identifier", "simpleDatatype": "Char"}, {"_links": {"modelClassVariable": {"href": "/mdr/sdtm/1-8/classes/GeneralObservations/variables/--LNKID", "title": "Link ID", "type": "Class Variable"}, "parentDataset": {"href": "/mdr/sendig/ar-1-0/datasets/MB", "title": "Microbiology Specimen", "type": "SDTM Dataset"}, "parentProduct": {"href": "/mdr/sendig/ar-1-0", "title": "Standard for Exchange of Nonclinical Data Implementation Guide: Animal Rule Version 1.0 (Final)", "type": "Implementation Guide"}, "rootItem": {"href": "/mdr/root/sendig/datasets/MB/variables/MBLNKID", "title": "Version-agnostic anchor resource for SENDIG variable MB.MBLNKID", "type": "Root Data Element"}, "self": {"href": "/mdr/sendig/ar-1-0/datasets/MB/variables/MBLNKID", "title": "Link ID", "type": "SDTM Dataset Variable"}}, "core": "Perm", "description": "Identifier used to link related records across domains. This may be a one-to-one or a one-to-many relationship.", "label": "Link ID", "name": "MBLNKID", "ordinal": "9", "role": "Identifier", "simpleDatatype": "Char"}, {"_links": {"modelClassVariable": {"href": "/mdr/sdtm/1-8/classes/GeneralObservations/variables/--LNKGRP", "title": "Link Group ID", "type": "Class Variable"}, "parentDataset": {"href": "/mdr/sendig/ar-1-0/datasets/MB", "title": "Microbiology Specimen", "type": "SDTM Dataset"}, "parentProduct": {"href": "/mdr/sendig/ar-1-0", "title": "Standard for Exchange of Nonclinical Data Implementation Guide: Animal Rule Version 1.0 (Final)", "type": "Implementation Guide"}, "rootItem": {"href": "/mdr/root/sendig/datasets/MB/variables/MBLNKGRP", "title": "Version-agnostic anchor resource for SENDIG variable MB.MBLNKGRP", "type": "Root Data Element"}, "self": {"href": "/mdr/sendig/ar-1-0/datasets/MB/variables/MBLNKGRP", "title": "Link Group ID", "type": "SDTM Dataset Variable"}}, "core": "Perm", "description": "Identifier used to link related records across domains. This will usually be a many-to-one relationship.", "label": "Link Group ID", "name": "MBLNKGRP", "ordinal": "10", "role": "Identifier", "simpleDatatype": "Char"}, {"_links": {"modelClassVariable": {"href": "/mdr/sdtm/1-8/classes/Findings/variables/--TESTCD", "title": "Short Name of Measurement, Test, or Exam", "type": "Class Variable"}, "parentDataset": {"href": "/mdr/sendig/ar-1-0/datasets/MB", "title": "Microbiology Specimen", "type": "SDTM Dataset"}, "parentProduct": {"href": "/mdr/sendig/ar-1-0", "title": "Standard for Exchange of Nonclinical Data Implementation Guide: Animal Rule Version 1.0 (Final)", "type": "Implementation Guide"}, "rootItem": {"href": "/mdr/root/sendig/datasets/MB/variables/MBTESTCD", "title": "Version-agnostic anchor resource for SENDIG variable MB.MBTESTCD", "type": "Root Data Element"}, "self": {"href": "/mdr/sendig/ar-1-0/datasets/MB/variables/MBTESTCD", "title": "Microbiology Test or Finding Short Name", "type": "SDTM Dataset Variable"}}, "core": "Req", "description": "Short name of the measurement, test, or finding described in MBTEST. It can be used as a column name when converting a dataset from a vertical to a horizontal format. The value in MBTESTCD cannot be longer than 8 characters, nor can it start with a number (e.g., \"1TEST\" is not valid). MBTESTCD cannot contain characters other than letters, numbers, or underscores. Examples: \"MCORGIDN\" for Microbial Organism Identification, \"GMNCOC\" for Gram Negative Cocci.", "label": "Microbiology Test or Finding Short Name", "name": "MBTESTCD", "ordinal": "11", "role": "Topic", "simpleDatatype": "Char"}, {"_links": {"modelClassVariable": {"href": "/mdr/sdtm/1-8/classes/Findings/variables/--TEST", "title": "Name of Measurement, Test, or Exam", "type": "Class Variable"}, "parentDataset": {"href": "/mdr/sendig/ar-1-0/datasets/MB", "title": "Microbiology Specimen", "type": "SDTM Dataset"}, "parentProduct": {"href": "/mdr/sendig/ar-1-0", "title": "Standard for Exchange of Nonclinical Data Implementation Guide: Animal Rule Version 1.0 (Final)", "type": "Implementation Guide"}, "rootItem": {"href": "/mdr/root/sendig/datasets/MB/variables/MBTEST", "title": "Version-agnostic anchor resource for SENDIG variable MB.MBTEST", "type": "Root Data Element"}, "self": {"href": "/mdr/sendig/ar-1-0/datasets/MB/variables/MBTEST", "title": "Microbiology Test or Finding Name", "type": "SDTM Dataset Variable"}}, "core": "Req", "description": "Verbatim name of the test or examination used to obtain the measurement or finding. The value in MBTEST cannot be longer than 40 characters. Examples: \"Microbial Organism Identification\", \"Gram Negative Cocci\", \"HIV-1 RNA\".", "label": "Microbiology Test or Finding Name", "name": "MBTEST", "ordinal": "12", "role": "Synonym Qualifier", "simpleDatatype": "Char"}, {"_links": {"modelClassVariable": {"href": "/mdr/sdtm/1-8/classes/Findings/variables/--TSTDTL", "title": "Measurement, Test, or Examination Detail", "type": "Class Variable"}, "parentDataset": {"href": "/mdr/sendig/ar-1-0/datasets/MB", "title": "Microbiology Specimen", "type": "SDTM Dataset"}, "parentProduct": {"href": "/mdr/sendig/ar-1-0", "title": "Standard for Exchange of Nonclinical Data Implementation Guide: Animal Rule Version 1.0 (Final)", "type": "Implementation Guide"}, "rootItem": {"href": "/mdr/root/sendig/datasets/MB/variables/MBTSTDTL", "title": "Version-agnostic anchor resource for SENDIG variable MB.MBTSTDTL", "type": "Root Data Element"}, "self": {"href": "/mdr/sendig/ar-1-0/datasets/MB/variables/MBTSTDTL", "title": "Measurement, Test or Examination Detail", "type": "SDTM Dataset Variable"}}, "core": "Perm", "description": "Further description of MBTESTCD and MBTEST. Examples: \"VIRAL LOAD\" (when MBTESTCD represents viral genetic material, such as \"HCRNA\"), \"QUANTIFICATION\" (when MBTESTCD represents any organism being quantified).", "label": "Measurement, Test or Examination Detail", "name": "MBTSTDTL", "ordinal": "13", "role": "Variable Qualifier", "simpleDatatype": "Char"}, {"_links": {"modelClassVariable": {"href": "/mdr/sdtm/1-8/classes/Findings/variables/--CAT", "title": "Category", "type": "Class Variable"}, "parentDataset": {"href": "/mdr/sendig/ar-1-0/datasets/MB", "title": "Microbiology Specimen", "type": "SDTM Dataset"}, "parentProduct": {"href": "/mdr/sendig/ar-1-0", "title": "Standard for Exchange of Nonclinical Data Implementation Guide: Animal Rule Version 1.0 (Final)", "type": "Implementation Guide"}, "rootItem": {"href": "/mdr/root/sendig/datasets/MB/variables/MBCAT", "title": "Version-agnostic anchor resource for SENDIG variable MB.MBCAT", "type": "Root Data Element"}, "self": {"href": "/mdr/sendig/ar-1-0/datasets/MB/variables/MBCAT", "title": "Category", "type": "SDTM Dataset Variable"}}, "core": "Perm", "description": "Used to define a category of related records.", "label": "Category", "name": "MBCAT", "ordinal": "14", "role": "Grouping Qualifier", "simpleDatatype": "Char"}, {"_links": {"modelClassVariable": {"href": "/mdr/sdtm/1-8/classes/Findings/variables/--SCAT", "title": "Subcategory", "type": "Class Variable"}, "parentDataset": {"href": "/mdr/sendig/ar-1-0/datasets/MB", "title": "Microbiology Specimen", "type": "SDTM Dataset"}, "parentProduct": {"href": "/mdr/sendig/ar-1-0", "title": "Standard for Exchange of Nonclinical Data Implementation Guide: Animal Rule Version 1.0 (Final)", "type": "Implementation Guide"}, "rootItem": {"href": "/mdr/root/sendig/datasets/MB/variables/MBSCAT", "title": "Version-agnostic anchor resource for SENDIG variable MB.MBSCAT", "type": "Root Data Element"}, "self": {"href": "/mdr/sendig/ar-1-0/datasets/MB/variables/MBSCAT", "title": "Subcategory", "type": "SDTM Dataset Variable"}}, "core": "Perm", "description": "Used to define a further categorization of MBCAT values.", "label": "Subcategory", "name": "MBSCAT", "ordinal": "15", "role": "Grouping Qualifier", "simpleDatatype": "Char"}, {"_links": {"modelClassVariable": {"href": "/mdr/sdtm/1-8/classes/Findings/variables/--ORRES", "title": "Result or Finding in Original Units", "type": "Class Variable"}, "parentDataset": {"href": "/mdr/sendig/ar-1-0/datasets/MB", "title": "Microbiology Specimen", "type": "SDTM Dataset"}, "parentProduct": {"href": "/mdr/sendig/ar-1-0", "title": "Standard for Exchange of Nonclinical Data Implementation Guide: Animal Rule Version 1.0 (Final)", "type": "Implementation Guide"}, "rootItem": {"href": "/mdr/root/sendig/datasets/MB/variables/MBORRES", "title": "Version-agnostic anchor resource for SENDIG variable MB.MBORRES", "type": "Root Data Element"}, "self": {"href": "/mdr/sendig/ar-1-0/datasets/MB/variables/MBORRES", "title": "Result or Finding in Original Units", "type": "SDTM Dataset Variable"}}, "core": "Exp", "description": "Result of the Microbiology measurement or finding as originally received or collected. Examples for \"GRAM STAIN\" findings: \"+3 MODERATE\", \"+2 FEW\", \"<10\". Examples for \"CULTURE PLATE\" findings: \"KLEBSIELLA PNEUMONIAE\", \"STREPTOCOCCUS PNEUMONIAE\".", "label": "Result or Finding in Original Units", "name": "MBORRES", "ordinal": "16", "role": "Result Qualifier", "simpleDatatype": "Char"}, {"_links": {"codelist": [{"href": "/mdr/root/ct/sendct/codelists/C71620", "title": "Version-agnostic anchor resource for codelist C71620", "type": "Root Value Domain"}], "modelClassVariable": {"href": "/mdr/sdtm/1-8/classes/Findings/variables/--ORRESU", "title": "Original Units", "type": "Class Variable"}, "parentDataset": {"href": "/mdr/sendig/ar-1-0/datasets/MB", "title": "Microbiology Specimen", "type": "SDTM Dataset"}, "parentProduct": {"href": "/mdr/sendig/ar-1-0", "title": "Standard for Exchange of Nonclinical Data Implementation Guide: Animal Rule Version 1.0 (Final)", "type": "Implementation Guide"}, "rootItem": {"href": "/mdr/root/sendig/datasets/MB/variables/MBORRESU", "title": "Version-agnostic anchor resource for SENDIG variable MB.MBORRESU", "type": "Root Data Element"}, "self": {"href": "/mdr/sendig/ar-1-0/datasets/MB/variables/MBORRESU", "title": "Original Units", "type": "SDTM Dataset Variable"}}, "core": "Perm", "description": "Original unit for MBORRES. Example: \"mg/mL\".", "label": "Original Units", "name": "MBORRESU", "ordinal": "17", "role": "Variable Qualifier", "simpleDatatype": "Char"}, {"_links": {"modelClassVariable": {"href": "/mdr/sdtm/1-8/classes/Findings/variables/--STRESC", "title": "Result or Finding in Standard Format", "type": "Class Variable"}, "parentDataset": {"href": "/mdr/sendig/ar-1-0/datasets/MB", "title": "Microbiology Specimen", "type": "SDTM Dataset"}, "parentProduct": {"href": "/mdr/sendig/ar-1-0", "title": "Standard for Exchange of Nonclinical Data Implementation Guide: Animal Rule Version 1.0 (Final)", "type": "Implementation Guide"}, "rootItem": {"href": "/mdr/root/sendig/datasets/MB/variables/MBSTRESC", "title": "Version-agnostic anchor resource for SENDIG variable MB.MBSTRESC", "type": "Root Data Element"}, "self": {"href": "/mdr/sendig/ar-1-0/datasets/MB/variables/MBSTRESC", "title": "Result or Finding in Standard Format", "type": "SDTM Dataset Variable"}}, "core": "Exp", "description": "Contains the result value for all findings; copied or derived from MBORRES in a standard format or standard units. MBSTRESC should store all results or findings in character format; if results are numeric, they should also be stored in numeric format in MBSTRESN. For example, if a test has results \"+3 MODERATE\", \"MOD\", and \"MODERATE\" in MBORRES and these results effectively have the same meaning, they could be represented in standard format in MBSTRESC as \"MODERATE\".", "label": "Result or Finding in Standard Format", "name": "MBSTRESC", "ordinal": "18", "role": "Result Qualifier", "simpleDatatype": "Char"}, {"_links": {"modelClassVariable": {"href": "/mdr/sdtm/1-8/classes/Findings/variables/--STRESN", "title": "Numeric Result/Finding in Standard Units", "type": "Class Variable"}, "parentDataset": {"href": "/mdr/sendig/ar-1-0/datasets/MB", "title": "Microbiology Specimen", "type": "SDTM Dataset"}, "parentProduct": {"href": "/mdr/sendig/ar-1-0", "title": "Standard for Exchange of Nonclinical Data Implementation Guide: Animal Rule Version 1.0 (Final)", "type": "Implementation Guide"}, "rootItem": {"href": "/mdr/root/sendig/datasets/MB/variables/MBSTRESN", "title": "Version-agnostic anchor resource for SENDIG variable MB.MBSTRESN", "type": "Root Data Element"}, "self": {"href": "/mdr/sendig/ar-1-0/datasets/MB/variables/MBSTRESN", "title": "Numeric Result/Finding in Standard Units", "type": "SDTM Dataset Variable"}}, "core": "Perm", "description": "Used for continuous or numeric results or findings in standard format; copied in numeric format from MBSTRESC. MBSTRESN should store all numeric test results or findings.", "label": "Numeric Result/Finding in Standard Units", "name": "MBSTRESN", "ordinal": "19", "role": "Result Qualifier", "simpleDatatype": "Num"}, {"_links": {"codelist": [{"href": "/mdr/root/ct/sendct/codelists/C71620", "title": "Version-agnostic anchor resource for codelist C71620", "type": "Root Value Domain"}], "modelClassVariable": {"href": "/mdr/sdtm/1-8/classes/Findings/variables/--STRESU", "title": "Standard Units", "type": "Class Variable"}, "parentDataset": {"href": "/mdr/sendig/ar-1-0/datasets/MB", "title": "Microbiology Specimen", "type": "SDTM Dataset"}, "parentProduct": {"href": "/mdr/sendig/ar-1-0", "title": "Standard for Exchange of Nonclinical Data Implementation Guide: Animal Rule Version 1.0 (Final)", "type": "Implementation Guide"}, "rootItem": {"href": "/mdr/root/sendig/datasets/MB/variables/MBSTRESU", "title": "Version-agnostic anchor resource for SENDIG variable MB.MBSTRESU", "type": "Root Data Element"}, "self": {"href": "/mdr/sendig/ar-1-0/datasets/MB/variables/MBSTRESU", "title": "Standard Units", "type": "SDTM Dataset Variable"}}, "core": "Perm", "description": "Standardized units used for MBSTRESC and MBSTRESN.", "label": "Standard Units", "name": "MBSTRESU", "ordinal": "20", "role": "Variable Qualifier", "simpleDatatype": "Char"}, {"_links": {"modelClassVariable": {"href": "/mdr/sdtm/1-8/classes/Findings/variables/--RESCAT", "title": "Result Category", "type": "Class Variable"}, "parentDataset": {"href": "/mdr/sendig/ar-1-0/datasets/MB", "title": "Microbiology Specimen", "type": "SDTM Dataset"}, "parentProduct": {"href": "/mdr/sendig/ar-1-0", "title": "Standard for Exchange of Nonclinical Data Implementation Guide: Animal Rule Version 1.0 (Final)", "type": "Implementation Guide"}, "rootItem": {"href": "/mdr/root/sendig/datasets/MB/variables/MBRESCAT", "title": "Version-agnostic anchor resource for SENDIG variable MB.MBRESCAT", "type": "Root Data Element"}, "self": {"href": "/mdr/sendig/ar-1-0/datasets/MB/variables/MBRESCAT", "title": "Result Category", "type": "SDTM Dataset Variable"}}, "core": "Perm", "description": "Used to categorize the result of a finding in a standard format.", "label": "Result Category", "name": "MBRESCAT", "ordinal": "21", "role": "Variable Qualifier", "simpleDatatype": "Char"}, {"_links": {"codelist": [{"href": "/mdr/root/ct/sendct/codelists/C66789", "title": "Version-agnostic anchor resource for codelist C66789", "type": "Root Value Domain"}], "modelClassVariable": {"href": "/mdr/sdtm/1-8/classes/Findings/variables/--STAT", "title": "Completion Status", "type": "Class Variable"}, "parentDataset": {"href": "/mdr/sendig/ar-1-0/datasets/MB", "title": "Microbiology Specimen", "type": "SDTM Dataset"}, "parentProduct": {"href": "/mdr/sendig/ar-1-0", "title": "Standard for Exchange of Nonclinical Data Implementation Guide: Animal Rule Version 1.0 (Final)", "type": "Implementation Guide"}, "rootItem": {"href": "/mdr/root/sendig/datasets/MB/variables/MBSTAT", "title": "Version-agnostic anchor resource for SENDIG variable MB.MBSTAT", "type": "Root Data Element"}, "self": {"href": "/mdr/sendig/ar-1-0/datasets/MB/variables/MBSTAT", "title": "Completion Status", "type": "SDTM Dataset Variable"}}, "core": "Perm", "description": "Used to indicate that a question was not asked or a test was not done, or that a test was attempted but did not generate a result. Should be null or have a value of \"NOT DONE\".", "label": "Completion Status", "name": "MBSTAT", "ordinal": "22", "role": "Record Qualifier", "simpleDatatype": "Char"}, {"_links": {"modelClassVariable": {"href": "/mdr/sdtm/1-8/classes/Findings/variables/--REASND", "title": "Reason Not Done", "type": "Class Variable"}, "parentDataset": {"href": "/mdr/sendig/ar-1-0/datasets/MB", "title": "Microbiology Specimen", "type": "SDTM Dataset"}, "parentProduct": {"href": "/mdr/sendig/ar-1-0", "title": "Standard for Exchange of Nonclinical Data Implementation Guide: Animal Rule Version 1.0 (Final)", "type": "Implementation Guide"}, "rootItem": {"href": "/mdr/root/sendig/datasets/MB/variables/MBREASND", "title": "Version-agnostic anchor resource for SENDIG variable MB.MBREASND", "type": "Root Data Element"}, "self": {"href": "/mdr/sendig/ar-1-0/datasets/MB/variables/MBREASND", "title": "Reason Not Done", "type": "SDTM Dataset Variable"}}, "core": "Perm", "description": "Reason not done. Used in conjunction with MBSTAT when value is \"NOT DONE\". Examples: \"BROKEN EQUIPMENT\", \"TECHNICIAN OVERSIGHT\".", "label": "Reason Not Done", "name": "MBREASND", "ordinal": "23", "role": "Record Qualifier", "simpleDatatype": "Char"}, {"_links": {"modelClassVariable": {"href": "/mdr/sdtm/1-8/classes/Findings/variables/--NAM", "title": "Laboratory/Vendor Name", "type": "Class Variable"}, "parentDataset": {"href": "/mdr/sendig/ar-1-0/datasets/MB", "title": "Microbiology Specimen", "type": "SDTM Dataset"}, "parentProduct": {"href": "/mdr/sendig/ar-1-0", "title": "Standard for Exchange of Nonclinical Data Implementation Guide: Animal Rule Version 1.0 (Final)", "type": "Implementation Guide"}, "rootItem": {"href": "/mdr/root/sendig/datasets/MB/variables/MBNAM", "title": "Version-agnostic anchor resource for SENDIG variable MB.MBNAM", "type": "Root Data Element"}, "self": {"href": "/mdr/sendig/ar-1-0/datasets/MB/variables/MBNAM", "title": "Laboratory/Vendor Name", "type": "SDTM Dataset Variable"}}, "core": "Perm", "description": "Name or identifier of the vendor (e.g., laboratory) that provided the test results.", "label": "Laboratory/Vendor Name", "name": "MBNAM", "ordinal": "24", "role": "Record Qualifier", "simpleDatatype": "Char"}, {"_links": {"codelist": [{"href": "/mdr/root/ct/sendct/codelists/C77529", "title": "Version-agnostic anchor resource for codelist C77529", "type": "Root Value Domain"}], "modelClassVariable": {"href": "/mdr/sdtm/1-8/classes/Findings/variables/--SPEC", "title": "Specimen Material Type", "type": "Class Variable"}, "parentDataset": {"href": "/mdr/sendig/ar-1-0/datasets/MB", "title": "Microbiology Specimen", "type": "SDTM Dataset"}, "parentProduct": {"href": "/mdr/sendig/ar-1-0", "title": "Standard for Exchange of Nonclinical Data Implementation Guide: Animal Rule Version 1.0 (Final)", "type": "Implementation Guide"}, "rootItem": {"href": "/mdr/root/sendig/datasets/MB/variables/MBSPEC", "title": "Version-agnostic anchor resource for SENDIG variable MB.MBSPEC", "type": "Root Data Element"}, "self": {"href": "/mdr/sendig/ar-1-0/datasets/MB/variables/MBSPEC", "title": "Specimen Material Type", "type": "SDTM Dataset Variable"}}, "core": "Perm", "description": "Defines the type of specimen used for a measurement. Examples: \"BLOOD\", \"PUS\".", "label": "Specimen Material Type", "name": "MBSPEC", "ordinal": "25", "role": "Record Qualifier", "simpleDatatype": "Char"}, {"_links": {"modelClassVariable": {"href": "/mdr/sdtm/1-8/classes/Findings/variables/--SPCCND", "title": "Specimen Condition", "type": "Class Variable"}, "parentDataset": {"href": "/mdr/sendig/ar-1-0/datasets/MB", "title": "Microbiology Specimen", "type": "SDTM Dataset"}, "parentProduct": {"href": "/mdr/sendig/ar-1-0", "title": "Standard for Exchange of Nonclinical Data Implementation Guide: Animal Rule Version 1.0 (Final)", "type": "Implementation Guide"}, "rootItem": {"href": "/mdr/root/sendig/datasets/MB/variables/MBSPCCND", "title": "Version-agnostic anchor resource for SENDIG variable MB.MBSPCCND", "type": "Root Data Element"}, "self": {"href": "/mdr/sendig/ar-1-0/datasets/MB/variables/MBSPCCND", "title": "Specimen Condition", "type": "SDTM Dataset Variable"}}, "core": "Perm", "description": "Free or standardized text describing the condition of the specimen. Example: \"CONTAMINATED\".", "label": "Specimen Condition", "name": "MBSPCCND", "ordinal": "26", "role": "Record Qualifier", "simpleDatatype": "Char"}, {"_links": {"codelist": [{"href": "/mdr/root/ct/sendct/codelists/C74456", "title": "Version-agnostic anchor resource for codelist C74456", "type": "Root Value Domain"}], "modelClassVariable": {"href": "/mdr/sdtm/1-8/classes/Findings/variables/--LOC", "title": "Location Used for the Measurement", "type": "Class Variable"}, "parentDataset": {"href": "/mdr/sendig/ar-1-0/datasets/MB", "title": "Microbiology Specimen", "type": "SDTM Dataset"}, "parentProduct": {"href": "/mdr/sendig/ar-1-0", "title": "Standard for Exchange of Nonclinical Data Implementation Guide: Animal Rule Version 1.0 (Final)", "type": "Implementation Guide"}, "rootItem": {"href": "/mdr/root/sendig/datasets/MB/variables/MBLOC", "title": "Version-agnostic anchor resource for SENDIG variable MB.MBLOC", "type": "Root Data Element"}, "self": {"href": "/mdr/sendig/ar-1-0/datasets/MB/variables/MBLOC", "title": "Specimen Collection Location", "type": "SDTM Dataset Variable"}}, "core": "Perm", "description": "Anatomical location relevant to the collection of the measurement.", "label": "Specimen Collection Location", "name": "MBLOC", "ordinal": "27", "role": "Record Qualifier", "simpleDatatype": "Char"}, {"_links": {"codelist": [{"href": "/mdr/root/ct/sendct/codelists/C99073", "title": "Version-agnostic anchor resource for codelist C99073", "type": "Root Value Domain"}], "modelClassVariable": {"href": "/mdr/sdtm/1-8/classes/Findings/variables/--LAT", "title": "Laterality", "type": "Class Variable"}, "parentDataset": {"href": "/mdr/sendig/ar-1-0/datasets/MB", "title": "Microbiology Specimen", "type": "SDTM Dataset"}, "parentProduct": {"href": "/mdr/sendig/ar-1-0", "title": "Standard for Exchange of Nonclinical Data Implementation Guide: Animal Rule Version 1.0 (Final)", "type": "Implementation Guide"}, "rootItem": {"href": "/mdr/root/sendig/datasets/MB/variables/MBLAT", "title": "Version-agnostic anchor resource for SENDIG variable MB.MBLAT", "type": "Root Data Element"}, "self": {"href": "/mdr/sendig/ar-1-0/datasets/MB/variables/MBLAT", "title": "Laterality", "type": "SDTM Dataset Variable"}}, "core": "Perm", "description": "Qualifier for specimen collection location further detailing laterality. Examples: \"RIGHT\", \"LEFT\", \"BILATERAL\".", "label": "Laterality", "name": "MBLAT", "ordinal": "28", "role": "Variable Qualifier", "simpleDatatype": "Char"}, {"_links": {"codelist": [{"href": "/mdr/root/ct/sendct/codelists/C99074", "title": "Version-agnostic anchor resource for codelist C99074", "type": "Root Value Domain"}], "modelClassVariable": {"href": "/mdr/sdtm/1-8/classes/Findings/variables/--DIR", "title": "Directionality", "type": "Class Variable"}, "parentDataset": {"href": "/mdr/sendig/ar-1-0/datasets/MB", "title": "Microbiology Specimen", "type": "SDTM Dataset"}, "parentProduct": {"href": "/mdr/sendig/ar-1-0", "title": "Standard for Exchange of Nonclinical Data Implementation Guide: Animal Rule Version 1.0 (Final)", "type": "Implementation Guide"}, "rootItem": {"href": "/mdr/root/sendig/datasets/MB/variables/MBDIR", "title": "Version-agnostic anchor resource for SENDIG variable MB.MBDIR", "type": "Root Data Element"}, "self": {"href": "/mdr/sendig/ar-1-0/datasets/MB/variables/MBDIR", "title": "Directionality", "type": "SDTM Dataset Variable"}}, "core": "Perm", "description": "Qualifier for specimen collection location further detailing directionality. Examples: \"ANTERIOR\", \"LOWER\", \"PROXIMAL\".", "label": "Directionality", "name": "MBDIR", "ordinal": "29", "role": "Variable Qualifier", "simpleDatatype": "Char"}, {"_links": {"modelClassVariable": {"href": "/mdr/sdtm/1-8/classes/Findings/variables/--METHOD", "title": "Method of Test or Examination", "type": "Class Variable"}, "parentDataset": {"href": "/mdr/sendig/ar-1-0/datasets/MB", "title": "Microbiology Specimen", "type": "SDTM Dataset"}, "parentProduct": {"href": "/mdr/sendig/ar-1-0", "title": "Standard for Exchange of Nonclinical Data Implementation Guide: Animal Rule Version 1.0 (Final)", "type": "Implementation Guide"}, "rootItem": {"href": "/mdr/root/sendig/datasets/MB/variables/MBMETHOD", "title": "Version-agnostic anchor resource for SENDIG variable MB.MBMETHOD", "type": "Root Data Element"}, "self": {"href": "/mdr/sendig/ar-1-0/datasets/MB/variables/MBMETHOD", "title": "Method of Test or Examination", "type": "SDTM Dataset Variable"}}, "core": "Exp", "description": "Method of the test or examination. Example: \"GRAM STAIN\",\"MICROBIAL CULTURE, LIQUID\", \"QUANTITATIVE REVERSE TRANSCRIPTASE POLYMERASE CHAIN REACTION\".", "label": "Method of Test or Examination", "name": "MBMETHOD", "ordinal": "30", "role": "Record Qualifier", "simpleDatatype": "Char"}, {"_links": {"codelist": [{"href": "/mdr/root/ct/sendct/codelists/C66742", "title": "Version-agnostic anchor resource for codelist C66742", "type": "Root Value Domain"}], "modelClassVariable": {"href": "/mdr/sdtm/1-8/classes/Findings/variables/--LOBXFL", "title": "Last Observation Before Exposure Flag", "type": "Class Variable"}, "parentDataset": {"href": "/mdr/sendig/ar-1-0/datasets/MB", "title": "Microbiology Specimen", "type": "SDTM Dataset"}, "parentProduct": {"href": "/mdr/sendig/ar-1-0", "title": "Standard for Exchange of Nonclinical Data Implementation Guide: Animal Rule Version 1.0 (Final)", "type": "Implementation Guide"}, "rootItem": {"href": "/mdr/root/sendig/datasets/MB/variables/MBLOBXFL", "title": "Version-agnostic anchor resource for SENDIG variable MB.MBLOBXFL", "type": "Root Data Element"}, "self": {"href": "/mdr/sendig/ar-1-0/datasets/MB/variables/MBLOBXFL", "title": "Last Observation Before Exposure Flag", "type": "SDTM Dataset Variable"}}, "core": "Perm", "description": "Operationally derived indicator used to identify the last non-missing value prior to RFXSTDTC. The value should be \"Y\" or null.", "label": "Last Observation Before Exposure Flag", "name": "MBLOBXFL", "ordinal": "31", "role": "Record Qualifier", "simpleDatatype": "Char"}, {"_links": {"codelist": [{"href": "/mdr/root/ct/sendct/codelists/C66742", "title": "Version-agnostic anchor resource for codelist C66742", "type": "Root Value Domain"}], "modelClassVariable": {"href": "/mdr/sdtm/1-8/classes/Findings/variables/--BLFL", "title": "Baseline Flag", "type": "Class Variable"}, "parentDataset": {"href": "/mdr/sendig/ar-1-0/datasets/MB", "title": "Microbiology Specimen", "type": "SDTM Dataset"}, "parentProduct": {"href": "/mdr/sendig/ar-1-0", "title": "Standard for Exchange of Nonclinical Data Implementation Guide: Animal Rule Version 1.0 (Final)", "type": "Implementation Guide"}, "rootItem": {"href": "/mdr/root/sendig/datasets/MB/variables/MBBLFL", "title": "Version-agnostic anchor resource for SENDIG variable MB.MBBLFL", "type": "Root Data Element"}, "self": {"href": "/mdr/sendig/ar-1-0/datasets/MB/variables/MBBLFL", "title": "Baseline Flag", "type": "SDTM Dataset Variable"}}, "core": "Perm", "description": "Indicator used to identify a baseline value. Should be \"Y\" or null. Note that MBBLFL is retained for backward compatibility. The authoritative baseline for statistical analysis is in an ADaM dataset.", "label": "Baseline Flag", "name": "MBBLFL", "ordinal": "32", "role": "Record Qualifier", "simpleDatatype": "Char"}, {"_links": {"codelist": [{"href": "/mdr/root/ct/sendct/codelists/C66742", "title": "Version-agnostic anchor resource for codelist C66742", "type": "Root Value Domain"}], "modelClassVariable": {"href": "/mdr/sdtm/1-8/classes/Findings/variables/--FAST", "title": "Fasting Status", "type": "Class Variable"}, "parentDataset": {"href": "/mdr/sendig/ar-1-0/datasets/MB", "title": "Microbiology Specimen", "type": "SDTM Dataset"}, "parentProduct": {"href": "/mdr/sendig/ar-1-0", "title": "Standard for Exchange of Nonclinical Data Implementation Guide: Animal Rule Version 1.0 (Final)", "type": "Implementation Guide"}, "rootItem": {"href": "/mdr/root/sendig/datasets/MB/variables/MBFAST", "title": "Version-agnostic anchor resource for SENDIG variable MB.MBFAST", "type": "Root Data Element"}, "self": {"href": "/mdr/sendig/ar-1-0/datasets/MB/variables/MBFAST", "title": "Fasting Status", "type": "SDTM Dataset Variable"}}, "core": "Perm", "description": "Indicator used to identify fasting status. Valid values include \"Y\", \"N\", \"U\", or null if not relevant.", "label": "Fasting Status", "name": "MBFAST", "ordinal": "33", "role": "Record Qualifier", "simpleDatatype": "Char"}, {"_links": {"codelist": [{"href": "/mdr/root/ct/sendct/codelists/C66742", "title": "Version-agnostic anchor resource for codelist C66742", "type": "Root Value Domain"}], "modelClassVariable": {"href": "/mdr/sdtm/1-8/classes/Findings/variables/--DRVFL", "title": "Derived Flag", "type": "Class Variable"}, "parentDataset": {"href": "/mdr/sendig/ar-1-0/datasets/MB", "title": "Microbiology Specimen", "type": "SDTM Dataset"}, "parentProduct": {"href": "/mdr/sendig/ar-1-0", "title": "Standard for Exchange of Nonclinical Data Implementation Guide: Animal Rule Version 1.0 (Final)", "type": "Implementation Guide"}, "rootItem": {"href": "/mdr/root/sendig/datasets/MB/variables/MBDRVFL", "title": "Version-agnostic anchor resource for SENDIG variable MB.MBDRVFL", "type": "Root Data Element"}, "self": {"href": "/mdr/sendig/ar-1-0/datasets/MB/variables/MBDRVFL", "title": "Derived Flag", "type": "SDTM Dataset Variable"}}, "core": "Perm", "description": "Used to indicate a derived record (e.g., a record that represents the average of other records such as a computed baseline). Should be \"Y\" or null.", "label": "Derived Flag", "name": "MBDRVFL", "ordinal": "34", "role": "Record Qualifier", "simpleDatatype": "Char"}, {"_links": {"codelist": [{"href": "/mdr/root/ct/sendct/codelists/C66742", "title": "Version-agnostic anchor resource for codelist C66742", "type": "Root Value Domain"}], "modelClassVariable": {"href": "/mdr/sdtm/1-8/classes/Findings/variables/--RSTIND", "title": "Restraint Indicator", "type": "Class Variable"}, "parentDataset": {"href": "/mdr/sendig/ar-1-0/datasets/MB", "title": "Microbiology Specimen", "type": "SDTM Dataset"}, "parentProduct": {"href": "/mdr/sendig/ar-1-0", "title": "Standard for Exchange of Nonclinical Data Implementation Guide: Animal Rule Version 1.0 (Final)", "type": "Implementation Guide"}, "rootItem": {"href": "/mdr/root/sendig/datasets/MB/variables/MBRSTIND", "title": "Version-agnostic anchor resource for SENDIG variable MB.MBRSTIND", "type": "Root Data Element"}, "self": {"href": "/mdr/sendig/ar-1-0/datasets/MB/variables/MBRSTIND", "title": "Restraint Indicator", "type": "SDTM Dataset Variable"}}, "core": "Exp", "description": "An indicator as to whether the subject was restrained during the intervention period.", "label": "Restraint Indicator", "name": "MBRSTIND", "ordinal": "35", "role": "Record Qualifier", "simpleDatatype": "Char"}, {"_links": {"codelist": [{"href": "/mdr/root/ct/sendct/codelists/C158123", "title": "Version-agnostic anchor resource for codelist C158123", "type": "Root Value Domain"}], "modelClassVariable": {"href": "/mdr/sdtm/1-8/classes/Findings/variables/--RSTMOD", "title": "Restraint Mode", "type": "Class Variable"}, "parentDataset": {"href": "/mdr/sendig/ar-1-0/datasets/MB", "title": "Microbiology Specimen", "type": "SDTM Dataset"}, "parentProduct": {"href": "/mdr/sendig/ar-1-0", "title": "Standard for Exchange of Nonclinical Data Implementation Guide: Animal Rule Version 1.0 (Final)", "type": "Implementation Guide"}, "rootItem": {"href": "/mdr/root/sendig/datasets/MB/variables/MBRSTMOD", "title": "Version-agnostic anchor resource for SENDIG variable MB.MBRSTMOD", "type": "Root Data Element"}, "self": {"href": "/mdr/sendig/ar-1-0/datasets/MB/variables/MBRSTMOD", "title": "Restraint Mode", "type": "SDTM Dataset Variable"}}, "core": "Exp", "description": "A description of whether the restraint was physical and/or chemical.", "label": "Restraint Mode", "name": "MBRSTMOD", "ordinal": "36", "role": "Record Qualifier", "simpleDatatype": "Char"}, {"_links": {"modelClassVariable": {"href": "/mdr/sdtm/1-8/classes/GeneralObservations/variables/--DTC", "title": "Date/Time of Collection", "type": "Class Variable"}, "parentDataset": {"href": "/mdr/sendig/ar-1-0/datasets/MB", "title": "Microbiology Specimen", "type": "SDTM Dataset"}, "parentProduct": {"href": "/mdr/sendig/ar-1-0", "title": "Standard for Exchange of Nonclinical Data Implementation Guide: Animal Rule Version 1.0 (Final)", "type": "Implementation Guide"}, "rootItem": {"href": "/mdr/root/sendig/datasets/MB/variables/MBDTC", "title": "Version-agnostic anchor resource for SENDIG variable MB.MBDTC", "type": "Root Data Element"}, "self": {"href": "/mdr/sendig/ar-1-0/datasets/MB/variables/MBDTC", "title": "Date/Time of Collection", "type": "SDTM Dataset Variable"}}, "core": "Exp", "describedValueDomain": "ISO 8601", "description": "Date/time of specimen collection.", "label": "Date/Time of Collection", "name": "MBDTC", "ordinal": "37", "role": "Timing", "simpleDatatype": "Char"}, {"_links": {"modelClassVariable": {"href": "/mdr/sdtm/1-8/classes/GeneralObservations/variables/--DY", "title": "Study Day of Visit/Collection/Exam", "type": "Class Variable"}, "parentDataset": {"href": "/mdr/sendig/ar-1-0/datasets/MB", "title": "Microbiology Specimen", "type": "SDTM Dataset"}, "parentProduct": {"href": "/mdr/sendig/ar-1-0", "title": "Standard for Exchange of Nonclinical Data Implementation Guide: Animal Rule Version 1.0 (Final)", "type": "Implementation Guide"}, "rootItem": {"href": "/mdr/root/sendig/datasets/MB/variables/MBDY", "title": "Version-agnostic anchor resource for SENDIG variable MB.MBDY", "type": "Root Data Element"}, "self": {"href": "/mdr/sendig/ar-1-0/datasets/MB/variables/MBDY", "title": "Study Day of Visit/Collection/Exam", "type": "SDTM Dataset Variable"}}, "core": "Perm", "description": "Study day of the specimen collection, measured as integer days. \n Algorithm for calculations must be relative to the sponsor-defined RFSTDTC variable in Demographics. This formula should be consistent across the submission.", "label": "Study Day of Visit/Collection/Exam", "name": "MBDY", "ordinal": "38", "role": "Timing", "simpleDatatype": "Num"}, {"_links": {"modelClassVariable": {"href": "/mdr/sdtm/1-8/classes/GeneralObservations/variables/--NOMDY", "title": "Nominal Study Day for Tabulations", "type": "Class Variable"}, "parentDataset": {"href": "/mdr/sendig/ar-1-0/datasets/MB", "title": "Microbiology Specimen", "type": "SDTM Dataset"}, "parentProduct": {"href": "/mdr/sendig/ar-1-0", "title": "Standard for Exchange of Nonclinical Data Implementation Guide: Animal Rule Version 1.0 (Final)", "type": "Implementation Guide"}, "rootItem": {"href": "/mdr/root/sendig/datasets/MB/variables/MBNOMDY", "title": "Version-agnostic anchor resource for SENDIG variable MB.MBNOMDY", "type": "Root Data Element"}, "self": {"href": "/mdr/sendig/ar-1-0/datasets/MB/variables/MBNOMDY", "title": "Nominal Study Day for Tabulations", "type": "SDTM Dataset Variable"}}, "core": "Exp", "description": "Nominal study day used for grouping records for observations that may occur on different days into a single reported study day. Should be an integer.", "label": "Nominal Study Day for Tabulations", "name": "MBNOMDY", "ordinal": "39", "role": "Timing", "simpleDatatype": "Num"}, {"_links": {"modelClassVariable": {"href": "/mdr/sdtm/1-8/classes/GeneralObservations/variables/--NOMLBL", "title": "Label for Nominal Study Day", "type": "Class Variable"}, "parentDataset": {"href": "/mdr/sendig/ar-1-0/datasets/MB", "title": "Microbiology Specimen", "type": "SDTM Dataset"}, "parentProduct": {"href": "/mdr/sendig/ar-1-0", "title": "Standard for Exchange of Nonclinical Data Implementation Guide: Animal Rule Version 1.0 (Final)", "type": "Implementation Guide"}, "rootItem": {"href": "/mdr/root/sendig/datasets/MB/variables/MBNOMLBL", "title": "Version-agnostic anchor resource for SENDIG variable MB.MBNOMLBL", "type": "Root Data Element"}, "self": {"href": "/mdr/sendig/ar-1-0/datasets/MB/variables/MBNOMLBL", "title": "Label for Nominal Study Day", "type": "SDTM Dataset Variable"}}, "core": "Perm", "description": "A label for a given value of MBNOMDY as presented in the study report. Examples: \"Week 4\", \"Day 28\".", "label": "Label for Nominal Study Day", "name": "MBNOMLBL", "ordinal": "40", "role": "Timing", "simpleDatatype": "Char"}, {"_links": {"modelClassVariable": {"href": "/mdr/sdtm/1-8/classes/GeneralObservations/variables/--XDY", "title": "Day of Obs Relative to Exposure", "type": "Class Variable"}, "parentDataset": {"href": "/mdr/sendig/ar-1-0/datasets/MB", "title": "Microbiology Specimen", "type": "SDTM Dataset"}, "parentProduct": {"href": "/mdr/sendig/ar-1-0", "title": "Standard for Exchange of Nonclinical Data Implementation Guide: Animal Rule Version 1.0 (Final)", "type": "Implementation Guide"}, "rootItem": {"href": "/mdr/root/sendig/datasets/MB/variables/MBXDY", "title": "Version-agnostic anchor resource for SENDIG variable MB.MBXDY", "type": "Root Data Element"}, "self": {"href": "/mdr/sendig/ar-1-0/datasets/MB/variables/MBXDY", "title": "Day of Collection Rel to Exp", "type": "SDTM Dataset Variable"}}, "core": "Exp", "description": "Day of specimen collection relative to the first date of exposure to study treatment (RFXSTDTC in Demographics). Must be an integer.", "label": "Day of Collection Rel to Exp", "name": "MBXDY", "ordinal": "41", "role": "Timing", "simpleDatatype": "Num"}, {"_links": {"modelClassVariable": {"href": "/mdr/sdtm/1-8/classes/GeneralObservations/variables/--CHDY", "title": "Day of Obs Rel to Challenge Agent", "type": "Class Variable"}, "parentDataset": {"href": "/mdr/sendig/ar-1-0/datasets/MB", "title": "Microbiology Specimen", "type": "SDTM Dataset"}, "parentProduct": {"href": "/mdr/sendig/ar-1-0", "title": "Standard for Exchange of Nonclinical Data Implementation Guide: Animal Rule Version 1.0 (Final)", "type": "Implementation Guide"}, "rootItem": {"href": "/mdr/root/sendig/datasets/MB/variables/MBCHDY", "title": "Version-agnostic anchor resource for SENDIG variable MB.MBCHDY", "type": "Root Data Element"}, "self": {"href": "/mdr/sendig/ar-1-0/datasets/MB/variables/MBCHDY", "title": "Day of Collection Rel to Chall Agent", "type": "SDTM Dataset Variable"}}, "core": "Exp", "description": "Day of specimen collection relative to the first date of exposure to challenge agent (RFCSTDTC in Demographics). Must be an integer.", "label": "Day of Collection Rel to Chall Agent", "name": "MBCHDY", "ordinal": "42", "role": "Timing", "simpleDatatype": "Num"}, {"_links": {"modelClassVariable": {"href": "/mdr/sdtm/1-8/classes/GeneralObservations/variables/--TPT", "title": "Planned Time Point Name", "type": "Class Variable"}, "parentDataset": {"href": "/mdr/sendig/ar-1-0/datasets/MB", "title": "Microbiology Specimen", "type": "SDTM Dataset"}, "parentProduct": {"href": "/mdr/sendig/ar-1-0", "title": "Standard for Exchange of Nonclinical Data Implementation Guide: Animal Rule Version 1.0 (Final)", "type": "Implementation Guide"}, "rootItem": {"href": "/mdr/root/sendig/datasets/MB/variables/MBTPT", "title": "Version-agnostic anchor resource for SENDIG variable MB.MBTPT", "type": "Root Data Element"}, "self": {"href": "/mdr/sendig/ar-1-0/datasets/MB/variables/MBTPT", "title": "Planned Time Point Name", "type": "SDTM Dataset Variable"}}, "core": "Perm", "description": "Text description of time when specimen should be taken. \n This may be represented as an elapsed time relative to a fixed reference point, such as time of last dose. See MBTPTNUM and MBTPTREF. Examples: \"Start\", \"5 min post\".", "label": "Planned Time Point Name", "name": "MBTPT", "ordinal": "43", "role": "Timing", "simpleDatatype": "Char"}, {"_links": {"modelClassVariable": {"href": "/mdr/sdtm/1-8/classes/GeneralObservations/variables/--TPTNUM", "title": "Planned Time Point Number", "type": "Class Variable"}, "parentDataset": {"href": "/mdr/sendig/ar-1-0/datasets/MB", "title": "Microbiology Specimen", "type": "SDTM Dataset"}, "parentProduct": {"href": "/mdr/sendig/ar-1-0", "title": "Standard for Exchange of Nonclinical Data Implementation Guide: Animal Rule Version 1.0 (Final)", "type": "Implementation Guide"}, "rootItem": {"href": "/mdr/root/sendig/datasets/MB/variables/MBTPTNUM", "title": "Version-agnostic anchor resource for SENDIG variable MB.MBTPTNUM", "type": "Root Data Element"}, "self": {"href": "/mdr/sendig/ar-1-0/datasets/MB/variables/MBTPTNUM", "title": "Planned Time Point Number", "type": "SDTM Dataset Variable"}}, "core": "Perm", "description": "Numeric version of MBTPT used in sorting.", "label": "Planned Time Point Number", "name": "MBTPTNUM", "ordinal": "44", "role": "Timing", "simpleDatatype": "Num"}, {"_links": {"modelClassVariable": {"href": "/mdr/sdtm/1-8/classes/GeneralObservations/variables/--ELTM", "title": "Planned Elapsed Time from Time Point Ref", "type": "Class Variable"}, "parentDataset": {"href": "/mdr/sendig/ar-1-0/datasets/MB", "title": "Microbiology Specimen", "type": "SDTM Dataset"}, "parentProduct": {"href": "/mdr/sendig/ar-1-0", "title": "Standard for Exchange of Nonclinical Data Implementation Guide: Animal Rule Version 1.0 (Final)", "type": "Implementation Guide"}, "rootItem": {"href": "/mdr/root/sendig/datasets/MB/variables/MBELTM", "title": "Version-agnostic anchor resource for SENDIG variable MB.MBELTM", "type": "Root Data Element"}, "self": {"href": "/mdr/sendig/ar-1-0/datasets/MB/variables/MBELTM", "title": "Planned Elapsed Time from Time Point Ref", "type": "SDTM Dataset Variable"}}, "core": "Perm", "describedValueDomain": "ISO 8601", "description": "Planned elapsed time (in ISO 8601) relative to a planned fixed reference (MBTPTREF). This variable is useful where there are repetitive measures. Not a clock time or a date time variable. Represented as an ISO 8601 duration. Examples: \"-PT15M\" to represent the period of 15 minutes prior to the reference point indicated by MBTPTREF, or \"PT8H\" to represent the period of 8 hours after the reference point indicated by MBTPTREF.", "label": "Planned Elapsed Time from Time Point Ref", "name": "MBELTM", "ordinal": "45", "role": "Timing", "simpleDatatype": "Char"}, {"_links": {"modelClassVariable": {"href": "/mdr/sdtm/1-8/classes/GeneralObservations/variables/--TPTREF", "title": "Time Point Reference", "type": "Class Variable"}, "parentDataset": {"href": "/mdr/sendig/ar-1-0/datasets/MB", "title": "Microbiology Specimen", "type": "SDTM Dataset"}, "parentProduct": {"href": "/mdr/sendig/ar-1-0", "title": "Standard for Exchange of Nonclinical Data Implementation Guide: Animal Rule Version 1.0 (Final)", "type": "Implementation Guide"}, "rootItem": {"href": "/mdr/root/sendig/datasets/MB/variables/MBTPTREF", "title": "Version-agnostic anchor resource for SENDIG variable MB.MBTPTREF", "type": "Root Data Element"}, "self": {"href": "/mdr/sendig/ar-1-0/datasets/MB/variables/MBTPTREF", "title": "Time Point Reference", "type": "SDTM Dataset Variable"}}, "core": "Perm", "description": "Name of the fixed reference point referred to by MBELTM, MBTPTNUM, and MBTPT. Example: \"PREVIOUS DOSE\".", "label": "Time Point Reference", "name": "MBTPTREF", "ordinal": "46", "role": "Timing", "simpleDatatype": "Char"}, {"_links": {"modelClassVariable": {"href": "/mdr/sdtm/1-8/classes/GeneralObservations/variables/--RFTDTC", "title": "Date/Time of Reference Time Point", "type": "Class Variable"}, "parentDataset": {"href": "/mdr/sendig/ar-1-0/datasets/MB", "title": "Microbiology Specimen", "type": "SDTM Dataset"}, "parentProduct": {"href": "/mdr/sendig/ar-1-0", "title": "Standard for Exchange of Nonclinical Data Implementation Guide: Animal Rule Version 1.0 (Final)", "type": "Implementation Guide"}, "rootItem": {"href": "/mdr/root/sendig/datasets/MB/variables/MBRFTDTC", "title": "Version-agnostic anchor resource for SENDIG variable MB.MBRFTDTC", "type": "Root Data Element"}, "self": {"href": "/mdr/sendig/ar-1-0/datasets/MB/variables/MBRFTDTC", "title": "Date/Time of Reference Time Point", "type": "SDTM Dataset Variable"}}, "core": "Perm", "describedValueDomain": "ISO 8601", "description": "Date/time for a fixed reference time point, MBTPTREF.", "label": "Date/Time of Reference Time Point", "name": "MBRFTDTC", "ordinal": "47", "role": "Timing", "simpleDatatype": "Char"}], "label": "Microbiology Specimen", "name": "MB", "ordinal": "6"}
