{"_links": {"parentClass": {"href": "/mdr/sendig/ar-1-0/classes/Events", "title": "Events Observation Class", "type": "Class"}, "parentProduct": {"href": "/mdr/sendig/ar-1-0", "title": "Standard for Exchange of Nonclinical Data Implementation Guide: Animal Rule Version 1.0 (Final)", "type": "Implementation Guide"}, "self": {"href": "/mdr/sendig/ar-1-0/datasets/MH", "title": "Medical History", "type": "SDTM Dataset"}}, "datasetStructure": "One record per medical history event per subject", "datasetVariables": [{"_links": {"modelClassVariable": {"href": "/mdr/sdtm/1-8/classes/GeneralObservations/variables/STUDYID", "title": "Study Identifier", "type": "Class Variable"}, "parentDataset": {"href": "/mdr/sendig/ar-1-0/datasets/MH", "title": "Medical History", "type": "SDTM Dataset"}, "parentProduct": {"href": "/mdr/sendig/ar-1-0", "title": "Standard for Exchange of Nonclinical Data Implementation Guide: Animal Rule Version 1.0 (Final)", "type": "Implementation Guide"}, "rootItem": {"href": "/mdr/root/sendig/datasets/MH/variables/STUDYID", "title": "Version-agnostic anchor resource for SENDIG variable MH.STUDYID", "type": "Root Data Element"}, "self": {"href": "/mdr/sendig/ar-1-0/datasets/MH/variables/STUDYID", "title": "Study Identifier", "type": "SDTM Dataset Variable"}}, "core": "Req", "description": "Unique identifier for a study.", "label": "Study Identifier", "name": "STUDYID", "ordinal": "1", "role": "Identifier", "simpleDatatype": "Char"}, {"_links": {"modelClassVariable": {"href": "/mdr/sdtm/1-8/classes/GeneralObservations/variables/DOMAIN", "title": "Domain Abbreviation", "type": "Class Variable"}, "parentDataset": {"href": "/mdr/sendig/ar-1-0/datasets/MH", "title": "Medical History", "type": "SDTM Dataset"}, "parentProduct": {"href": "/mdr/sendig/ar-1-0", "title": "Standard for Exchange of Nonclinical Data Implementation Guide: Animal Rule Version 1.0 (Final)", "type": "Implementation Guide"}, "rootItem": {"href": "/mdr/root/sendig/datasets/MH/variables/DOMAIN", "title": "Version-agnostic anchor resource for SENDIG variable MH.DOMAIN", "type": "Root Data Element"}, "self": {"href": "/mdr/sendig/ar-1-0/datasets/MH/variables/DOMAIN", "title": "Domain Abbreviation", "type": "SDTM Dataset Variable"}}, "core": "Req", "description": "Two-character abbreviation for the domain.", "label": "Domain Abbreviation", "name": "DOMAIN", "ordinal": "2", "role": "Identifier", "simpleDatatype": "Char", "valueList": ["MH"]}, {"_links": {"modelClassVariable": {"href": "/mdr/sdtm/1-8/classes/GeneralObservations/variables/USUBJID", "title": "Unique Subject Identifier", "type": "Class Variable"}, "parentDataset": {"href": "/mdr/sendig/ar-1-0/datasets/MH", "title": "Medical History", "type": "SDTM Dataset"}, "parentProduct": {"href": "/mdr/sendig/ar-1-0", "title": "Standard for Exchange of Nonclinical Data Implementation Guide: Animal Rule Version 1.0 (Final)", "type": "Implementation Guide"}, "rootItem": {"href": "/mdr/root/sendig/datasets/MH/variables/USUBJID", "title": "Version-agnostic anchor resource for SENDIG variable MH.USUBJID", "type": "Root Data Element"}, "self": {"href": "/mdr/sendig/ar-1-0/datasets/MH/variables/USUBJID", "title": "Unique Subject Identifier", "type": "SDTM Dataset Variable"}}, "core": "Req", "description": "Identifier used to uniquely identify a subject across all studies for all applications or submissions involving the product.", "label": "Unique Subject Identifier", "name": "USUBJID", "ordinal": "3", "role": "Identifier", "simpleDatatype": "Char"}, {"_links": {"modelClassVariable": {"href": "/mdr/sdtm/1-8/classes/GeneralObservations/variables/--SEQ", "title": "Sequence Number", "type": "Class Variable"}, "parentDataset": {"href": "/mdr/sendig/ar-1-0/datasets/MH", "title": "Medical History", "type": "SDTM Dataset"}, "parentProduct": {"href": "/mdr/sendig/ar-1-0", "title": "Standard for Exchange of Nonclinical Data Implementation Guide: Animal Rule Version 1.0 (Final)", "type": "Implementation Guide"}, "rootItem": {"href": "/mdr/root/sendig/datasets/MH/variables/MHSEQ", "title": "Version-agnostic anchor resource for SENDIG variable MH.MHSEQ", "type": "Root Data Element"}, "self": {"href": "/mdr/sendig/ar-1-0/datasets/MH/variables/MHSEQ", "title": "Sequence Number", "type": "SDTM Dataset Variable"}}, "core": "Req", "description": "Sequence number given to ensure uniqueness of subject records within a domain. May be any valid number.", "label": "Sequence Number", "name": "MHSEQ", "ordinal": "4", "role": "Identifier", "simpleDatatype": "Num"}, {"_links": {"modelClassVariable": {"href": "/mdr/sdtm/1-8/classes/GeneralObservations/variables/--GRPID", "title": "Group ID", "type": "Class Variable"}, "parentDataset": {"href": "/mdr/sendig/ar-1-0/datasets/MH", "title": "Medical History", "type": "SDTM Dataset"}, "parentProduct": {"href": "/mdr/sendig/ar-1-0", "title": "Standard for Exchange of Nonclinical Data Implementation Guide: Animal Rule Version 1.0 (Final)", "type": "Implementation Guide"}, "rootItem": {"href": "/mdr/root/sendig/datasets/MH/variables/MHGRPID", "title": "Version-agnostic anchor resource for SENDIG variable MH.MHGRPID", "type": "Root Data Element"}, "self": {"href": "/mdr/sendig/ar-1-0/datasets/MH/variables/MHGRPID", "title": "Group ID", "type": "SDTM Dataset Variable"}}, "core": "Perm", "description": "Used to tie together a block of related records in a single domain for a subject.", "label": "Group ID", "name": "MHGRPID", "ordinal": "5", "role": "Identifier", "simpleDatatype": "Char"}, {"_links": {"modelClassVariable": {"href": "/mdr/sdtm/1-8/classes/GeneralObservations/variables/--REFID", "title": "Reference ID", "type": "Class Variable"}, "parentDataset": {"href": "/mdr/sendig/ar-1-0/datasets/MH", "title": "Medical History", "type": "SDTM Dataset"}, "parentProduct": {"href": "/mdr/sendig/ar-1-0", "title": "Standard for Exchange of Nonclinical Data Implementation Guide: Animal Rule Version 1.0 (Final)", "type": "Implementation Guide"}, "rootItem": {"href": "/mdr/root/sendig/datasets/MH/variables/MHREFID", "title": "Version-agnostic anchor resource for SENDIG variable MH.MHREFID", "type": "Root Data Element"}, "self": {"href": "/mdr/sendig/ar-1-0/datasets/MH/variables/MHREFID", "title": "Reference ID", "type": "SDTM Dataset Variable"}}, "core": "Perm", "description": "Internal or external medical history identifier.", "label": "Reference ID", "name": "MHREFID", "ordinal": "6", "role": "Identifier", "simpleDatatype": "Char"}, {"_links": {"modelClassVariable": {"href": "/mdr/sdtm/1-8/classes/GeneralObservations/variables/--SPID", "title": "Sponsor-Defined Identifier", "type": "Class Variable"}, "parentDataset": {"href": "/mdr/sendig/ar-1-0/datasets/MH", "title": "Medical History", "type": "SDTM Dataset"}, "parentProduct": {"href": "/mdr/sendig/ar-1-0", "title": "Standard for Exchange of Nonclinical Data Implementation Guide: Animal Rule Version 1.0 (Final)", "type": "Implementation Guide"}, "rootItem": {"href": "/mdr/root/sendig/datasets/MH/variables/MHSPID", "title": "Version-agnostic anchor resource for SENDIG variable MH.MHSPID", "type": "Root Data Element"}, "self": {"href": "/mdr/sendig/ar-1-0/datasets/MH/variables/MHSPID", "title": "Sponsor-Defined Identifier", "type": "SDTM Dataset Variable"}}, "core": "Perm", "description": "Sponsor-defined reference number.", "label": "Sponsor-Defined Identifier", "name": "MHSPID", "ordinal": "7", "role": "Identifier", "simpleDatatype": "Char"}, {"_links": {"modelClassVariable": {"href": "/mdr/sdtm/1-8/classes/Events/variables/--TERM", "title": "Reported Term", "type": "Class Variable"}, "parentDataset": {"href": "/mdr/sendig/ar-1-0/datasets/MH", "title": "Medical History", "type": "SDTM Dataset"}, "parentProduct": {"href": "/mdr/sendig/ar-1-0", "title": "Standard for Exchange of Nonclinical Data Implementation Guide: Animal Rule Version 1.0 (Final)", "type": "Implementation Guide"}, "rootItem": {"href": "/mdr/root/sendig/datasets/MH/variables/MHTERM", "title": "Version-agnostic anchor resource for SENDIG variable MH.MHTERM", "type": "Root Data Element"}, "self": {"href": "/mdr/sendig/ar-1-0/datasets/MH/variables/MHTERM", "title": "Reported Term for the Medical History", "type": "SDTM Dataset Variable"}}, "core": "Req", "description": "Verbatim term for the medical condition or event.", "label": "Reported Term for the Medical History", "name": "MHTERM", "ordinal": "8", "role": "Topic", "simpleDatatype": "Char"}, {"_links": {"modelClassVariable": {"href": "/mdr/sdtm/1-8/classes/Events/variables/--CAT", "title": "Category", "type": "Class Variable"}, "parentDataset": {"href": "/mdr/sendig/ar-1-0/datasets/MH", "title": "Medical History", "type": "SDTM Dataset"}, "parentProduct": {"href": "/mdr/sendig/ar-1-0", "title": "Standard for Exchange of Nonclinical Data Implementation Guide: Animal Rule Version 1.0 (Final)", "type": "Implementation Guide"}, "rootItem": {"href": "/mdr/root/sendig/datasets/MH/variables/MHCAT", "title": "Version-agnostic anchor resource for SENDIG variable MH.MHCAT", "type": "Root Data Element"}, "self": {"href": "/mdr/sendig/ar-1-0/datasets/MH/variables/MHCAT", "title": "Category for Medical History", "type": "SDTM Dataset Variable"}}, "core": "Perm", "description": "Used to define a category of related records. Examples: \"CARDIAC\", \"GENERAL\".", "label": "Category for Medical History", "name": "MHCAT", "ordinal": "9", "role": "Grouping Qualifier", "simpleDatatype": "Char"}, {"_links": {"modelClassVariable": {"href": "/mdr/sdtm/1-8/classes/Events/variables/--SCAT", "title": "Subcategory", "type": "Class Variable"}, "parentDataset": {"href": "/mdr/sendig/ar-1-0/datasets/MH", "title": "Medical History", "type": "SDTM Dataset"}, "parentProduct": {"href": "/mdr/sendig/ar-1-0", "title": "Standard for Exchange of Nonclinical Data Implementation Guide: Animal Rule Version 1.0 (Final)", "type": "Implementation Guide"}, "rootItem": {"href": "/mdr/root/sendig/datasets/MH/variables/MHSCAT", "title": "Version-agnostic anchor resource for SENDIG variable MH.MHSCAT", "type": "Root Data Element"}, "self": {"href": "/mdr/sendig/ar-1-0/datasets/MH/variables/MHSCAT", "title": "Subcategory for Medical History", "type": "SDTM Dataset Variable"}}, "core": "Perm", "description": "A further categorization of the condition or event.", "label": "Subcategory for Medical History", "name": "MHSCAT", "ordinal": "10", "role": "Grouping Qualifier", "simpleDatatype": "Char"}, {"_links": {"modelClassVariable": {"href": "/mdr/sdtm/1-8/classes/GeneralObservations/variables/--DTC", "title": "Date/Time of Collection", "type": "Class Variable"}, "parentDataset": {"href": "/mdr/sendig/ar-1-0/datasets/MH", "title": "Medical History", "type": "SDTM Dataset"}, "parentProduct": {"href": "/mdr/sendig/ar-1-0", "title": "Standard for Exchange of Nonclinical Data Implementation Guide: Animal Rule Version 1.0 (Final)", "type": "Implementation Guide"}, "rootItem": {"href": "/mdr/root/sendig/datasets/MH/variables/MHDTC", "title": "Version-agnostic anchor resource for SENDIG variable MH.MHDTC", "type": "Root Data Element"}, "self": {"href": "/mdr/sendig/ar-1-0/datasets/MH/variables/MHDTC", "title": "Date/Time of History Collection", "type": "SDTM Dataset Variable"}}, "core": "Perm", "describedValueDomain": "ISO 8601", "description": "Collection date and time of the medical history observation represented in ISO 8601 character format.", "label": "Date/Time of History Collection", "name": "MHDTC", "ordinal": "11", "role": "Timing", "simpleDatatype": "Char"}, {"_links": {"modelClassVariable": {"href": "/mdr/sdtm/1-8/classes/GeneralObservations/variables/--STDTC", "title": "Start Date/Time of Observation", "type": "Class Variable"}, "parentDataset": {"href": "/mdr/sendig/ar-1-0/datasets/MH", "title": "Medical History", "type": "SDTM Dataset"}, "parentProduct": {"href": "/mdr/sendig/ar-1-0", "title": "Standard for Exchange of Nonclinical Data Implementation Guide: Animal Rule Version 1.0 (Final)", "type": "Implementation Guide"}, "rootItem": {"href": "/mdr/root/sendig/datasets/MH/variables/MHSTDTC", "title": "Version-agnostic anchor resource for SENDIG variable MH.MHSTDTC", "type": "Root Data Element"}, "self": {"href": "/mdr/sendig/ar-1-0/datasets/MH/variables/MHSTDTC", "title": "Start Date/Time of Medical History Event", "type": "SDTM Dataset Variable"}}, "core": "Perm", "describedValueDomain": "ISO 8601", "description": "Start date/time of the medical history event represented in ISO 8601 character format.", "label": "Start Date/Time of Medical History Event", "name": "MHSTDTC", "ordinal": "12", "role": "Timing", "simpleDatatype": "Char"}, {"_links": {"modelClassVariable": {"href": "/mdr/sdtm/1-8/classes/GeneralObservations/variables/--ENDTC", "title": "End Date/Time of Observation", "type": "Class Variable"}, "parentDataset": {"href": "/mdr/sendig/ar-1-0/datasets/MH", "title": "Medical History", "type": "SDTM Dataset"}, "parentProduct": {"href": "/mdr/sendig/ar-1-0", "title": "Standard for Exchange of Nonclinical Data Implementation Guide: Animal Rule Version 1.0 (Final)", "type": "Implementation Guide"}, "rootItem": {"href": "/mdr/root/sendig/datasets/MH/variables/MHENDTC", "title": "Version-agnostic anchor resource for SENDIG variable MH.MHENDTC", "type": "Root Data Element"}, "self": {"href": "/mdr/sendig/ar-1-0/datasets/MH/variables/MHENDTC", "title": "End Date/Time of Medical History Event", "type": "SDTM Dataset Variable"}}, "core": "Perm", "describedValueDomain": "ISO 8601", "description": "End date/time of the medical history event.", "label": "End Date/Time of Medical History Event", "name": "MHENDTC", "ordinal": "13", "role": "Timing", "simpleDatatype": "Char"}, {"_links": {"modelClassVariable": {"href": "/mdr/sdtm/1-8/classes/GeneralObservations/variables/--DY", "title": "Study Day of Visit/Collection/Exam", "type": "Class Variable"}, "parentDataset": {"href": "/mdr/sendig/ar-1-0/datasets/MH", "title": "Medical History", "type": "SDTM Dataset"}, "parentProduct": {"href": "/mdr/sendig/ar-1-0", "title": "Standard for Exchange of Nonclinical Data Implementation Guide: Animal Rule Version 1.0 (Final)", "type": "Implementation Guide"}, "rootItem": {"href": "/mdr/root/sendig/datasets/MH/variables/MHDY", "title": "Version-agnostic anchor resource for SENDIG variable MH.MHDY", "type": "Root Data Element"}, "self": {"href": "/mdr/sendig/ar-1-0/datasets/MH/variables/MHDY", "title": "Study Day of History Collection", "type": "SDTM Dataset Variable"}}, "core": "Perm", "description": "Study day of medical history collection, measured as integer days. \n Algorithm for calculations must be relative to the sponsor-defined RFSTDTC variable in Demographics. This formula should be consistent across the submission.", "label": "Study Day of History Collection", "name": "MHDY", "ordinal": "14", "role": "Timing", "simpleDatatype": "Num"}], "label": "Medical History", "name": "MH", "ordinal": "5"}
