{"_links": {"parentClass": {"href": "/mdr/sendig/ar-1-0/classes/Interventions", "title": "Interventions Observation Class", "type": "Class"}, "parentProduct": {"href": "/mdr/sendig/ar-1-0", "title": "Standard for Exchange of Nonclinical Data Implementation Guide: Animal Rule Version 1.0 (Final)", "type": "Implementation Guide"}, "self": {"href": "/mdr/sendig/ar-1-0/datasets/PR", "title": "Procedures", "type": "SDTM Dataset"}}, "datasetStructure": "One record per recorded procedure per occurrence per subject", "datasetVariables": [{"_links": {"modelClassVariable": {"href": "/mdr/sdtm/1-8/classes/GeneralObservations/variables/STUDYID", "title": "Study Identifier", "type": "Class Variable"}, "parentDataset": {"href": "/mdr/sendig/ar-1-0/datasets/PR", "title": "Procedures", "type": "SDTM Dataset"}, "parentProduct": {"href": "/mdr/sendig/ar-1-0", "title": "Standard for Exchange of Nonclinical Data Implementation Guide: Animal Rule Version 1.0 (Final)", "type": "Implementation Guide"}, "rootItem": {"href": "/mdr/root/sendig/datasets/PR/variables/STUDYID", "title": "Version-agnostic anchor resource for SENDIG variable PR.STUDYID", "type": "Root Data Element"}, "self": {"href": "/mdr/sendig/ar-1-0/datasets/PR/variables/STUDYID", "title": "Study Identifier", "type": "SDTM Dataset Variable"}}, "core": "Req", "description": "Unique identifier for a study.", "label": "Study Identifier", "name": "STUDYID", "ordinal": "1", "role": "Identifier", "simpleDatatype": "Char"}, {"_links": {"modelClassVariable": {"href": "/mdr/sdtm/1-8/classes/GeneralObservations/variables/DOMAIN", "title": "Domain Abbreviation", "type": "Class Variable"}, "parentDataset": {"href": "/mdr/sendig/ar-1-0/datasets/PR", "title": "Procedures", "type": "SDTM Dataset"}, "parentProduct": {"href": "/mdr/sendig/ar-1-0", "title": "Standard for Exchange of Nonclinical Data Implementation Guide: Animal Rule Version 1.0 (Final)", "type": "Implementation Guide"}, "rootItem": {"href": "/mdr/root/sendig/datasets/PR/variables/DOMAIN", "title": "Version-agnostic anchor resource for SENDIG variable PR.DOMAIN", "type": "Root Data Element"}, "self": {"href": "/mdr/sendig/ar-1-0/datasets/PR/variables/DOMAIN", "title": "Domain Abbreviation", "type": "SDTM Dataset Variable"}}, "core": "Req", "description": "Two-character abbreviation for the domain.", "label": "Domain Abbreviation", "name": "DOMAIN", "ordinal": "2", "role": "Identifier", "simpleDatatype": "Char", "valueList": ["PR"]}, {"_links": {"modelClassVariable": {"href": "/mdr/sdtm/1-8/classes/GeneralObservations/variables/USUBJID", "title": "Unique Subject Identifier", "type": "Class Variable"}, "parentDataset": {"href": "/mdr/sendig/ar-1-0/datasets/PR", "title": "Procedures", "type": "SDTM Dataset"}, "parentProduct": {"href": "/mdr/sendig/ar-1-0", "title": "Standard for Exchange of Nonclinical Data Implementation Guide: Animal Rule Version 1.0 (Final)", "type": "Implementation Guide"}, "rootItem": {"href": "/mdr/root/sendig/datasets/PR/variables/USUBJID", "title": "Version-agnostic anchor resource for SENDIG variable PR.USUBJID", "type": "Root Data Element"}, "self": {"href": "/mdr/sendig/ar-1-0/datasets/PR/variables/USUBJID", "title": "Unique Subject Identifier", "type": "SDTM Dataset Variable"}}, "core": "Req", "description": "Identifier used to uniquely identify a subject across all studies for all applications or submissions involving the product.", "label": "Unique Subject Identifier", "name": "USUBJID", "ordinal": "3", "role": "Identifier", "simpleDatatype": "Char"}, {"_links": {"modelClassVariable": {"href": "/mdr/sdtm/1-8/classes/GeneralObservations/variables/--SEQ", "title": "Sequence Number", "type": "Class Variable"}, "parentDataset": {"href": "/mdr/sendig/ar-1-0/datasets/PR", "title": "Procedures", "type": "SDTM Dataset"}, "parentProduct": {"href": "/mdr/sendig/ar-1-0", "title": "Standard for Exchange of Nonclinical Data Implementation Guide: Animal Rule Version 1.0 (Final)", "type": "Implementation Guide"}, "rootItem": {"href": "/mdr/root/sendig/datasets/PR/variables/PRSEQ", "title": "Version-agnostic anchor resource for SENDIG variable PR.PRSEQ", "type": "Root Data Element"}, "self": {"href": "/mdr/sendig/ar-1-0/datasets/PR/variables/PRSEQ", "title": "Sequence Number", "type": "SDTM Dataset Variable"}}, "core": "Req", "description": "Sequence number to ensure uniqueness of records within a dataset for a subject. Should be assigned to be in a consistent chronological order.", "label": "Sequence Number", "name": "PRSEQ", "ordinal": "4", "role": "Identifier", "simpleDatatype": "Num"}, {"_links": {"modelClassVariable": {"href": "/mdr/sdtm/1-8/classes/GeneralObservations/variables/--GRPID", "title": "Group ID", "type": "Class Variable"}, "parentDataset": {"href": "/mdr/sendig/ar-1-0/datasets/PR", "title": "Procedures", "type": "SDTM Dataset"}, "parentProduct": {"href": "/mdr/sendig/ar-1-0", "title": "Standard for Exchange of Nonclinical Data Implementation Guide: Animal Rule Version 1.0 (Final)", "type": "Implementation Guide"}, "rootItem": {"href": "/mdr/root/sendig/datasets/PR/variables/PRGRPID", "title": "Version-agnostic anchor resource for SENDIG variable PR.PRGRPID", "type": "Root Data Element"}, "self": {"href": "/mdr/sendig/ar-1-0/datasets/PR/variables/PRGRPID", "title": "Group ID", "type": "SDTM Dataset Variable"}}, "core": "Perm", "description": "Used to link together a block of related records within a subject in a domain.", "label": "Group ID", "name": "PRGRPID", "ordinal": "5", "role": "Identifier", "simpleDatatype": "Char"}, {"_links": {"modelClassVariable": {"href": "/mdr/sdtm/1-8/classes/GeneralObservations/variables/--SPID", "title": "Sponsor-Defined Identifier", "type": "Class Variable"}, "parentDataset": {"href": "/mdr/sendig/ar-1-0/datasets/PR", "title": "Procedures", "type": "SDTM Dataset"}, "parentProduct": {"href": "/mdr/sendig/ar-1-0", "title": "Standard for Exchange of Nonclinical Data Implementation Guide: Animal Rule Version 1.0 (Final)", "type": "Implementation Guide"}, "rootItem": {"href": "/mdr/root/sendig/datasets/PR/variables/PRSPID", "title": "Version-agnostic anchor resource for SENDIG variable PR.PRSPID", "type": "Root Data Element"}, "self": {"href": "/mdr/sendig/ar-1-0/datasets/PR/variables/PRSPID", "title": "Sponsor-Defined Identifier", "type": "SDTM Dataset Variable"}}, "core": "Perm", "description": "Sponsor-defined identifier.", "label": "Sponsor-Defined Identifier", "name": "PRSPID", "ordinal": "6", "role": "Identifier", "simpleDatatype": "Char"}, {"_links": {"modelClassVariable": {"href": "/mdr/sdtm/1-8/classes/GeneralObservations/variables/--LNKID", "title": "Link ID", "type": "Class Variable"}, "parentDataset": {"href": "/mdr/sendig/ar-1-0/datasets/PR", "title": "Procedures", "type": "SDTM Dataset"}, "parentProduct": {"href": "/mdr/sendig/ar-1-0", "title": "Standard for Exchange of Nonclinical Data Implementation Guide: Animal Rule Version 1.0 (Final)", "type": "Implementation Guide"}, "rootItem": {"href": "/mdr/root/sendig/datasets/PR/variables/PRLNKID", "title": "Version-agnostic anchor resource for SENDIG variable PR.PRLNKID", "type": "Root Data Element"}, "self": {"href": "/mdr/sendig/ar-1-0/datasets/PR/variables/PRLNKID", "title": "Link ID", "type": "SDTM Dataset Variable"}}, "core": "Perm", "description": "Used to facilitate identification of relationships between records.", "label": "Link ID", "name": "PRLNKID", "ordinal": "7", "role": "Identifier", "simpleDatatype": "Char"}, {"_links": {"modelClassVariable": {"href": "/mdr/sdtm/1-8/classes/GeneralObservations/variables/--LNKGRP", "title": "Link Group ID", "type": "Class Variable"}, "parentDataset": {"href": "/mdr/sendig/ar-1-0/datasets/PR", "title": "Procedures", "type": "SDTM Dataset"}, "parentProduct": {"href": "/mdr/sendig/ar-1-0", "title": "Standard for Exchange of Nonclinical Data Implementation Guide: Animal Rule Version 1.0 (Final)", "type": "Implementation Guide"}, "rootItem": {"href": "/mdr/root/sendig/datasets/PR/variables/PRLNKGRP", "title": "Version-agnostic anchor resource for SENDIG variable PR.PRLNKGRP", "type": "Root Data Element"}, "self": {"href": "/mdr/sendig/ar-1-0/datasets/PR/variables/PRLNKGRP", "title": "Link Group ID", "type": "SDTM Dataset Variable"}}, "core": "Perm", "description": "Used to facilitate identification of relationships between records.", "label": "Link Group ID", "name": "PRLNKGRP", "ordinal": "8", "role": "Identifier", "simpleDatatype": "Char"}, {"_links": {"modelClassVariable": {"href": "/mdr/sdtm/1-8/classes/Interventions/variables/--TRT", "title": "Name of Treatment", "type": "Class Variable"}, "parentDataset": {"href": "/mdr/sendig/ar-1-0/datasets/PR", "title": "Procedures", "type": "SDTM Dataset"}, "parentProduct": {"href": "/mdr/sendig/ar-1-0", "title": "Standard for Exchange of Nonclinical Data Implementation Guide: Animal Rule Version 1.0 (Final)", "type": "Implementation Guide"}, "rootItem": {"href": "/mdr/root/sendig/datasets/PR/variables/PRTRT", "title": "Version-agnostic anchor resource for SENDIG variable PR.PRTRT", "type": "Root Data Element"}, "self": {"href": "/mdr/sendig/ar-1-0/datasets/PR/variables/PRTRT", "title": "Reported Name of Procedure", "type": "SDTM Dataset Variable"}}, "core": "Req", "description": "Name of procedure performed.", "label": "Reported Name of Procedure", "name": "PRTRT", "ordinal": "9", "role": "Topic", "simpleDatatype": "Char"}, {"_links": {"modelClassVariable": {"href": "/mdr/sdtm/1-8/classes/Interventions/variables/--DECOD", "title": "Standardized Treatment Name", "type": "Class Variable"}, "parentDataset": {"href": "/mdr/sendig/ar-1-0/datasets/PR", "title": "Procedures", "type": "SDTM Dataset"}, "parentProduct": {"href": "/mdr/sendig/ar-1-0", "title": "Standard for Exchange of Nonclinical Data Implementation Guide: Animal Rule Version 1.0 (Final)", "type": "Implementation Guide"}, "rootItem": {"href": "/mdr/root/sendig/datasets/PR/variables/PRDECOD", "title": "Version-agnostic anchor resource for SENDIG variable PR.PRDECOD", "type": "Root Data Element"}, "self": {"href": "/mdr/sendig/ar-1-0/datasets/PR/variables/PRDECOD", "title": "Standardized Procedure Name", "type": "SDTM Dataset Variable"}}, "core": "Perm", "description": "Standardized or dictionary-derived name of PRTRT. The sponsor is expected to provide the dictionary name and version used to map the terms in the external codelist element in the Define-XML document. If an intervention term does not have a decode value in the dictionary, then PRDECOD will be null.", "label": "Standardized Procedure Name", "name": "PRDECOD", "ordinal": "10", "role": "Synonym Qualifier", "simpleDatatype": "Char"}, {"_links": {"modelClassVariable": {"href": "/mdr/sdtm/1-8/classes/Interventions/variables/--CAT", "title": "Category", "type": "Class Variable"}, "parentDataset": {"href": "/mdr/sendig/ar-1-0/datasets/PR", "title": "Procedures", "type": "SDTM Dataset"}, "parentProduct": {"href": "/mdr/sendig/ar-1-0", "title": "Standard for Exchange of Nonclinical Data Implementation Guide: Animal Rule Version 1.0 (Final)", "type": "Implementation Guide"}, "rootItem": {"href": "/mdr/root/sendig/datasets/PR/variables/PRCAT", "title": "Version-agnostic anchor resource for SENDIG variable PR.PRCAT", "type": "Root Data Element"}, "self": {"href": "/mdr/sendig/ar-1-0/datasets/PR/variables/PRCAT", "title": "Category", "type": "SDTM Dataset Variable"}}, "core": "Perm", "description": "Used to define a category of procedure values.", "label": "Category", "name": "PRCAT", "ordinal": "11", "role": "Grouping Qualifier", "simpleDatatype": "Char"}, {"_links": {"modelClassVariable": {"href": "/mdr/sdtm/1-8/classes/Interventions/variables/--SCAT", "title": "Subcategory", "type": "Class Variable"}, "parentDataset": {"href": "/mdr/sendig/ar-1-0/datasets/PR", "title": "Procedures", "type": "SDTM Dataset"}, "parentProduct": {"href": "/mdr/sendig/ar-1-0", "title": "Standard for Exchange of Nonclinical Data Implementation Guide: Animal Rule Version 1.0 (Final)", "type": "Implementation Guide"}, "rootItem": {"href": "/mdr/root/sendig/datasets/PR/variables/PRSCAT", "title": "Version-agnostic anchor resource for SENDIG variable PR.PRSCAT", "type": "Root Data Element"}, "self": {"href": "/mdr/sendig/ar-1-0/datasets/PR/variables/PRSCAT", "title": "Subcategory", "type": "SDTM Dataset Variable"}}, "core": "Perm", "description": "Used to define a further categorization of PRCAT values.", "label": "Subcategory", "name": "PRSCAT", "ordinal": "12", "role": "Grouping Qualifier", "simpleDatatype": "Char"}, {"_links": {"codelist": [{"href": "/mdr/root/ct/sendct/codelists/C66742", "title": "Version-agnostic anchor resource for codelist C66742", "type": "Root Value Domain"}], "modelClassVariable": {"href": "/mdr/sdtm/1-8/classes/Interventions/variables/--PRESP", "title": "Pre-specified", "type": "Class Variable"}, "parentDataset": {"href": "/mdr/sendig/ar-1-0/datasets/PR", "title": "Procedures", "type": "SDTM Dataset"}, "parentProduct": {"href": "/mdr/sendig/ar-1-0", "title": "Standard for Exchange of Nonclinical Data Implementation Guide: Animal Rule Version 1.0 (Final)", "type": "Implementation Guide"}, "rootItem": {"href": "/mdr/root/sendig/datasets/PR/variables/PRPRESP", "title": "Version-agnostic anchor resource for SENDIG variable PR.PRPRESP", "type": "Root Data Element"}, "self": {"href": "/mdr/sendig/ar-1-0/datasets/PR/variables/PRPRESP", "title": "Pre-specified", "type": "SDTM Dataset Variable"}}, "core": "Perm", "description": "Used when a specific procedure is prespecified. Values should be \"Y\" or null.", "label": "Pre-specified", "name": "PRPRESP", "ordinal": "13", "role": "Variable Qualifier", "simpleDatatype": "Char"}, {"_links": {"codelist": [{"href": "/mdr/root/ct/sendct/codelists/C66742", "title": "Version-agnostic anchor resource for codelist C66742", "type": "Root Value Domain"}], "modelClassVariable": {"href": "/mdr/sdtm/1-8/classes/Interventions/variables/--OCCUR", "title": "Occurrence Indicator", "type": "Class Variable"}, "parentDataset": {"href": "/mdr/sendig/ar-1-0/datasets/PR", "title": "Procedures", "type": "SDTM Dataset"}, "parentProduct": {"href": "/mdr/sendig/ar-1-0", "title": "Standard for Exchange of Nonclinical Data Implementation Guide: Animal Rule Version 1.0 (Final)", "type": "Implementation Guide"}, "rootItem": {"href": "/mdr/root/sendig/datasets/PR/variables/PROCCUR", "title": "Version-agnostic anchor resource for SENDIG variable PR.PROCCUR", "type": "Root Data Element"}, "self": {"href": "/mdr/sendig/ar-1-0/datasets/PR/variables/PROCCUR", "title": "Occurrence", "type": "SDTM Dataset Variable"}}, "core": "Perm", "description": "Used to record whether a prespecified procedure occurred when information about the occurrence of a specific procedure is solicited.", "label": "Occurrence", "name": "PROCCUR", "ordinal": "14", "role": "Record Qualifier", "simpleDatatype": "Char"}, {"_links": {"modelClassVariable": {"href": "/mdr/sdtm/1-8/classes/Interventions/variables/--INDC", "title": "Indication", "type": "Class Variable"}, "parentDataset": {"href": "/mdr/sendig/ar-1-0/datasets/PR", "title": "Procedures", "type": "SDTM Dataset"}, "parentProduct": {"href": "/mdr/sendig/ar-1-0", "title": "Standard for Exchange of Nonclinical Data Implementation Guide: Animal Rule Version 1.0 (Final)", "type": "Implementation Guide"}, "rootItem": {"href": "/mdr/root/sendig/datasets/PR/variables/PRINDC", "title": "Version-agnostic anchor resource for SENDIG variable PR.PRINDC", "type": "Root Data Element"}, "self": {"href": "/mdr/sendig/ar-1-0/datasets/PR/variables/PRINDC", "title": "Indication", "type": "SDTM Dataset Variable"}}, "core": "Perm", "description": "Denotes the indication for the procedure.", "label": "Indication", "name": "PRINDC", "ordinal": "15", "role": "Record Qualifier", "simpleDatatype": "Char"}, {"_links": {"modelClassVariable": {"href": "/mdr/sdtm/1-8/classes/Interventions/variables/--DOSE", "title": "Dose", "type": "Class Variable"}, "parentDataset": {"href": "/mdr/sendig/ar-1-0/datasets/PR", "title": "Procedures", "type": "SDTM Dataset"}, "parentProduct": {"href": "/mdr/sendig/ar-1-0", "title": "Standard for Exchange of Nonclinical Data Implementation Guide: Animal Rule Version 1.0 (Final)", "type": "Implementation Guide"}, "rootItem": {"href": "/mdr/root/sendig/datasets/PR/variables/PRDOSE", "title": "Version-agnostic anchor resource for SENDIG variable PR.PRDOSE", "type": "Root Data Element"}, "self": {"href": "/mdr/sendig/ar-1-0/datasets/PR/variables/PRDOSE", "title": "Dose", "type": "SDTM Dataset Variable"}}, "core": "Perm", "description": "Amount of PRTRT administered. Not populated when PRDOSTXT is populated.", "label": "Dose", "name": "PRDOSE", "ordinal": "16", "role": "Record Qualifier", "simpleDatatype": "Num"}, {"_links": {"modelClassVariable": {"href": "/mdr/sdtm/1-8/classes/Interventions/variables/--DOSTXT", "title": "Dose Description", "type": "Class Variable"}, "parentDataset": {"href": "/mdr/sendig/ar-1-0/datasets/PR", "title": "Procedures", "type": "SDTM Dataset"}, "parentProduct": {"href": "/mdr/sendig/ar-1-0", "title": "Standard for Exchange of Nonclinical Data Implementation Guide: Animal Rule Version 1.0 (Final)", "type": "Implementation Guide"}, "rootItem": {"href": "/mdr/root/sendig/datasets/PR/variables/PRDOSTXT", "title": "Version-agnostic anchor resource for SENDIG variable PR.PRDOSTXT", "type": "Root Data Element"}, "self": {"href": "/mdr/sendig/ar-1-0/datasets/PR/variables/PRDOSTXT", "title": "Dose Description", "type": "SDTM Dataset Variable"}}, "core": "Perm", "description": "Dosing information collected in text form. Examples: \"<1\", \"200-400\". Not populated when PRDOSE is populated.", "label": "Dose Description", "name": "PRDOSTXT", "ordinal": "17", "role": "Record Qualifier", "simpleDatatype": "Char"}, {"_links": {"codelist": [{"href": "/mdr/root/ct/sendct/codelists/C71620", "title": "Version-agnostic anchor resource for codelist C71620", "type": "Root Value Domain"}], "modelClassVariable": {"href": "/mdr/sdtm/1-8/classes/Interventions/variables/--DOSU", "title": "Dose Units", "type": "Class Variable"}, "parentDataset": {"href": "/mdr/sendig/ar-1-0/datasets/PR", "title": "Procedures", "type": "SDTM Dataset"}, "parentProduct": {"href": "/mdr/sendig/ar-1-0", "title": "Standard for Exchange of Nonclinical Data Implementation Guide: Animal Rule Version 1.0 (Final)", "type": "Implementation Guide"}, "rootItem": {"href": "/mdr/root/sendig/datasets/PR/variables/PRDOSU", "title": "Version-agnostic anchor resource for SENDIG variable PR.PRDOSU", "type": "Root Data Element"}, "self": {"href": "/mdr/sendig/ar-1-0/datasets/PR/variables/PRDOSU", "title": "Dose Units", "type": "SDTM Dataset Variable"}}, "core": "Perm", "description": "Units for PRDOSE, PRDOSTOT, or PRDOSTXT.", "label": "Dose Units", "name": "PRDOSU", "ordinal": "18", "role": "Variable Qualifier", "simpleDatatype": "Char"}, {"_links": {"codelist": [{"href": "/mdr/root/ct/sendct/codelists/C66726", "title": "Version-agnostic anchor resource for codelist C66726", "type": "Root Value Domain"}], "modelClassVariable": {"href": "/mdr/sdtm/1-8/classes/Interventions/variables/--DOSFRM", "title": "Dose Form", "type": "Class Variable"}, "parentDataset": {"href": "/mdr/sendig/ar-1-0/datasets/PR", "title": "Procedures", "type": "SDTM Dataset"}, "parentProduct": {"href": "/mdr/sendig/ar-1-0", "title": "Standard for Exchange of Nonclinical Data Implementation Guide: Animal Rule Version 1.0 (Final)", "type": "Implementation Guide"}, "rootItem": {"href": "/mdr/root/sendig/datasets/PR/variables/PRDOSFRM", "title": "Version-agnostic anchor resource for SENDIG variable PR.PRDOSFRM", "type": "Root Data Element"}, "self": {"href": "/mdr/sendig/ar-1-0/datasets/PR/variables/PRDOSFRM", "title": "Dose Form", "type": "SDTM Dataset Variable"}}, "core": "Perm", "description": "Dose form for PRTRT.", "label": "Dose Form", "name": "PRDOSFRM", "ordinal": "19", "role": "Variable Qualifier", "simpleDatatype": "Char"}, {"_links": {"codelist": [{"href": "/mdr/root/ct/sendct/codelists/C71113", "title": "Version-agnostic anchor resource for codelist C71113", "type": "Root Value Domain"}], "modelClassVariable": {"href": "/mdr/sdtm/1-8/classes/Interventions/variables/--DOSFRQ", "title": "Dosing Frequency per Interval", "type": "Class Variable"}, "parentDataset": {"href": "/mdr/sendig/ar-1-0/datasets/PR", "title": "Procedures", "type": "SDTM Dataset"}, "parentProduct": {"href": "/mdr/sendig/ar-1-0", "title": "Standard for Exchange of Nonclinical Data Implementation Guide: Animal Rule Version 1.0 (Final)", "type": "Implementation Guide"}, "rootItem": {"href": "/mdr/root/sendig/datasets/PR/variables/PRDOSFRQ", "title": "Version-agnostic anchor resource for SENDIG variable PR.PRDOSFRQ", "type": "Root Data Element"}, "self": {"href": "/mdr/sendig/ar-1-0/datasets/PR/variables/PRDOSFRQ", "title": "Dosing Frequency per Interval", "type": "SDTM Dataset Variable"}}, "core": "Perm", "description": "Usually expressed as the number of doses administered per a specific interval.", "label": "Dosing Frequency per Interval", "name": "PRDOSFRQ", "ordinal": "20", "role": "Variable Qualifier", "simpleDatatype": "Char"}, {"_links": {"modelClassVariable": {"href": "/mdr/sdtm/1-8/classes/Interventions/variables/--DOSRGM", "title": "Intended Dose Regimen", "type": "Class Variable"}, "parentDataset": {"href": "/mdr/sendig/ar-1-0/datasets/PR", "title": "Procedures", "type": "SDTM Dataset"}, "parentProduct": {"href": "/mdr/sendig/ar-1-0", "title": "Standard for Exchange of Nonclinical Data Implementation Guide: Animal Rule Version 1.0 (Final)", "type": "Implementation Guide"}, "rootItem": {"href": "/mdr/root/sendig/datasets/PR/variables/PRDOSRGM", "title": "Version-agnostic anchor resource for SENDIG variable PR.PRDOSRGM", "type": "Root Data Element"}, "self": {"href": "/mdr/sendig/ar-1-0/datasets/PR/variables/PRDOSRGM", "title": "Intended Dose Regimen", "type": "SDTM Dataset Variable"}}, "core": "Perm", "description": "Text description of the intended schedule or regimen for the procedure.", "label": "Intended Dose Regimen", "name": "PRDOSRGM", "ordinal": "21", "role": "Variable Qualifier", "simpleDatatype": "Char"}, {"_links": {"codelist": [{"href": "/mdr/root/ct/sendct/codelists/C66729", "title": "Version-agnostic anchor resource for codelist C66729", "type": "Root Value Domain"}], "modelClassVariable": {"href": "/mdr/sdtm/1-8/classes/Interventions/variables/--ROUTE", "title": "Route of Administration", "type": "Class Variable"}, "parentDataset": {"href": "/mdr/sendig/ar-1-0/datasets/PR", "title": "Procedures", "type": "SDTM Dataset"}, "parentProduct": {"href": "/mdr/sendig/ar-1-0", "title": "Standard for Exchange of Nonclinical Data Implementation Guide: Animal Rule Version 1.0 (Final)", "type": "Implementation Guide"}, "rootItem": {"href": "/mdr/root/sendig/datasets/PR/variables/PRROUTE", "title": "Version-agnostic anchor resource for SENDIG variable PR.PRROUTE", "type": "Root Data Element"}, "self": {"href": "/mdr/sendig/ar-1-0/datasets/PR/variables/PRROUTE", "title": "Route of Administration", "type": "SDTM Dataset Variable"}}, "core": "Perm", "description": "Route of administration for PRTRT.", "label": "Route of Administration", "name": "PRROUTE", "ordinal": "22", "role": "Variable Qualifier", "simpleDatatype": "Char"}, {"_links": {"codelist": [{"href": "/mdr/root/ct/sendct/codelists/C74456", "title": "Version-agnostic anchor resource for codelist C74456", "type": "Root Value Domain"}], "modelClassVariable": {"href": "/mdr/sdtm/1-8/classes/Interventions/variables/--LOC", "title": "Location of Dose Administration", "type": "Class Variable"}, "parentDataset": {"href": "/mdr/sendig/ar-1-0/datasets/PR", "title": "Procedures", "type": "SDTM Dataset"}, "parentProduct": {"href": "/mdr/sendig/ar-1-0", "title": "Standard for Exchange of Nonclinical Data Implementation Guide: Animal Rule Version 1.0 (Final)", "type": "Implementation Guide"}, "rootItem": {"href": "/mdr/root/sendig/datasets/PR/variables/PRLOC", "title": "Version-agnostic anchor resource for SENDIG variable PR.PRLOC", "type": "Root Data Element"}, "self": {"href": "/mdr/sendig/ar-1-0/datasets/PR/variables/PRLOC", "title": "Location of Procedure", "type": "SDTM Dataset Variable"}}, "core": "Perm", "description": "Anatomical location of a procedure.", "label": "Location of Procedure", "name": "PRLOC", "ordinal": "23", "role": "Record Qualifier", "simpleDatatype": "Char"}, {"_links": {"codelist": [{"href": "/mdr/root/ct/sendct/codelists/C99073", "title": "Version-agnostic anchor resource for codelist C99073", "type": "Root Value Domain"}], "modelClassVariable": {"href": "/mdr/sdtm/1-8/classes/Interventions/variables/--LAT", "title": "Laterality", "type": "Class Variable"}, "parentDataset": {"href": "/mdr/sendig/ar-1-0/datasets/PR", "title": "Procedures", "type": "SDTM Dataset"}, "parentProduct": {"href": "/mdr/sendig/ar-1-0", "title": "Standard for Exchange of Nonclinical Data Implementation Guide: Animal Rule Version 1.0 (Final)", "type": "Implementation Guide"}, "rootItem": {"href": "/mdr/root/sendig/datasets/PR/variables/PRLAT", "title": "Version-agnostic anchor resource for SENDIG variable PR.PRLAT", "type": "Root Data Element"}, "self": {"href": "/mdr/sendig/ar-1-0/datasets/PR/variables/PRLAT", "title": "Laterality", "type": "SDTM Dataset Variable"}}, "core": "Perm", "description": "Qualifier for anatomical location or specimen further detailing laterality.", "label": "Laterality", "name": "PRLAT", "ordinal": "24", "role": "Variable Qualifier", "simpleDatatype": "Char"}, {"_links": {"codelist": [{"href": "/mdr/root/ct/sendct/codelists/C99074", "title": "Version-agnostic anchor resource for codelist C99074", "type": "Root Value Domain"}], "modelClassVariable": {"href": "/mdr/sdtm/1-8/classes/Interventions/variables/--DIR", "title": "Directionality", "type": "Class Variable"}, "parentDataset": {"href": "/mdr/sendig/ar-1-0/datasets/PR", "title": "Procedures", "type": "SDTM Dataset"}, "parentProduct": {"href": "/mdr/sendig/ar-1-0", "title": "Standard for Exchange of Nonclinical Data Implementation Guide: Animal Rule Version 1.0 (Final)", "type": "Implementation Guide"}, "rootItem": {"href": "/mdr/root/sendig/datasets/PR/variables/PRDIR", "title": "Version-agnostic anchor resource for SENDIG variable PR.PRDIR", "type": "Root Data Element"}, "self": {"href": "/mdr/sendig/ar-1-0/datasets/PR/variables/PRDIR", "title": "Directionality", "type": "SDTM Dataset Variable"}}, "core": "Perm", "description": "Qualifier for anatomical location or specimen further detailing directionality.", "label": "Directionality", "name": "PRDIR", "ordinal": "25", "role": "Variable Qualifier", "simpleDatatype": "Char"}, {"_links": {"codelist": [{"href": "/mdr/root/ct/sendct/codelists/C99075", "title": "Version-agnostic anchor resource for codelist C99075", "type": "Root Value Domain"}], "modelClassVariable": {"href": "/mdr/sdtm/1-8/classes/Interventions/variables/--PORTOT", "title": "Portion or Totality", "type": "Class Variable"}, "parentDataset": {"href": "/mdr/sendig/ar-1-0/datasets/PR", "title": "Procedures", "type": "SDTM Dataset"}, "parentProduct": {"href": "/mdr/sendig/ar-1-0", "title": "Standard for Exchange of Nonclinical Data Implementation Guide: Animal Rule Version 1.0 (Final)", "type": "Implementation Guide"}, "rootItem": {"href": "/mdr/root/sendig/datasets/PR/variables/PRPORTOT", "title": "Version-agnostic anchor resource for SENDIG variable PR.PRPORTOT", "type": "Root Data Element"}, "self": {"href": "/mdr/sendig/ar-1-0/datasets/PR/variables/PRPORTOT", "title": "Portion or Totality", "type": "SDTM Dataset Variable"}}, "core": "Perm", "description": "Qualifier for anatomical location or specimen further detailing the portion or totality, which means arrangement of, or apportioning of an entity.", "label": "Portion or Totality", "name": "PRPORTOT", "ordinal": "26", "role": "Variable Qualifier", "simpleDatatype": "Char"}, {"_links": {"codelist": [{"href": "/mdr/root/ct/sendct/codelists/C66742", "title": "Version-agnostic anchor resource for codelist C66742", "type": "Root Value Domain"}], "modelClassVariable": {"href": "/mdr/sdtm/1-8/classes/Interventions/variables/--RSTIND", "title": "Restraint Indicator", "type": "Class Variable"}, "parentDataset": {"href": "/mdr/sendig/ar-1-0/datasets/PR", "title": "Procedures", "type": "SDTM Dataset"}, "parentProduct": {"href": "/mdr/sendig/ar-1-0", "title": "Standard for Exchange of Nonclinical Data Implementation Guide: Animal Rule Version 1.0 (Final)", "type": "Implementation Guide"}, "rootItem": {"href": "/mdr/root/sendig/datasets/PR/variables/PRRSTIND", "title": "Version-agnostic anchor resource for SENDIG variable PR.PRRSTIND", "type": "Root Data Element"}, "self": {"href": "/mdr/sendig/ar-1-0/datasets/PR/variables/PRRSTIND", "title": "Restraint Indicator", "type": "SDTM Dataset Variable"}}, "core": "Exp", "description": "An indicator as to whether the subject was restrained during the intervention period.", "label": "Restraint Indicator", "name": "PRRSTIND", "ordinal": "27", "role": "Record Qualifier", "simpleDatatype": "Char"}, {"_links": {"codelist": [{"href": "/mdr/root/ct/sendct/codelists/C158123", "title": "Version-agnostic anchor resource for codelist C158123", "type": "Root Value Domain"}], "modelClassVariable": {"href": "/mdr/sdtm/1-8/classes/Interventions/variables/--RSTMOD", "title": "Restraint Mode", "type": "Class Variable"}, "parentDataset": {"href": "/mdr/sendig/ar-1-0/datasets/PR", "title": "Procedures", "type": "SDTM Dataset"}, "parentProduct": {"href": "/mdr/sendig/ar-1-0", "title": "Standard for Exchange of Nonclinical Data Implementation Guide: Animal Rule Version 1.0 (Final)", "type": "Implementation Guide"}, "rootItem": {"href": "/mdr/root/sendig/datasets/PR/variables/PRRSTMOD", "title": "Version-agnostic anchor resource for SENDIG variable PR.PRRSTMOD", "type": "Root Data Element"}, "self": {"href": "/mdr/sendig/ar-1-0/datasets/PR/variables/PRRSTMOD", "title": "Restraint Mode", "type": "SDTM Dataset Variable"}}, "core": "Exp", "description": "A description of whether the restraint was physical and/or chemical.", "label": "Restraint Mode", "name": "PRRSTMOD", "ordinal": "28", "role": "Record Qualifier", "simpleDatatype": "Char"}, {"_links": {"modelClassVariable": {"href": "/mdr/sdtm/1-8/classes/GeneralObservations/variables/--STDTC", "title": "Start Date/Time of Observation", "type": "Class Variable"}, "parentDataset": {"href": "/mdr/sendig/ar-1-0/datasets/PR", "title": "Procedures", "type": "SDTM Dataset"}, "parentProduct": {"href": "/mdr/sendig/ar-1-0", "title": "Standard for Exchange of Nonclinical Data Implementation Guide: Animal Rule Version 1.0 (Final)", "type": "Implementation Guide"}, "rootItem": {"href": "/mdr/root/sendig/datasets/PR/variables/PRSTDTC", "title": "Version-agnostic anchor resource for SENDIG variable PR.PRSTDTC", "type": "Root Data Element"}, "self": {"href": "/mdr/sendig/ar-1-0/datasets/PR/variables/PRSTDTC", "title": "Start Date/Time of Procedure", "type": "SDTM Dataset Variable"}}, "core": "Exp", "describedValueDomain": "ISO 8601", "description": "Start date/time of the procedure represented in ISO 8601 character format.", "label": "Start Date/Time of Procedure", "name": "PRSTDTC", "ordinal": "29", "role": "Timing", "simpleDatatype": "Char"}, {"_links": {"modelClassVariable": {"href": "/mdr/sdtm/1-8/classes/GeneralObservations/variables/--ENDTC", "title": "End Date/Time of Observation", "type": "Class Variable"}, "parentDataset": {"href": "/mdr/sendig/ar-1-0/datasets/PR", "title": "Procedures", "type": "SDTM Dataset"}, "parentProduct": {"href": "/mdr/sendig/ar-1-0", "title": "Standard for Exchange of Nonclinical Data Implementation Guide: Animal Rule Version 1.0 (Final)", "type": "Implementation Guide"}, "rootItem": {"href": "/mdr/root/sendig/datasets/PR/variables/PRENDTC", "title": "Version-agnostic anchor resource for SENDIG variable PR.PRENDTC", "type": "Root Data Element"}, "self": {"href": "/mdr/sendig/ar-1-0/datasets/PR/variables/PRENDTC", "title": "End Date/Time of Procedure", "type": "SDTM Dataset Variable"}}, "core": "Perm", "describedValueDomain": "ISO 8601", "description": "End date/time of the procedure represented in ISO 8601 character format.", "label": "End Date/Time of Procedure", "name": "PRENDTC", "ordinal": "30", "role": "Timing", "simpleDatatype": "Char"}, {"_links": {"modelClassVariable": {"href": "/mdr/sdtm/1-8/classes/GeneralObservations/variables/--STDY", "title": "Study Day of Start of Observation", "type": "Class Variable"}, "parentDataset": {"href": "/mdr/sendig/ar-1-0/datasets/PR", "title": "Procedures", "type": "SDTM Dataset"}, "parentProduct": {"href": "/mdr/sendig/ar-1-0", "title": "Standard for Exchange of Nonclinical Data Implementation Guide: Animal Rule Version 1.0 (Final)", "type": "Implementation Guide"}, "rootItem": {"href": "/mdr/root/sendig/datasets/PR/variables/PRSTDY", "title": "Version-agnostic anchor resource for SENDIG variable PR.PRSTDY", "type": "Root Data Element"}, "self": {"href": "/mdr/sendig/ar-1-0/datasets/PR/variables/PRSTDY", "title": "Study Day of Start of Procedure", "type": "SDTM Dataset Variable"}}, "core": "Perm", "description": "Study day of start of procedure expressed in integer days relative to the sponsor-defined RFSTDTC in Demographics.", "label": "Study Day of Start of Procedure", "name": "PRSTDY", "ordinal": "31", "role": "Timing", "simpleDatatype": "Num"}, {"_links": {"modelClassVariable": {"href": "/mdr/sdtm/1-8/classes/GeneralObservations/variables/--ENDY", "title": "Study Day of End of Observation", "type": "Class Variable"}, "parentDataset": {"href": "/mdr/sendig/ar-1-0/datasets/PR", "title": "Procedures", "type": "SDTM Dataset"}, "parentProduct": {"href": "/mdr/sendig/ar-1-0", "title": "Standard for Exchange of Nonclinical Data Implementation Guide: Animal Rule Version 1.0 (Final)", "type": "Implementation Guide"}, "rootItem": {"href": "/mdr/root/sendig/datasets/PR/variables/PRENDY", "title": "Version-agnostic anchor resource for SENDIG variable PR.PRENDY", "type": "Root Data Element"}, "self": {"href": "/mdr/sendig/ar-1-0/datasets/PR/variables/PRENDY", "title": "Study Day of End of Procedure", "type": "SDTM Dataset Variable"}}, "core": "Perm", "description": "Study day of end of procedure expressed in integer days relative to the sponsor-defined RFSTDTC in Demographics.", "label": "Study Day of End of Procedure", "name": "PRENDY", "ordinal": "32", "role": "Timing", "simpleDatatype": "Num"}, {"_links": {"modelClassVariable": {"href": "/mdr/sdtm/1-8/classes/GeneralObservations/variables/--NOMDY", "title": "Nominal Study Day for Tabulations", "type": "Class Variable"}, "parentDataset": {"href": "/mdr/sendig/ar-1-0/datasets/PR", "title": "Procedures", "type": "SDTM Dataset"}, "parentProduct": {"href": "/mdr/sendig/ar-1-0", "title": "Standard for Exchange of Nonclinical Data Implementation Guide: Animal Rule Version 1.0 (Final)", "type": "Implementation Guide"}, "rootItem": {"href": "/mdr/root/sendig/datasets/PR/variables/PRNOMDY", "title": "Version-agnostic anchor resource for SENDIG variable PR.PRNOMDY", "type": "Root Data Element"}, "self": {"href": "/mdr/sendig/ar-1-0/datasets/PR/variables/PRNOMDY", "title": "Nominal Study Day for Tabulations", "type": "SDTM Dataset Variable"}}, "core": "Exp", "description": "Nominal study day used for grouping records for observations that may occur on different days into a single reported study day. Should be an integer.", "label": "Nominal Study Day for Tabulations", "name": "PRNOMDY", "ordinal": "33", "role": "Timing", "simpleDatatype": "Num"}, {"_links": {"modelClassVariable": {"href": "/mdr/sdtm/1-8/classes/GeneralObservations/variables/--NOMLBL", "title": "Label for Nominal Study Day", "type": "Class Variable"}, "parentDataset": {"href": "/mdr/sendig/ar-1-0/datasets/PR", "title": "Procedures", "type": "SDTM Dataset"}, "parentProduct": {"href": "/mdr/sendig/ar-1-0", "title": "Standard for Exchange of Nonclinical Data Implementation Guide: Animal Rule Version 1.0 (Final)", "type": "Implementation Guide"}, "rootItem": {"href": "/mdr/root/sendig/datasets/PR/variables/PRNOMLBL", "title": "Version-agnostic anchor resource for SENDIG variable PR.PRNOMLBL", "type": "Root Data Element"}, "self": {"href": "/mdr/sendig/ar-1-0/datasets/PR/variables/PRNOMLBL", "title": "Label for Nominal Study Day", "type": "SDTM Dataset Variable"}}, "core": "Perm", "description": "A label for a given value of PRNOMDY as presented in the study report. Examples: \"Week 4\", \"Day 28\".", "label": "Label for Nominal Study Day", "name": "PRNOMLBL", "ordinal": "34", "role": "Timing", "simpleDatatype": "Char"}, {"_links": {"modelClassVariable": {"href": "/mdr/sdtm/1-8/classes/GeneralObservations/variables/--XSTDY", "title": "Start Day of Obs Relative to Exposure", "type": "Class Variable"}, "parentDataset": {"href": "/mdr/sendig/ar-1-0/datasets/PR", "title": "Procedures", "type": "SDTM Dataset"}, "parentProduct": {"href": "/mdr/sendig/ar-1-0", "title": "Standard for Exchange of Nonclinical Data Implementation Guide: Animal Rule Version 1.0 (Final)", "type": "Implementation Guide"}, "rootItem": {"href": "/mdr/root/sendig/datasets/PR/variables/PRXSTDY", "title": "Version-agnostic anchor resource for SENDIG variable PR.PRXSTDY", "type": "Root Data Element"}, "self": {"href": "/mdr/sendig/ar-1-0/datasets/PR/variables/PRXSTDY", "title": "Start Day of Proc Rel to Exposure", "type": "SDTM Dataset Variable"}}, "core": "Exp", "description": "Day of start of procedure relative to the first date of exposure to study treatment (RFXSTDTC in Demographics). Must be an integer.", "label": "Start Day of Proc Rel to Exposure", "name": "PRXSTDY", "ordinal": "35", "role": "Timing", "simpleDatatype": "Num"}, {"_links": {"modelClassVariable": {"href": "/mdr/sdtm/1-8/classes/GeneralObservations/variables/--XENDY", "title": "End Day of Obs Relative to Exposure", "type": "Class Variable"}, "parentDataset": {"href": "/mdr/sendig/ar-1-0/datasets/PR", "title": "Procedures", "type": "SDTM Dataset"}, "parentProduct": {"href": "/mdr/sendig/ar-1-0", "title": "Standard for Exchange of Nonclinical Data Implementation Guide: Animal Rule Version 1.0 (Final)", "type": "Implementation Guide"}, "rootItem": {"href": "/mdr/root/sendig/datasets/PR/variables/PRXENDY", "title": "Version-agnostic anchor resource for SENDIG variable PR.PRXENDY", "type": "Root Data Element"}, "self": {"href": "/mdr/sendig/ar-1-0/datasets/PR/variables/PRXENDY", "title": "End Day of Proc Rel to Exposure", "type": "SDTM Dataset Variable"}}, "core": "Perm", "description": "Day of end of procedure relative to the first date of exposure to study treatment (RFXSTDTC in Demographics). Must be an integer.", "label": "End Day of Proc Rel to Exposure", "name": "PRXENDY", "ordinal": "36", "role": "Timing", "simpleDatatype": "Num"}, {"_links": {"modelClassVariable": {"href": "/mdr/sdtm/1-8/classes/GeneralObservations/variables/--CHSTDY", "title": "Start Day of Obs Rel to Challenge Agent", "type": "Class Variable"}, "parentDataset": {"href": "/mdr/sendig/ar-1-0/datasets/PR", "title": "Procedures", "type": "SDTM Dataset"}, "parentProduct": {"href": "/mdr/sendig/ar-1-0", "title": "Standard for Exchange of Nonclinical Data Implementation Guide: Animal Rule Version 1.0 (Final)", "type": "Implementation Guide"}, "rootItem": {"href": "/mdr/root/sendig/datasets/PR/variables/PRCHSTDY", "title": "Version-agnostic anchor resource for SENDIG variable PR.PRCHSTDY", "type": "Root Data Element"}, "self": {"href": "/mdr/sendig/ar-1-0/datasets/PR/variables/PRCHSTDY", "title": "Start Day of Proc Rel to Chall Agent", "type": "SDTM Dataset Variable"}}, "core": "Exp", "description": "Day of start of procedure relative to the first date of exposure to challenge agent (RFCSTDTC in Demographics). Must be an integer.", "label": "Start Day of Proc Rel to Chall Agent", "name": "PRCHSTDY", "ordinal": "37", "role": "Timing", "simpleDatatype": "Num"}, {"_links": {"modelClassVariable": {"href": "/mdr/sdtm/1-8/classes/GeneralObservations/variables/--CHENDY", "title": "End Day of Obs Rel to Challenge Agent", "type": "Class Variable"}, "parentDataset": {"href": "/mdr/sendig/ar-1-0/datasets/PR", "title": "Procedures", "type": "SDTM Dataset"}, "parentProduct": {"href": "/mdr/sendig/ar-1-0", "title": "Standard for Exchange of Nonclinical Data Implementation Guide: Animal Rule Version 1.0 (Final)", "type": "Implementation Guide"}, "rootItem": {"href": "/mdr/root/sendig/datasets/PR/variables/PRCHENDY", "title": "Version-agnostic anchor resource for SENDIG variable PR.PRCHENDY", "type": "Root Data Element"}, "self": {"href": "/mdr/sendig/ar-1-0/datasets/PR/variables/PRCHENDY", "title": "End Day of Proc Rel to Chall Agent", "type": "SDTM Dataset Variable"}}, "core": "Perm", "description": "Day of end of procedure relative to the first date of exposure to challenge agent (RFCSTDTC in Demographics). Must be an integer.", "label": "End Day of Proc Rel to Chall Agent", "name": "PRCHENDY", "ordinal": "38", "role": "Timing", "simpleDatatype": "Num"}, {"_links": {"modelClassVariable": {"href": "/mdr/sdtm/1-8/classes/GeneralObservations/variables/--DUR", "title": "Duration", "type": "Class Variable"}, "parentDataset": {"href": "/mdr/sendig/ar-1-0/datasets/PR", "title": "Procedures", "type": "SDTM Dataset"}, "parentProduct": {"href": "/mdr/sendig/ar-1-0", "title": "Standard for Exchange of Nonclinical Data Implementation Guide: Animal Rule Version 1.0 (Final)", "type": "Implementation Guide"}, "rootItem": {"href": "/mdr/root/sendig/datasets/PR/variables/PRDUR", "title": "Version-agnostic anchor resource for SENDIG variable PR.PRDUR", "type": "Root Data Element"}, "self": {"href": "/mdr/sendig/ar-1-0/datasets/PR/variables/PRDUR", "title": "Duration of Procedure", "type": "SDTM Dataset Variable"}}, "core": "Perm", "describedValueDomain": "ISO 8601", "description": "Collected duration of a procedure represented in ISO 8601 character format. Used only if collected, and not derived from start and end date/times.", "label": "Duration of Procedure", "name": "PRDUR", "ordinal": "39", "role": "Timing", "simpleDatatype": "Char"}, {"_links": {"modelClassVariable": {"href": "/mdr/sdtm/1-8/classes/GeneralObservations/variables/--TPT", "title": "Planned Time Point Name", "type": "Class Variable"}, "parentDataset": {"href": "/mdr/sendig/ar-1-0/datasets/PR", "title": "Procedures", "type": "SDTM Dataset"}, "parentProduct": {"href": "/mdr/sendig/ar-1-0", "title": "Standard for Exchange of Nonclinical Data Implementation Guide: Animal Rule Version 1.0 (Final)", "type": "Implementation Guide"}, "rootItem": {"href": "/mdr/root/sendig/datasets/PR/variables/PRTPT", "title": "Version-agnostic anchor resource for SENDIG variable PR.PRTPT", "type": "Root Data Element"}, "self": {"href": "/mdr/sendig/ar-1-0/datasets/PR/variables/PRTPT", "title": "Planned Time Point Name", "type": "SDTM Dataset Variable"}}, "core": "Perm", "description": "Text description of time when a procedure should be performed. This may be represented as an elapsed time relative to a fixed reference point, such as time of last dose. See PRTPTNUM and PRTPTREF.", "label": "Planned Time Point Name", "name": "PRTPT", "ordinal": "40", "role": "Timing", "simpleDatatype": "Char"}, {"_links": {"modelClassVariable": {"href": "/mdr/sdtm/1-8/classes/GeneralObservations/variables/--TPTNUM", "title": "Planned Time Point Number", "type": "Class Variable"}, "parentDataset": {"href": "/mdr/sendig/ar-1-0/datasets/PR", "title": "Procedures", "type": "SDTM Dataset"}, "parentProduct": {"href": "/mdr/sendig/ar-1-0", "title": "Standard for Exchange of Nonclinical Data Implementation Guide: Animal Rule Version 1.0 (Final)", "type": "Implementation Guide"}, "rootItem": {"href": "/mdr/root/sendig/datasets/PR/variables/PRTPTNUM", "title": "Version-agnostic anchor resource for SENDIG variable PR.PRTPTNUM", "type": "Root Data Element"}, "self": {"href": "/mdr/sendig/ar-1-0/datasets/PR/variables/PRTPTNUM", "title": "Planned Time Point Number", "type": "SDTM Dataset Variable"}}, "core": "Perm", "description": "Numerical version of planned time point used in sorting.", "label": "Planned Time Point Number", "name": "PRTPTNUM", "ordinal": "41", "role": "Timing", "simpleDatatype": "Num"}, {"_links": {"modelClassVariable": {"href": "/mdr/sdtm/1-8/classes/GeneralObservations/variables/--ELTM", "title": "Planned Elapsed Time from Time Point Ref", "type": "Class Variable"}, "parentDataset": {"href": "/mdr/sendig/ar-1-0/datasets/PR", "title": "Procedures", "type": "SDTM Dataset"}, "parentProduct": {"href": "/mdr/sendig/ar-1-0", "title": "Standard for Exchange of Nonclinical Data Implementation Guide: Animal Rule Version 1.0 (Final)", "type": "Implementation Guide"}, "rootItem": {"href": "/mdr/root/sendig/datasets/PR/variables/PRELTM", "title": "Version-agnostic anchor resource for SENDIG variable PR.PRELTM", "type": "Root Data Element"}, "self": {"href": "/mdr/sendig/ar-1-0/datasets/PR/variables/PRELTM", "title": "Planned Elapsed Time from Time Point Ref", "type": "SDTM Dataset Variable"}}, "core": "Perm", "describedValueDomain": "ISO 8601", "description": "Planned elapsed time in ISO 8601 format relative to a planned fixed reference (PRTPTREF). This variable is useful where there are repetitive measures. Not a clock time or a date/time variable, but an interval, represented as ISO duration.", "label": "Planned Elapsed Time from Time Point Ref", "name": "PRELTM", "ordinal": "42", "role": "Timing", "simpleDatatype": "Char"}, {"_links": {"modelClassVariable": {"href": "/mdr/sdtm/1-8/classes/GeneralObservations/variables/--TPTREF", "title": "Time Point Reference", "type": "Class Variable"}, "parentDataset": {"href": "/mdr/sendig/ar-1-0/datasets/PR", "title": "Procedures", "type": "SDTM Dataset"}, "parentProduct": {"href": "/mdr/sendig/ar-1-0", "title": "Standard for Exchange of Nonclinical Data Implementation Guide: Animal Rule Version 1.0 (Final)", "type": "Implementation Guide"}, "rootItem": {"href": "/mdr/root/sendig/datasets/PR/variables/PRTPTREF", "title": "Version-agnostic anchor resource for SENDIG variable PR.PRTPTREF", "type": "Root Data Element"}, "self": {"href": "/mdr/sendig/ar-1-0/datasets/PR/variables/PRTPTREF", "title": "Time Point Reference", "type": "SDTM Dataset Variable"}}, "core": "Perm", "description": "Description of the fixed reference point referred to by PRELTM, PRTPTNUM, and PRTPT.", "label": "Time Point Reference", "name": "PRTPTREF", "ordinal": "43", "role": "Timing", "simpleDatatype": "Char"}, {"_links": {"modelClassVariable": {"href": "/mdr/sdtm/1-8/classes/GeneralObservations/variables/--RFTDTC", "title": "Date/Time of Reference Time Point", "type": "Class Variable"}, "parentDataset": {"href": "/mdr/sendig/ar-1-0/datasets/PR", "title": "Procedures", "type": "SDTM Dataset"}, "parentProduct": {"href": "/mdr/sendig/ar-1-0", "title": "Standard for Exchange of Nonclinical Data Implementation Guide: Animal Rule Version 1.0 (Final)", "type": "Implementation Guide"}, "rootItem": {"href": "/mdr/root/sendig/datasets/PR/variables/PRRFTDTC", "title": "Version-agnostic anchor resource for SENDIG variable PR.PRRFTDTC", "type": "Root Data Element"}, "self": {"href": "/mdr/sendig/ar-1-0/datasets/PR/variables/PRRFTDTC", "title": "Date/Time of Reference Time Point", "type": "SDTM Dataset Variable"}}, "core": "Perm", "describedValueDomain": "ISO 8601", "description": "Date/time for a fixed reference time point defined by PRTRTREF in ISO 8601 character format.", "label": "Date/Time of Reference Time Point", "name": "PRRFTDTC", "ordinal": "44", "role": "Timing", "simpleDatatype": "Char"}], "label": "Procedures", "name": "PR", "ordinal": "4"}
