{"_links": {"parentProduct": {"href": "/mdr/sdtm/1-3", "title": "Study Data Tabulation Model Version 1.3", "type": "Foundational Model"}, "priorVersion": {"href": "/mdr/sdtm/1-2/classes/SpecialPurpose", "title": "Special-Purpose Datasets", "type": "Class"}, "self": {"href": "/mdr/sdtm/1-3/classes/SpecialPurpose", "title": "Special-Purpose Datasets", "type": "Class"}}, "datasets": [{"_links": {"parentClass": {"href": "/mdr/sdtm/1-3/classes/SpecialPurpose", "title": "Special-Purpose Datasets", "type": "Class"}, "parentProduct": {"href": "/mdr/sdtm/1-3", "title": "Study Data Tabulation Model Version 1.3", "type": "Foundational Model"}, "priorVersion": {"href": "/mdr/sdtm/1-2/datasets/DM", "title": "Subject Demographics", "type": "SDTM Dataset"}, "self": {"href": "/mdr/sdtm/1-3/datasets/DM", "title": "Subject Demographics", "type": "SDTM Dataset"}}, "datasetVariables": [{"_links": {"parentDataset": {"href": "/mdr/sdtm/1-3/datasets/DM", "title": "Subject Demographics", "type": "SDTM Dataset"}, "parentProduct": {"href": "/mdr/sdtm/1-3", "title": "Study Data Tabulation Model Version 1.3", "type": "Foundational Model"}, "priorVersion": {"href": "/mdr/sdtm/1-2/datasets/DM/variables/STUDYID", "title": "Study Identifier", "type": "SDTM Dataset Variable"}, "rootItem": {"href": "/mdr/root/sdtm/datasets/DM/variables/STUDYID", "title": "Version-agnostic anchor resource for SDTM variable DM.STUDYID", "type": "Root Data Element"}, "self": {"href": "/mdr/sdtm/1-3/datasets/DM/variables/STUDYID", "title": "Study Identifier", "type": "SDTM Dataset Variable"}}, "description": "Unique identifier for a study.", "label": "Study Identifier", "name": "STUDYID", "ordinal": "1", "role": "Identifier", "roleDescription": "Identifier", "simpleDatatype": "Char"}, {"_links": {"parentDataset": {"href": "/mdr/sdtm/1-3/datasets/DM", "title": "Subject Demographics", "type": "SDTM Dataset"}, "parentProduct": {"href": "/mdr/sdtm/1-3", "title": "Study Data Tabulation Model Version 1.3", "type": "Foundational Model"}, "priorVersion": {"href": "/mdr/sdtm/1-2/datasets/DM/variables/DOMAIN", "title": "Domain Abbreviation", "type": "SDTM Dataset Variable"}, "rootItem": {"href": "/mdr/root/sdtm/datasets/DM/variables/DOMAIN", "title": "Version-agnostic anchor resource for SDTM variable DM.DOMAIN", "type": "Root Data Element"}, "self": {"href": "/mdr/sdtm/1-3/datasets/DM/variables/DOMAIN", "title": "Domain Abbreviation", "type": "SDTM Dataset Variable"}}, "description": "Two-character abbreviation for the domain which must be DM.", "label": "Domain Abbreviation", "name": "DOMAIN", "ordinal": "2", "role": "Identifier", "roleDescription": "Identifier", "simpleDatatype": "Char"}, {"_links": {"parentDataset": {"href": "/mdr/sdtm/1-3/datasets/DM", "title": "Subject Demographics", "type": "SDTM Dataset"}, "parentProduct": {"href": "/mdr/sdtm/1-3", "title": "Study Data Tabulation Model Version 1.3", "type": "Foundational Model"}, "priorVersion": {"href": "/mdr/sdtm/1-2/datasets/DM/variables/USUBJID", "title": "Unique Subject Identifier", "type": "SDTM Dataset Variable"}, "rootItem": {"href": "/mdr/root/sdtm/datasets/DM/variables/USUBJID", "title": "Version-agnostic anchor resource for SDTM variable DM.USUBJID", "type": "Root Data Element"}, "self": {"href": "/mdr/sdtm/1-3/datasets/DM/variables/USUBJID", "title": "Unique Subject Identifier", "type": "SDTM Dataset Variable"}}, "description": "Identifier used to uniquely identify a subject across all studies for all applications or submissions involving the product.", "label": "Unique Subject Identifier", "name": "USUBJID", "ordinal": "3", "role": "Identifier", "roleDescription": "Identifier", "simpleDatatype": "Char"}, {"_links": {"parentDataset": {"href": "/mdr/sdtm/1-3/datasets/DM", "title": "Subject Demographics", "type": "SDTM Dataset"}, "parentProduct": {"href": "/mdr/sdtm/1-3", "title": "Study Data Tabulation Model Version 1.3", "type": "Foundational Model"}, "priorVersion": {"href": "/mdr/sdtm/1-2/datasets/DM/variables/SUBJID", "title": "Subject Identifier for the Study", "type": "SDTM Dataset Variable"}, "rootItem": {"href": "/mdr/root/sdtm/datasets/DM/variables/SUBJID", "title": "Version-agnostic anchor resource for SDTM variable DM.SUBJID", "type": "Root Data Element"}, "self": {"href": "/mdr/sdtm/1-3/datasets/DM/variables/SUBJID", "title": "Subject Identifier for the Study", "type": "SDTM Dataset Variable"}}, "description": "Subject identifier, which must be unique within the study. Often the ID of the subject as recorded on a CRF.", "label": "Subject Identifier for the Study", "name": "SUBJID", "ordinal": "4", "role": "Topic", "roleDescription": "Topic", "simpleDatatype": "Char"}, {"_links": {"parentDataset": {"href": "/mdr/sdtm/1-3/datasets/DM", "title": "Subject Demographics", "type": "SDTM Dataset"}, "parentProduct": {"href": "/mdr/sdtm/1-3", "title": "Study Data Tabulation Model Version 1.3", "type": "Foundational Model"}, "priorVersion": {"href": "/mdr/sdtm/1-2/datasets/DM/variables/RFSTDTC", "title": "Subject Reference Start Date/Time", "type": "SDTM Dataset Variable"}, "rootItem": {"href": "/mdr/root/sdtm/datasets/DM/variables/RFSTDTC", "title": "Version-agnostic anchor resource for SDTM variable DM.RFSTDTC", "type": "Root Data Element"}, "self": {"href": "/mdr/sdtm/1-3/datasets/DM/variables/RFSTDTC", "title": "Subject Reference Start Date/Time", "type": "SDTM Dataset Variable"}}, "description": "Reference Start Date/time for the subject in ISO 8601 character format. Usually equivalent to date/time when subject was first exposed to study treatment. Required for all randomized subjects; will be null for all subjects who did not meet the milestone the date requires, such as screen failures or unassigned subjects.", "label": "Subject Reference Start Date/Time", "name": "RFSTDTC", "ordinal": "5", "role": "Qualifier", "roleDescription": "Qualifier", "simpleDatatype": "Char"}, {"_links": {"parentDataset": {"href": "/mdr/sdtm/1-3/datasets/DM", "title": "Subject Demographics", "type": "SDTM Dataset"}, "parentProduct": {"href": "/mdr/sdtm/1-3", "title": "Study Data Tabulation Model Version 1.3", "type": "Foundational Model"}, "priorVersion": {"href": "/mdr/sdtm/1-2/datasets/DM/variables/RFENDTC", "title": "Subject Reference End Date/Time", "type": "SDTM Dataset Variable"}, "rootItem": {"href": "/mdr/root/sdtm/datasets/DM/variables/RFENDTC", "title": "Version-agnostic anchor resource for SDTM variable DM.RFENDTC", "type": "Root Data Element"}, "self": {"href": "/mdr/sdtm/1-3/datasets/DM/variables/RFENDTC", "title": "Subject Reference End Date/Time", "type": "SDTM Dataset Variable"}}, "description": "Reference End Date/time for the subject in ISO 8601 character format. Usually equivalent to the date/time when subject was determined to have ended the trial, and often equivalent to date/time of last exposure to study treatment. Required for all randomized subjects; null for screen failures or unassigned subjects.", "label": "Subject Reference End Date/Time", "name": "RFENDTC", "ordinal": "6", "role": "Qualifier", "roleDescription": "Qualifier", "simpleDatatype": "Char"}, {"_links": {"parentDataset": {"href": "/mdr/sdtm/1-3/datasets/DM", "title": "Subject Demographics", "type": "SDTM Dataset"}, "parentProduct": {"href": "/mdr/sdtm/1-3", "title": "Study Data Tabulation Model Version 1.3", "type": "Foundational Model"}, "rootItem": {"href": "/mdr/root/sdtm/datasets/DM/variables/RFXSTDTC", "title": "Version-agnostic anchor resource for SDTM variable DM.RFXSTDTC", "type": "Root Data Element"}, "self": {"href": "/mdr/sdtm/1-3/datasets/DM/variables/RFXSTDTC", "title": "Date/Time of First Study Treatment", "type": "SDTM Dataset Variable"}}, "description": "First date/time of exposure to any protocol-specified treatment or therapy for the subject in ISO 8601 character format.", "label": "Date/Time of First Study Treatment", "name": "RFXSTDTC", "ordinal": "7", "role": "Qualifier", "roleDescription": "Qualifier", "simpleDatatype": "Char"}, {"_links": {"parentDataset": {"href": "/mdr/sdtm/1-3/datasets/DM", "title": "Subject Demographics", "type": "SDTM Dataset"}, "parentProduct": {"href": "/mdr/sdtm/1-3", "title": "Study Data Tabulation Model Version 1.3", "type": "Foundational Model"}, "rootItem": {"href": "/mdr/root/sdtm/datasets/DM/variables/RFXENDTC", "title": "Version-agnostic anchor resource for SDTM variable DM.RFXENDTC", "type": "Root Data Element"}, "self": {"href": "/mdr/sdtm/1-3/datasets/DM/variables/RFXENDTC", "title": "Date/Time of Last Study Treatment", "type": "SDTM Dataset Variable"}}, "description": "Last date/time of exposure to any protocol-specified treatment or therapy for the subject in ISO 8601 character format.", "label": "Date/Time of Last Study Treatment", "name": "RFXENDTC", "ordinal": "8", "role": "Qualifier", "roleDescription": "Qualifier", "simpleDatatype": "Char"}, {"_links": {"parentDataset": {"href": "/mdr/sdtm/1-3/datasets/DM", "title": "Subject Demographics", "type": "SDTM Dataset"}, "parentProduct": {"href": "/mdr/sdtm/1-3", "title": "Study Data Tabulation Model Version 1.3", "type": "Foundational Model"}, "rootItem": {"href": "/mdr/root/sdtm/datasets/DM/variables/RFICDTC", "title": "Version-agnostic anchor resource for SDTM variable DM.RFICDTC", "type": "Root Data Element"}, "self": {"href": "/mdr/sdtm/1-3/datasets/DM/variables/RFICDTC", "title": "Date/Time of Informed Consent", "type": "SDTM Dataset Variable"}}, "description": "Date/time of informed consent in ISO 8601 character format.", "label": "Date/Time of Informed Consent", "name": "RFICDTC", "ordinal": "9", "role": "Qualifier", "roleDescription": "Qualifier", "simpleDatatype": "Char"}, {"_links": {"parentDataset": {"href": "/mdr/sdtm/1-3/datasets/DM", "title": "Subject Demographics", "type": "SDTM Dataset"}, "parentProduct": {"href": "/mdr/sdtm/1-3", "title": "Study Data Tabulation Model Version 1.3", "type": "Foundational Model"}, "rootItem": {"href": "/mdr/root/sdtm/datasets/DM/variables/RFPENDTC", "title": "Version-agnostic anchor resource for SDTM variable DM.RFPENDTC", "type": "Root Data Element"}, "self": {"href": "/mdr/sdtm/1-3/datasets/DM/variables/RFPENDTC", "title": "Date/Time of End of Participation", "type": "SDTM Dataset Variable"}}, "description": "Date/time when subject ended participation or follow-up in a trial, in ISO 8601 character format. Should correspond to the last known date of contact.", "label": "Date/Time of End of Participation", "name": "RFPENDTC", "ordinal": "10", "role": "Qualifier", "roleDescription": "Qualifier", "simpleDatatype": "Char"}, {"_links": {"parentDataset": {"href": "/mdr/sdtm/1-3/datasets/DM", "title": "Subject Demographics", "type": "SDTM Dataset"}, "parentProduct": {"href": "/mdr/sdtm/1-3", "title": "Study Data Tabulation Model Version 1.3", "type": "Foundational Model"}, "rootItem": {"href": "/mdr/root/sdtm/datasets/DM/variables/DTHDTC", "title": "Version-agnostic anchor resource for SDTM variable DM.DTHDTC", "type": "Root Data Element"}, "self": {"href": "/mdr/sdtm/1-3/datasets/DM/variables/DTHDTC", "title": "Date/Time of Death", "type": "SDTM Dataset Variable"}}, "description": "Date/time of death for any subject who died, in ISO 8601 format. Should represent the date/time that is captured in the clinical-trial database.", "label": "Date/Time of Death", "name": "DTHDTC", "ordinal": "11", "role": "Qualifier", "roleDescription": "Qualifier", "simpleDatatype": "Char"}, {"_links": {"parentDataset": {"href": "/mdr/sdtm/1-3/datasets/DM", "title": "Subject Demographics", "type": "SDTM Dataset"}, "parentProduct": {"href": "/mdr/sdtm/1-3", "title": "Study Data Tabulation Model Version 1.3", "type": "Foundational Model"}, "rootItem": {"href": "/mdr/root/sdtm/datasets/DM/variables/DTHFL", "title": "Version-agnostic anchor resource for SDTM variable DM.DTHFL", "type": "Root Data Element"}, "self": {"href": "/mdr/sdtm/1-3/datasets/DM/variables/DTHFL", "title": "Subject Death Flag", "type": "SDTM Dataset Variable"}}, "description": "A value of 'Y' indicates the subject died. Should be Y or null. Should be populated even when the death date is unknown.", "label": "Subject Death Flag", "name": "DTHFL", "ordinal": "12", "role": "Qualifier", "roleDescription": "Qualifier", "simpleDatatype": "Char"}, {"_links": {"parentDataset": {"href": "/mdr/sdtm/1-3/datasets/DM", "title": "Subject Demographics", "type": "SDTM Dataset"}, "parentProduct": {"href": "/mdr/sdtm/1-3", "title": "Study Data Tabulation Model Version 1.3", "type": "Foundational Model"}, "priorVersion": {"href": "/mdr/sdtm/1-2/datasets/DM/variables/SITEID", "title": "Study Site Identifier", "type": "SDTM Dataset Variable"}, "rootItem": {"href": "/mdr/root/sdtm/datasets/DM/variables/SITEID", "title": "Version-agnostic anchor resource for SDTM variable DM.SITEID", "type": "Root Data Element"}, "self": {"href": "/mdr/sdtm/1-3/datasets/DM/variables/SITEID", "title": "Study Site Identifier", "type": "SDTM Dataset Variable"}}, "description": "Unique identifier for a site within a study.", "label": "Study Site Identifier", "name": "SITEID", "ordinal": "13", "role": "Qualifier", "roleDescription": "Qualifier", "simpleDatatype": "Char"}, {"_links": {"parentDataset": {"href": "/mdr/sdtm/1-3/datasets/DM", "title": "Subject Demographics", "type": "SDTM Dataset"}, "parentProduct": {"href": "/mdr/sdtm/1-3", "title": "Study Data Tabulation Model Version 1.3", "type": "Foundational Model"}, "priorVersion": {"href": "/mdr/sdtm/1-2/datasets/DM/variables/INVID", "title": "Investigator Identifier", "type": "SDTM Dataset Variable"}, "rootItem": {"href": "/mdr/root/sdtm/datasets/DM/variables/INVID", "title": "Version-agnostic anchor resource for SDTM variable DM.INVID", "type": "Root Data Element"}, "self": {"href": "/mdr/sdtm/1-3/datasets/DM/variables/INVID", "title": "Investigator Identifier", "type": "SDTM Dataset Variable"}}, "description": "An identifier to describe the Investigator for the study. May be used in addition to the SITEID. Not needed if SITEID is equivalent to INVID.", "label": "Investigator Identifier", "name": "INVID", "ordinal": "14", "role": "Qualifier", "roleDescription": "Qualifier", "simpleDatatype": "Char"}, {"_links": {"parentDataset": {"href": "/mdr/sdtm/1-3/datasets/DM", "title": "Subject Demographics", "type": "SDTM Dataset"}, "parentProduct": {"href": "/mdr/sdtm/1-3", "title": "Study Data Tabulation Model Version 1.3", "type": "Foundational Model"}, "priorVersion": {"href": "/mdr/sdtm/1-2/datasets/DM/variables/INVNAM", "title": "Investigator Name", "type": "SDTM Dataset Variable"}, "rootItem": {"href": "/mdr/root/sdtm/datasets/DM/variables/INVNAM", "title": "Version-agnostic anchor resource for SDTM variable DM.INVNAM", "type": "Root Data Element"}, "self": {"href": "/mdr/sdtm/1-3/datasets/DM/variables/INVNAM", "title": "Investigator Name", "type": "SDTM Dataset Variable"}}, "description": "Unique identifier for a site within a study.", "label": "Investigator Name", "name": "INVNAM", "ordinal": "15", "role": "Qualifier", "roleDescription": "Qualifier", "simpleDatatype": "Char"}, {"_links": {"parentDataset": {"href": "/mdr/sdtm/1-3/datasets/DM", "title": "Subject Demographics", "type": "SDTM Dataset"}, "parentProduct": {"href": "/mdr/sdtm/1-3", "title": "Study Data Tabulation Model Version 1.3", "type": "Foundational Model"}, "priorVersion": {"href": "/mdr/sdtm/1-2/datasets/DM/variables/BRTHDTC", "title": "Date/Time of Birth", "type": "SDTM Dataset Variable"}, "rootItem": {"href": "/mdr/root/sdtm/datasets/DM/variables/BRTHDTC", "title": "Version-agnostic anchor resource for SDTM variable DM.BRTHDTC", "type": "Root Data Element"}, "self": {"href": "/mdr/sdtm/1-3/datasets/DM/variables/BRTHDTC", "title": "Date/Time of Birth", "type": "SDTM Dataset Variable"}}, "description": "Date/time of birth of the subject in ISO 8601 character format.", "label": "Date/Time of Birth", "name": "BRTHDTC", "ordinal": "16", "role": "Qualifier", "roleDescription": "Qualifier", "simpleDatatype": "Char"}, {"_links": {"parentDataset": {"href": "/mdr/sdtm/1-3/datasets/DM", "title": "Subject Demographics", "type": "SDTM Dataset"}, "parentProduct": {"href": "/mdr/sdtm/1-3", "title": "Study Data Tabulation Model Version 1.3", "type": "Foundational Model"}, "priorVersion": {"href": "/mdr/sdtm/1-2/datasets/DM/variables/AGE", "title": "Age", "type": "SDTM Dataset Variable"}, "rootItem": {"href": "/mdr/root/sdtm/datasets/DM/variables/AGE", "title": "Version-agnostic anchor resource for SDTM variable DM.AGE", "type": "Root Data Element"}, "self": {"href": "/mdr/sdtm/1-3/datasets/DM/variables/AGE", "title": "Age", "type": "SDTM Dataset Variable"}}, "description": "Age expressed in AGEU. May be derived as (RFSTDTC-BRTHDTC), but BRTHDTC may not be available in all cases (due to subject privacy concerns).", "label": "Age", "name": "AGE", "ordinal": "17", "role": "Qualifier", "roleDescription": "Qualifier", "simpleDatatype": "Num"}, {"_links": {"parentDataset": {"href": "/mdr/sdtm/1-3/datasets/DM", "title": "Subject Demographics", "type": "SDTM Dataset"}, "parentProduct": {"href": "/mdr/sdtm/1-3", "title": "Study Data Tabulation Model Version 1.3", "type": "Foundational Model"}, "rootItem": {"href": "/mdr/root/sdtm/datasets/DM/variables/AGETXT", "title": "Version-agnostic anchor resource for SDTM variable DM.AGETXT", "type": "Root Data Element"}, "self": {"href": "/mdr/sdtm/1-3/datasets/DM/variables/AGETXT", "title": "Age Text", "type": "SDTM Dataset Variable"}}, "description": "The age of the subject at study start, as planned, expressed as a range. If an age integer value is available, then populate the age variable instead. Either the AGE or AGETXT variable should be populated, but not both.", "label": "Age Text", "name": "AGETXT", "ordinal": "18", "role": "Qualifier", "roleDescription": "Qualifier", "simpleDatatype": "Char"}, {"_links": {"parentDataset": {"href": "/mdr/sdtm/1-3/datasets/DM", "title": "Subject Demographics", "type": "SDTM Dataset"}, "parentProduct": {"href": "/mdr/sdtm/1-3", "title": "Study Data Tabulation Model Version 1.3", "type": "Foundational Model"}, "priorVersion": {"href": "/mdr/sdtm/1-2/datasets/DM/variables/AGEU", "title": "Age Units", "type": "SDTM Dataset Variable"}, "rootItem": {"href": "/mdr/root/sdtm/datasets/DM/variables/AGEU", "title": "Version-agnostic anchor resource for SDTM variable DM.AGEU", "type": "Root Data Element"}, "self": {"href": "/mdr/sdtm/1-3/datasets/DM/variables/AGEU", "title": "Age Units", "type": "SDTM Dataset Variable"}}, "description": "Units associated with AGE or AGETXT.", "label": "Age Units", "name": "AGEU", "ordinal": "19", "role": "Qualifier", "roleDescription": "Qualifier", "simpleDatatype": "Char"}, {"_links": {"parentDataset": {"href": "/mdr/sdtm/1-3/datasets/DM", "title": "Subject Demographics", "type": "SDTM Dataset"}, "parentProduct": {"href": "/mdr/sdtm/1-3", "title": "Study Data Tabulation Model Version 1.3", "type": "Foundational Model"}, "priorVersion": {"href": "/mdr/sdtm/1-2/datasets/DM/variables/SEX", "title": "Sex", "type": "SDTM Dataset Variable"}, "rootItem": {"href": "/mdr/root/sdtm/datasets/DM/variables/SEX", "title": "Version-agnostic anchor resource for SDTM variable DM.SEX", "type": "Root Data Element"}, "self": {"href": "/mdr/sdtm/1-3/datasets/DM/variables/SEX", "title": "Sex", "type": "SDTM Dataset Variable"}}, "description": "Sex of the subject.", "label": "Sex", "name": "SEX", "ordinal": "20", "role": "Qualifier", "roleDescription": "Qualifier", "simpleDatatype": "Char"}, {"_links": {"parentDataset": {"href": "/mdr/sdtm/1-3/datasets/DM", "title": "Subject Demographics", "type": "SDTM Dataset"}, "parentProduct": {"href": "/mdr/sdtm/1-3", "title": "Study Data Tabulation Model Version 1.3", "type": "Foundational Model"}, "priorVersion": {"href": "/mdr/sdtm/1-2/datasets/DM/variables/RACE", "title": "Race", "type": "SDTM Dataset Variable"}, "rootItem": {"href": "/mdr/root/sdtm/datasets/DM/variables/RACE", "title": "Version-agnostic anchor resource for SDTM variable DM.RACE", "type": "Root Data Element"}, "self": {"href": "/mdr/sdtm/1-3/datasets/DM/variables/RACE", "title": "Race", "type": "SDTM Dataset Variable"}}, "description": "Race of the subject. Sponsors should refer to \"Collection of Race and Ethnicity Data in Clinical Trials\" (FDA, September 2005) for guidance regarding the collection of race (http://www.fda.gov/downloads/RegulatoryInformation/Guidances/ucm12639 6.pdf)", "label": "Race", "name": "RACE", "ordinal": "21", "role": "Qualifier", "roleDescription": "Qualifier", "simpleDatatype": "Char"}, {"_links": {"parentDataset": {"href": "/mdr/sdtm/1-3/datasets/DM", "title": "Subject Demographics", "type": "SDTM Dataset"}, "parentProduct": {"href": "/mdr/sdtm/1-3", "title": "Study Data Tabulation Model Version 1.3", "type": "Foundational Model"}, "priorVersion": {"href": "/mdr/sdtm/1-2/datasets/DM/variables/ETHNIC", "title": "Ethnicity", "type": "SDTM Dataset Variable"}, "rootItem": {"href": "/mdr/root/sdtm/datasets/DM/variables/ETHNIC", "title": "Version-agnostic anchor resource for SDTM variable DM.ETHNIC", "type": "Root Data Element"}, "self": {"href": "/mdr/sdtm/1-3/datasets/DM/variables/ETHNIC", "title": "Ethnicity", "type": "SDTM Dataset Variable"}}, "description": "The ethnicity of the subject. Sponsors should refer to \"Collection of Race and Ethnicity Data in Clinical Trials\" (FDA, September 2005) for guidance regarding the collection of ethnicity (http://www.fda.gov/downloads/RegulatoryInformation/Guidances/ucm12639 6.pdf)", "label": "Ethnicity", "name": "ETHNIC", "ordinal": "22", "role": "Qualifier", "roleDescription": "Qualifier", "simpleDatatype": "Char"}, {"_links": {"parentDataset": {"href": "/mdr/sdtm/1-3/datasets/DM", "title": "Subject Demographics", "type": "SDTM Dataset"}, "parentProduct": {"href": "/mdr/sdtm/1-3", "title": "Study Data Tabulation Model Version 1.3", "type": "Foundational Model"}, "rootItem": {"href": "/mdr/root/sdtm/datasets/DM/variables/SPECIES", "title": "Version-agnostic anchor resource for SDTM variable DM.SPECIES", "type": "Root Data Element"}, "self": {"href": "/mdr/sdtm/1-3/datasets/DM/variables/SPECIES", "title": "Species", "type": "SDTM Dataset Variable"}}, "description": "Used to identify the common species name of the subject (i.e., test system) under study (e.g., MOUSE, RAT, DOG, MONKEY).", "label": "Species", "name": "SPECIES", "ordinal": "23", "role": "Qualifier", "roleDescription": "Qualifier", "simpleDatatype": "Char"}, {"_links": {"parentDataset": {"href": "/mdr/sdtm/1-3/datasets/DM", "title": "Subject Demographics", "type": "SDTM Dataset"}, "parentProduct": {"href": "/mdr/sdtm/1-3", "title": "Study Data Tabulation Model Version 1.3", "type": "Foundational Model"}, "rootItem": {"href": "/mdr/root/sdtm/datasets/DM/variables/STRAIN", "title": "Version-agnostic anchor resource for SDTM variable DM.STRAIN", "type": "Root Data Element"}, "self": {"href": "/mdr/sdtm/1-3/datasets/DM/variables/STRAIN", "title": "Strain/Substrain", "type": "SDTM Dataset Variable"}}, "description": "Used to identify the vendor-supplied strain/substrain designation for the subject (i.e., test system) under study. When applicable, it combines the root strain, substrain, and associated genetic modifications, as supplied by the vendor (e.g., C57BL/6, A/J, B6.129-Pparg<tm2Rev>/J, FISCHER 344, SPRAGUE DAWLEY IGS, WISTAR Kyoto, BEAGLE, CYNOMOLGUS, CHIMPANZEE).", "label": "Strain/Substrain", "name": "STRAIN", "ordinal": "24", "role": "Qualifier", "roleDescription": "Qualifier", "simpleDatatype": "Char"}, {"_links": {"parentDataset": {"href": "/mdr/sdtm/1-3/datasets/DM", "title": "Subject Demographics", "type": "SDTM Dataset"}, "parentProduct": {"href": "/mdr/sdtm/1-3", "title": "Study Data Tabulation Model Version 1.3", "type": "Foundational Model"}, "rootItem": {"href": "/mdr/root/sdtm/datasets/DM/variables/SBSTRAIN", "title": "Version-agnostic anchor resource for SDTM variable DM.SBSTRAIN", "type": "Root Data Element"}, "self": {"href": "/mdr/sdtm/1-3/datasets/DM/variables/SBSTRAIN", "title": "Strain/Substrain Details", "type": "SDTM Dataset Variable"}}, "description": "Free-text field that allows the sponsor to enter additional details regarding the subject (i.e. test system) under study, such as a description of a specific genetic alteration.", "label": "Strain/Substrain Details", "name": "SBSTRAIN", "ordinal": "25", "role": "Qualifier", "roleDescription": "Qualifier", "simpleDatatype": "Char"}, {"_links": {"parentDataset": {"href": "/mdr/sdtm/1-3/datasets/DM", "title": "Subject Demographics", "type": "SDTM Dataset"}, "parentProduct": {"href": "/mdr/sdtm/1-3", "title": "Study Data Tabulation Model Version 1.3", "type": "Foundational Model"}, "priorVersion": {"href": "/mdr/sdtm/1-2/datasets/DM/variables/ARMCD", "title": "Planned Arm Code", "type": "SDTM Dataset Variable"}, "rootItem": {"href": "/mdr/root/sdtm/datasets/DM/variables/ARMCD", "title": "Version-agnostic anchor resource for SDTM variable DM.ARMCD", "type": "Root Data Element"}, "self": {"href": "/mdr/sdtm/1-3/datasets/DM/variables/ARMCD", "title": "Planned Arm Code", "type": "SDTM Dataset Variable"}}, "description": "Short name for the Arm to which the subject was assigned, limited to 20 characters.", "label": "Planned Arm Code", "name": "ARMCD", "ordinal": "26", "role": "Qualifier", "roleDescription": "Qualifier", "simpleDatatype": "Char"}, {"_links": {"parentDataset": {"href": "/mdr/sdtm/1-3/datasets/DM", "title": "Subject Demographics", "type": "SDTM Dataset"}, "parentProduct": {"href": "/mdr/sdtm/1-3", "title": "Study Data Tabulation Model Version 1.3", "type": "Foundational Model"}, "priorVersion": {"href": "/mdr/sdtm/1-2/datasets/DM/variables/ARM", "title": "Description of Planned Arm", "type": "SDTM Dataset Variable"}, "rootItem": {"href": "/mdr/root/sdtm/datasets/DM/variables/ARM", "title": "Version-agnostic anchor resource for SDTM variable DM.ARM", "type": "Root Data Element"}, "self": {"href": "/mdr/sdtm/1-3/datasets/DM/variables/ARM", "title": "Description of Planned Arm", "type": "SDTM Dataset Variable"}}, "description": "Name of the Arm to which the subject was assigned.", "label": "Description of Planned Arm", "name": "ARM", "ordinal": "27", "role": "Qualifier", "roleDescription": "Qualifier", "simpleDatatype": "Char"}, {"_links": {"parentDataset": {"href": "/mdr/sdtm/1-3/datasets/DM", "title": "Subject Demographics", "type": "SDTM Dataset"}, "parentProduct": {"href": "/mdr/sdtm/1-3", "title": "Study Data Tabulation Model Version 1.3", "type": "Foundational Model"}, "rootItem": {"href": "/mdr/root/sdtm/datasets/DM/variables/ACTARMCD", "title": "Version-agnostic anchor resource for SDTM variable DM.ACTARMCD", "type": "Root Data Element"}, "self": {"href": "/mdr/sdtm/1-3/datasets/DM/variables/ACTARMCD", "title": "Actual Arm Code", "type": "SDTM Dataset Variable"}}, "description": "Short name for the actual Arm in which the subject participated during the trial, limited to 20 characters.", "label": "Actual Arm Code", "name": "ACTARMCD", "ordinal": "28", "role": "Qualifier", "roleDescription": "Qualifier", "simpleDatatype": "Char"}, {"_links": {"parentDataset": {"href": "/mdr/sdtm/1-3/datasets/DM", "title": "Subject Demographics", "type": "SDTM Dataset"}, "parentProduct": {"href": "/mdr/sdtm/1-3", "title": "Study Data Tabulation Model Version 1.3", "type": "Foundational Model"}, "rootItem": {"href": "/mdr/root/sdtm/datasets/DM/variables/ACTARM", "title": "Version-agnostic anchor resource for SDTM variable DM.ACTARM", "type": "Root Data Element"}, "self": {"href": "/mdr/sdtm/1-3/datasets/DM/variables/ACTARM", "title": "Description of Actual Arm", "type": "SDTM Dataset Variable"}}, "description": "Description of the actual Arm in which the subject participated during the trial.", "label": "Description of Actual Arm", "name": "ACTARM", "ordinal": "29", "role": "Qualifier", "roleDescription": "Qualifier", "simpleDatatype": "Char"}, {"_links": {"parentDataset": {"href": "/mdr/sdtm/1-3/datasets/DM", "title": "Subject Demographics", "type": "SDTM Dataset"}, "parentProduct": {"href": "/mdr/sdtm/1-3", "title": "Study Data Tabulation Model Version 1.3", "type": "Foundational Model"}, "rootItem": {"href": "/mdr/root/sdtm/datasets/DM/variables/SETCD", "title": "Version-agnostic anchor resource for SDTM variable DM.SETCD", "type": "Root Data Element"}, "self": {"href": "/mdr/sdtm/1-3/datasets/DM/variables/SETCD", "title": "Set Code", "type": "SDTM Dataset Variable"}}, "description": "Short name of a specific Trial Set (see Table 3.2.4), as defined by the sponsor. Maximum of 8 characters. This represents the code for the Trial Set for which parameters are being submitted.", "label": "Set Code", "name": "SETCD", "ordinal": "30", "role": "Qualifier", "roleDescription": "Qualifier", "simpleDatatype": "Char"}, {"_links": {"parentDataset": {"href": "/mdr/sdtm/1-3/datasets/DM", "title": "Subject Demographics", "type": "SDTM Dataset"}, "parentProduct": {"href": "/mdr/sdtm/1-3", "title": "Study Data Tabulation Model Version 1.3", "type": "Foundational Model"}, "priorVersion": {"href": "/mdr/sdtm/1-2/datasets/DM/variables/COUNTRY", "title": "Country", "type": "SDTM Dataset Variable"}, "rootItem": {"href": "/mdr/root/sdtm/datasets/DM/variables/COUNTRY", "title": "Version-agnostic anchor resource for SDTM variable DM.COUNTRY", "type": "Root Data Element"}, "self": {"href": "/mdr/sdtm/1-3/datasets/DM/variables/COUNTRY", "title": "Country", "type": "SDTM Dataset Variable"}}, "description": "Country of the investigational site at which the subject participated in the trial in ISO 3166 three-character format.", "label": "Country", "name": "COUNTRY", "ordinal": "31", "role": "Qualifier", "roleDescription": "Qualifier", "simpleDatatype": "Char"}, {"_links": {"parentDataset": {"href": "/mdr/sdtm/1-3/datasets/DM", "title": "Subject Demographics", "type": "SDTM Dataset"}, "parentProduct": {"href": "/mdr/sdtm/1-3", "title": "Study Data Tabulation Model Version 1.3", "type": "Foundational Model"}, "priorVersion": {"href": "/mdr/sdtm/1-2/datasets/DM/variables/DMDTC", "title": "Date/Time of Collection", "type": "SDTM Dataset Variable"}, "rootItem": {"href": "/mdr/root/sdtm/datasets/DM/variables/DMDTC", "title": "Version-agnostic anchor resource for SDTM variable DM.DMDTC", "type": "Root Data Element"}, "self": {"href": "/mdr/sdtm/1-3/datasets/DM/variables/DMDTC", "title": "Date/Time of Collection", "type": "SDTM Dataset Variable"}}, "description": "Date/time of collection of the demographic information in ISO 8601 character format.", "label": "Date/Time of Collection", "name": "DMDTC", "ordinal": "32", "role": "Timing", "roleDescription": "Timing", "simpleDatatype": "Char"}, {"_links": {"parentDataset": {"href": "/mdr/sdtm/1-3/datasets/DM", "title": "Subject Demographics", "type": "SDTM Dataset"}, "parentProduct": {"href": "/mdr/sdtm/1-3", "title": "Study Data Tabulation Model Version 1.3", "type": "Foundational Model"}, "priorVersion": {"href": "/mdr/sdtm/1-2/datasets/DM/variables/DMDY", "title": "Study Day of Collection", "type": "SDTM Dataset Variable"}, "rootItem": {"href": "/mdr/root/sdtm/datasets/DM/variables/DMDY", "title": "Version-agnostic anchor resource for SDTM variable DM.DMDY", "type": "Root Data Element"}, "self": {"href": "/mdr/sdtm/1-3/datasets/DM/variables/DMDY", "title": "Study Day of Collection", "type": "SDTM Dataset Variable"}}, "description": "Study day of collection measured as integer days. Algorithm for calculations must be relative to the sponsor-defined RFSTDTC in Demographics.", "label": "Study Day of Collection", "name": "DMDY", "ordinal": "33", "role": "Timing", "roleDescription": "Timing", "simpleDatatype": "Num"}], "description": "A special-purpose domain that includes a set of essential standard variables that describe each subject in a clinical study. It is the parent domain for all other observations for human clinical subjects. (Source: CDISC Controlled Terminology, DOMAIN, C49572, 2018-06-29)", "label": "Subject Demographics", "name": "DM", "ordinal": "1"}, {"_links": {"parentClass": {"href": "/mdr/sdtm/1-3/classes/SpecialPurpose", "title": "Special-Purpose Datasets", "type": "Class"}, "parentProduct": {"href": "/mdr/sdtm/1-3", "title": "Study Data Tabulation Model Version 1.3", "type": "Foundational Model"}, "priorVersion": {"href": "/mdr/sdtm/1-2/datasets/CO", "title": "Comments", "type": "SDTM Dataset"}, "self": {"href": "/mdr/sdtm/1-3/datasets/CO", "title": "Comments", "type": "SDTM Dataset"}}, "datasetVariables": [{"_links": {"parentDataset": {"href": "/mdr/sdtm/1-3/datasets/CO", "title": "Comments", "type": "SDTM Dataset"}, "parentProduct": {"href": "/mdr/sdtm/1-3", "title": "Study Data Tabulation Model Version 1.3", "type": "Foundational Model"}, "priorVersion": {"href": "/mdr/sdtm/1-2/datasets/CO/variables/STUDYID", "title": "Study Identifier", "type": "SDTM Dataset Variable"}, "rootItem": {"href": "/mdr/root/sdtm/datasets/CO/variables/STUDYID", "title": "Version-agnostic anchor resource for SDTM variable CO.STUDYID", "type": "Root Data Element"}, "self": {"href": "/mdr/sdtm/1-3/datasets/CO/variables/STUDYID", "title": "Study Identifier", "type": "SDTM Dataset Variable"}}, "description": "Unique identifier for a study.", "label": "Study Identifier", "name": "STUDYID", "ordinal": "1", "role": "Identifier", "roleDescription": "Identifier", "simpleDatatype": "Char"}, {"_links": {"parentDataset": {"href": "/mdr/sdtm/1-3/datasets/CO", "title": "Comments", "type": "SDTM Dataset"}, "parentProduct": {"href": "/mdr/sdtm/1-3", "title": "Study Data Tabulation Model Version 1.3", "type": "Foundational Model"}, "priorVersion": {"href": "/mdr/sdtm/1-2/datasets/CO/variables/DOMAIN", "title": "Domain Abbreviation", "type": "SDTM Dataset Variable"}, "rootItem": {"href": "/mdr/root/sdtm/datasets/CO/variables/DOMAIN", "title": "Version-agnostic anchor resource for SDTM variable CO.DOMAIN", "type": "Root Data Element"}, "self": {"href": "/mdr/sdtm/1-3/datasets/CO/variables/DOMAIN", "title": "Domain Abbreviation", "type": "SDTM Dataset Variable"}}, "description": "Two-character abbreviation for the domain which must be CO.", "label": "Domain Abbreviation", "name": "DOMAIN", "ordinal": "2", "role": "Identifier", "roleDescription": "Identifier", "simpleDatatype": "Char"}, {"_links": {"parentDataset": {"href": "/mdr/sdtm/1-3/datasets/CO", "title": "Comments", "type": "SDTM Dataset"}, "parentProduct": {"href": "/mdr/sdtm/1-3", "title": "Study Data Tabulation Model Version 1.3", "type": "Foundational Model"}, "priorVersion": {"href": "/mdr/sdtm/1-2/datasets/CO/variables/RDOMAIN", "title": "Related Domain Abbreviation", "type": "SDTM Dataset Variable"}, "rootItem": {"href": "/mdr/root/sdtm/datasets/CO/variables/RDOMAIN", "title": "Version-agnostic anchor resource for SDTM variable CO.RDOMAIN", "type": "Root Data Element"}, "self": {"href": "/mdr/sdtm/1-3/datasets/CO/variables/RDOMAIN", "title": "Related Domain Abbreviation", "type": "SDTM Dataset Variable"}}, "description": "Domain Abbreviation of the parent record(s). Null for records collected on general comments or additional information CRF page.", "label": "Related Domain Abbreviation", "name": "RDOMAIN", "ordinal": "3", "role": "Record Qualifier", "roleDescription": "Record Qualifier", "simpleDatatype": "Char"}, {"_links": {"parentDataset": {"href": "/mdr/sdtm/1-3/datasets/CO", "title": "Comments", "type": "SDTM Dataset"}, "parentProduct": {"href": "/mdr/sdtm/1-3", "title": "Study Data Tabulation Model Version 1.3", "type": "Foundational Model"}, "priorVersion": {"href": "/mdr/sdtm/1-2/datasets/CO/variables/USUBJID", "title": "Unique Subject Identifier", "type": "SDTM Dataset Variable"}, "rootItem": {"href": "/mdr/root/sdtm/datasets/CO/variables/USUBJID", "title": "Version-agnostic anchor resource for SDTM variable CO.USUBJID", "type": "Root Data Element"}, "self": {"href": "/mdr/sdtm/1-3/datasets/CO/variables/USUBJID", "title": "Unique Subject Identifier", "type": "SDTM Dataset Variable"}}, "description": "Identifier used to uniquely identify a subject across all studies for all applications or submissions involving the product.", "label": "Unique Subject Identifier", "name": "USUBJID", "ordinal": "4", "role": "Identifier", "roleDescription": "Identifier", "simpleDatatype": "Char"}, {"_links": {"parentDataset": {"href": "/mdr/sdtm/1-3/datasets/CO", "title": "Comments", "type": "SDTM Dataset"}, "parentProduct": {"href": "/mdr/sdtm/1-3", "title": "Study Data Tabulation Model Version 1.3", "type": "Foundational Model"}, "rootItem": {"href": "/mdr/root/sdtm/datasets/CO/variables/POOLID", "title": "Version-agnostic anchor resource for SDTM variable CO.POOLID", "type": "Root Data Element"}, "self": {"href": "/mdr/sdtm/1-3/datasets/CO/variables/POOLID", "title": "Pool Identifier", "type": "SDTM Dataset Variable"}}, "description": "Used to identify a result for pooled subjects that is not assignable to any one individual within the pool.", "label": "Pool Identifier", "name": "POOLID", "ordinal": "5", "role": "Identifier", "roleDescription": "Identifier", "simpleDatatype": "Char"}, {"_links": {"parentDataset": {"href": "/mdr/sdtm/1-3/datasets/CO", "title": "Comments", "type": "SDTM Dataset"}, "parentProduct": {"href": "/mdr/sdtm/1-3", "title": "Study Data Tabulation Model Version 1.3", "type": "Foundational Model"}, "priorVersion": {"href": "/mdr/sdtm/1-2/datasets/CO/variables/COSEQ", "title": "Sequence Number", "type": "SDTM Dataset Variable"}, "rootItem": {"href": "/mdr/root/sdtm/datasets/CO/variables/COSEQ", "title": "Version-agnostic anchor resource for SDTM variable CO.COSEQ", "type": "Root Data Element"}, "self": {"href": "/mdr/sdtm/1-3/datasets/CO/variables/COSEQ", "title": "Sequence Number", "type": "SDTM Dataset Variable"}}, "description": "Sequence number to ensure uniqueness within a domain. Should be assigned to be in a consistent chronological order.", "label": "Sequence Number", "name": "COSEQ", "ordinal": "6", "role": "Identifier", "roleDescription": "Identifier", "simpleDatatype": "Num"}, {"_links": {"parentDataset": {"href": "/mdr/sdtm/1-3/datasets/CO", "title": "Comments", "type": "SDTM Dataset"}, "parentProduct": {"href": "/mdr/sdtm/1-3", "title": "Study Data Tabulation Model Version 1.3", "type": "Foundational Model"}, "priorVersion": {"href": "/mdr/sdtm/1-2/datasets/CO/variables/IDVAR", "title": "Identifying Variable", "type": "SDTM Dataset Variable"}, "rootItem": {"href": "/mdr/root/sdtm/datasets/CO/variables/IDVAR", "title": "Version-agnostic anchor resource for SDTM variable CO.IDVAR", "type": "Root Data Element"}, "self": {"href": "/mdr/sdtm/1-3/datasets/CO/variables/IDVAR", "title": "Identifying Variable", "type": "SDTM Dataset Variable"}}, "description": "Identifying variable in the parent dataset that identifies the record(s) to which the comment applies. Examples AESEQ or CMGRPID. Used only when individual comments are related to domain records. Null for comments collected on separate CRFs.", "label": "Identifying Variable", "name": "IDVAR", "ordinal": "7", "role": "Record Qualifier", "roleDescription": "Record Qualifier", "simpleDatatype": "Char"}, {"_links": {"parentDataset": {"href": "/mdr/sdtm/1-3/datasets/CO", "title": "Comments", "type": "SDTM Dataset"}, "parentProduct": {"href": "/mdr/sdtm/1-3", "title": "Study Data Tabulation Model Version 1.3", "type": "Foundational Model"}, "priorVersion": {"href": "/mdr/sdtm/1-2/datasets/CO/variables/IDVARVAL", "title": "Identifying Variable Value", "type": "SDTM Dataset Variable"}, "rootItem": {"href": "/mdr/root/sdtm/datasets/CO/variables/IDVARVAL", "title": "Version-agnostic anchor resource for SDTM variable CO.IDVARVAL", "type": "Root Data Element"}, "self": {"href": "/mdr/sdtm/1-3/datasets/CO/variables/IDVARVAL", "title": "Identifying Variable Value", "type": "SDTM Dataset Variable"}}, "description": "Value of identifying variable of the parent record(s). Null for comments collected on separate CRFs.", "label": "Identifying Variable Value", "name": "IDVARVAL", "ordinal": "8", "role": "Record Qualifier", "roleDescription": "Record Qualifier", "simpleDatatype": "Char"}, {"_links": {"parentDataset": {"href": "/mdr/sdtm/1-3/datasets/CO", "title": "Comments", "type": "SDTM Dataset"}, "parentProduct": {"href": "/mdr/sdtm/1-3", "title": "Study Data Tabulation Model Version 1.3", "type": "Foundational Model"}, "priorVersion": {"href": "/mdr/sdtm/1-2/datasets/CO/variables/COREF", "title": "Comment Reference", "type": "SDTM Dataset Variable"}, "rootItem": {"href": "/mdr/root/sdtm/datasets/CO/variables/COREF", "title": "Version-agnostic anchor resource for SDTM variable CO.COREF", "type": "Root Data Element"}, "self": {"href": "/mdr/sdtm/1-3/datasets/CO/variables/COREF", "title": "Comment Reference", "type": "SDTM Dataset Variable"}}, "description": "Sponsor-defined reference associated with the comment. May be the CRF page number (e.g. 650), or a module name (e.g. DEMOG), or a combination of information that identifies the reference (e.g. 650-VITALS-VISIT 2).", "label": "Comment Reference", "name": "COREF", "ordinal": "9", "role": "Record Qualifier", "roleDescription": "Record Qualifier", "simpleDatatype": "Char"}, {"_links": {"parentDataset": {"href": "/mdr/sdtm/1-3/datasets/CO", "title": "Comments", "type": "SDTM Dataset"}, "parentProduct": {"href": "/mdr/sdtm/1-3", "title": "Study Data Tabulation Model Version 1.3", "type": "Foundational Model"}, "priorVersion": {"href": "/mdr/sdtm/1-2/datasets/CO/variables/COVAL", "title": "Comment", "type": "SDTM Dataset Variable"}, "rootItem": {"href": "/mdr/root/sdtm/datasets/CO/variables/COVAL", "title": "Version-agnostic anchor resource for SDTM variable CO.COVAL", "type": "Root Data Element"}, "self": {"href": "/mdr/sdtm/1-3/datasets/CO/variables/COVAL", "title": "Comment", "type": "SDTM Dataset Variable"}}, "description": "The text of the comment. Text over 200 characters can be added to additional columns COVAL1-COVALn.", "label": "Comment", "name": "COVAL", "ordinal": "10", "role": "Topic", "roleDescription": "Topic", "simpleDatatype": "Char"}, {"_links": {"parentDataset": {"href": "/mdr/sdtm/1-3/datasets/CO", "title": "Comments", "type": "SDTM Dataset"}, "parentProduct": {"href": "/mdr/sdtm/1-3", "title": "Study Data Tabulation Model Version 1.3", "type": "Foundational Model"}, "priorVersion": {"href": "/mdr/sdtm/1-2/datasets/CO/variables/COEVAL", "title": "Evaluator", "type": "SDTM Dataset Variable"}, "rootItem": {"href": "/mdr/root/sdtm/datasets/CO/variables/COEVAL", "title": "Version-agnostic anchor resource for SDTM variable CO.COEVAL", "type": "Root Data Element"}, "self": {"href": "/mdr/sdtm/1-3/datasets/CO/variables/COEVAL", "title": "Evaluator", "type": "SDTM Dataset Variable"}}, "description": "Used to describe the originator of the comment. Example: CENTRAL REVIEWER.", "label": "Evaluator", "name": "COEVAL", "ordinal": "11", "role": "Record Qualifier", "roleDescription": "Record Qualifier", "simpleDatatype": "Char"}, {"_links": {"parentDataset": {"href": "/mdr/sdtm/1-3/datasets/CO", "title": "Comments", "type": "SDTM Dataset"}, "parentProduct": {"href": "/mdr/sdtm/1-3", "title": "Study Data Tabulation Model Version 1.3", "type": "Foundational Model"}, "priorVersion": {"href": "/mdr/sdtm/1-2/datasets/CO/variables/CODTC", "title": "Date/Time of Comment", "type": "SDTM Dataset Variable"}, "rootItem": {"href": "/mdr/root/sdtm/datasets/CO/variables/CODTC", "title": "Version-agnostic anchor resource for SDTM variable CO.CODTC", "type": "Root Data Element"}, "self": {"href": "/mdr/sdtm/1-3/datasets/CO/variables/CODTC", "title": "Date/Time of Comment", "type": "SDTM Dataset Variable"}}, "description": "Date/time of comment on dedicated comment form, if collected. Represented in ISO 8601 character format. Should be null if this is a child record of another domain or if comment date was not collected.", "label": "Date/Time of Comment", "name": "CODTC", "ordinal": "12", "role": "Timing", "roleDescription": "Timing", "simpleDatatype": "Char"}], "description": "A special-purpose domain that contains comments that may be collected alongside other data. (Source: CDISC Controlled Terminology, DOMAIN, C49569, 2018-06-29)", "label": "Comments", "name": "CO", "ordinal": "2"}, {"_links": {"parentClass": {"href": "/mdr/sdtm/1-3/classes/SpecialPurpose", "title": "Special-Purpose Datasets", "type": "Class"}, "parentProduct": {"href": "/mdr/sdtm/1-3", "title": "Study Data Tabulation Model Version 1.3", "type": "Foundational Model"}, "priorVersion": {"href": "/mdr/sdtm/1-2/datasets/SE", "title": "Subject Elements", "type": "SDTM Dataset"}, "self": {"href": "/mdr/sdtm/1-3/datasets/SE", "title": "Subject Elements", "type": "SDTM Dataset"}}, "datasetStructure": "One Record per Actual Element per Subject", "datasetVariables": [{"_links": {"parentDataset": {"href": "/mdr/sdtm/1-3/datasets/SE", "title": "Subject Elements", "type": "SDTM Dataset"}, "parentProduct": {"href": "/mdr/sdtm/1-3", "title": "Study Data Tabulation Model Version 1.3", "type": "Foundational Model"}, "priorVersion": {"href": "/mdr/sdtm/1-2/datasets/SE/variables/STUDYID", "title": "Study Identifier", "type": "SDTM Dataset Variable"}, "rootItem": {"href": "/mdr/root/sdtm/datasets/SE/variables/STUDYID", "title": "Version-agnostic anchor resource for SDTM variable SE.STUDYID", "type": "Root Data Element"}, "self": {"href": "/mdr/sdtm/1-3/datasets/SE/variables/STUDYID", "title": "Study Identifier", "type": "SDTM Dataset Variable"}}, "description": "Unique identifier for a study.", "label": "Study Identifier", "name": "STUDYID", "ordinal": "1", "simpleDatatype": "Char"}, {"_links": {"parentDataset": {"href": "/mdr/sdtm/1-3/datasets/SE", "title": "Subject Elements", "type": "SDTM Dataset"}, "parentProduct": {"href": "/mdr/sdtm/1-3", "title": "Study Data Tabulation Model Version 1.3", "type": "Foundational Model"}, "priorVersion": {"href": "/mdr/sdtm/1-2/datasets/SE/variables/DOMAIN", "title": "Domain Abbreviation", "type": "SDTM Dataset Variable"}, "rootItem": {"href": "/mdr/root/sdtm/datasets/SE/variables/DOMAIN", "title": "Version-agnostic anchor resource for SDTM variable SE.DOMAIN", "type": "Root Data Element"}, "self": {"href": "/mdr/sdtm/1-3/datasets/SE/variables/DOMAIN", "title": "Domain Abbreviation", "type": "SDTM Dataset Variable"}}, "description": "Two-character abbreviation for the domain which must be SE.", "label": "Domain Abbreviation", "name": "DOMAIN", "ordinal": "2", "simpleDatatype": "Char"}, {"_links": {"parentDataset": {"href": "/mdr/sdtm/1-3/datasets/SE", "title": "Subject Elements", "type": "SDTM Dataset"}, "parentProduct": {"href": "/mdr/sdtm/1-3", "title": "Study Data Tabulation Model Version 1.3", "type": "Foundational Model"}, "priorVersion": {"href": "/mdr/sdtm/1-2/datasets/SE/variables/USUBJID", "title": "Unique Subject Identifier", "type": "SDTM Dataset Variable"}, "rootItem": {"href": "/mdr/root/sdtm/datasets/SE/variables/USUBJID", "title": "Version-agnostic anchor resource for SDTM variable SE.USUBJID", "type": "Root Data Element"}, "self": {"href": "/mdr/sdtm/1-3/datasets/SE/variables/USUBJID", "title": "Unique Subject Identifier", "type": "SDTM Dataset Variable"}}, "description": "Identifier used to uniquely identify a subject across all studies for all applications or submissions involving the product.", "label": "Unique Subject Identifier", "name": "USUBJID", "ordinal": "3", "simpleDatatype": "Char"}, {"_links": {"parentDataset": {"href": "/mdr/sdtm/1-3/datasets/SE", "title": "Subject Elements", "type": "SDTM Dataset"}, "parentProduct": {"href": "/mdr/sdtm/1-3", "title": "Study Data Tabulation Model Version 1.3", "type": "Foundational Model"}, "priorVersion": {"href": "/mdr/sdtm/1-2/datasets/SE/variables/SESEQ", "title": "Sequence Number", "type": "SDTM Dataset Variable"}, "rootItem": {"href": "/mdr/root/sdtm/datasets/SE/variables/SESEQ", "title": "Version-agnostic anchor resource for SDTM variable SE.SESEQ", "type": "Root Data Element"}, "self": {"href": "/mdr/sdtm/1-3/datasets/SE/variables/SESEQ", "title": "Sequence Number", "type": "SDTM Dataset Variable"}}, "description": "Sequence number to ensure uniqueness within dataset. Should be assigned to be in a consistent chronological order.", "label": "Sequence Number", "name": "SESEQ", "ordinal": "4", "simpleDatatype": "Num"}, {"_links": {"parentDataset": {"href": "/mdr/sdtm/1-3/datasets/SE", "title": "Subject Elements", "type": "SDTM Dataset"}, "parentProduct": {"href": "/mdr/sdtm/1-3", "title": "Study Data Tabulation Model Version 1.3", "type": "Foundational Model"}, "priorVersion": {"href": "/mdr/sdtm/1-2/datasets/SE/variables/ETCD", "title": "Subject Element Code", "type": "SDTM Dataset Variable"}, "rootItem": {"href": "/mdr/root/sdtm/datasets/SE/variables/ETCD", "title": "Version-agnostic anchor resource for SDTM variable SE.ETCD", "type": "Root Data Element"}, "self": {"href": "/mdr/sdtm/1-3/datasets/SE/variables/ETCD", "title": "Element Code", "type": "SDTM Dataset Variable"}}, "description": "ETCD (the companion to ELEMENT) is limited to 8 characters and does not have special character restrictions. These values should be short for ease of use in programming, but it is not expected that ETCD will need to serve as a variable name.", "label": "Element Code", "name": "ETCD", "ordinal": "5", "role": "Topic", "roleDescription": "Topic", "simpleDatatype": "Char"}, {"_links": {"parentDataset": {"href": "/mdr/sdtm/1-3/datasets/SE", "title": "Subject Elements", "type": "SDTM Dataset"}, "parentProduct": {"href": "/mdr/sdtm/1-3", "title": "Study Data Tabulation Model Version 1.3", "type": "Foundational Model"}, "priorVersion": {"href": "/mdr/sdtm/1-2/datasets/SE/variables/ELEMENT", "title": "Description of Subject Element", "type": "SDTM Dataset Variable"}, "rootItem": {"href": "/mdr/root/sdtm/datasets/SE/variables/ELEMENT", "title": "Version-agnostic anchor resource for SDTM variable SE.ELEMENT", "type": "Root Data Element"}, "self": {"href": "/mdr/sdtm/1-3/datasets/SE/variables/ELEMENT", "title": "Description of Element", "type": "SDTM Dataset Variable"}}, "description": "The name of the Element. If ETCD has a value of \"UNPLAN\" then ELEMENT should be null.", "label": "Description of Element", "name": "ELEMENT", "ordinal": "6", "role": "Qualifier", "roleDescription": "Qualifier", "simpleDatatype": "Char"}, {"_links": {"parentDataset": {"href": "/mdr/sdtm/1-3/datasets/SE", "title": "Subject Elements", "type": "SDTM Dataset"}, "parentProduct": {"href": "/mdr/sdtm/1-3", "title": "Study Data Tabulation Model Version 1.3", "type": "Foundational Model"}, "priorVersion": {"href": "/mdr/sdtm/1-2/datasets/SE/variables/SESTDTC", "title": "Start Date/Time of Element", "type": "SDTM Dataset Variable"}, "rootItem": {"href": "/mdr/root/sdtm/datasets/SE/variables/SESTDTC", "title": "Version-agnostic anchor resource for SDTM variable SE.SESTDTC", "type": "Root Data Element"}, "self": {"href": "/mdr/sdtm/1-3/datasets/SE/variables/SESTDTC", "title": "Start Date/Time of Element", "type": "SDTM Dataset Variable"}}, "description": "Start date/time for an Element for each subject, represented in ISO 8601 character format.", "label": "Start Date/Time of Element", "name": "SESTDTC", "ordinal": "7", "role": "Timing", "roleDescription": "Timing", "simpleDatatype": "Char"}, {"_links": {"parentDataset": {"href": "/mdr/sdtm/1-3/datasets/SE", "title": "Subject Elements", "type": "SDTM Dataset"}, "parentProduct": {"href": "/mdr/sdtm/1-3", "title": "Study Data Tabulation Model Version 1.3", "type": "Foundational Model"}, "priorVersion": {"href": "/mdr/sdtm/1-2/datasets/SE/variables/SEENDTC", "title": "End Date/Time of Element", "type": "SDTM Dataset Variable"}, "rootItem": {"href": "/mdr/root/sdtm/datasets/SE/variables/SEENDTC", "title": "Version-agnostic anchor resource for SDTM variable SE.SEENDTC", "type": "Root Data Element"}, "self": {"href": "/mdr/sdtm/1-3/datasets/SE/variables/SEENDTC", "title": "End Date/Time of Element", "type": "SDTM Dataset Variable"}}, "description": "End date/time of an Element for each subject, represented in ISO 8601 character format.", "label": "End Date/Time of Element", "name": "SEENDTC", "ordinal": "8", "role": "Timing", "roleDescription": "Timing", "simpleDatatype": "Char"}, {"_links": {"parentDataset": {"href": "/mdr/sdtm/1-3/datasets/SE", "title": "Subject Elements", "type": "SDTM Dataset"}, "parentProduct": {"href": "/mdr/sdtm/1-3", "title": "Study Data Tabulation Model Version 1.3", "type": "Foundational Model"}, "priorVersion": {"href": "/mdr/sdtm/1-2/datasets/SE/variables/TAETORD", "title": "Planned Order of Elements within Arm", "type": "SDTM Dataset Variable"}, "rootItem": {"href": "/mdr/root/sdtm/datasets/SE/variables/TAETORD", "title": "Version-agnostic anchor resource for SDTM variable SE.TAETORD", "type": "Root Data Element"}, "self": {"href": "/mdr/sdtm/1-3/datasets/SE/variables/TAETORD", "title": "Planned Order of Element within Arm", "type": "SDTM Dataset Variable"}}, "description": "Number that gives the planned order of the Element within the subject's assigned ARM.", "label": "Planned Order of Element within Arm", "name": "TAETORD", "ordinal": "9", "role": "Timing", "roleDescription": "Timing", "simpleDatatype": "Num"}, {"_links": {"parentDataset": {"href": "/mdr/sdtm/1-3/datasets/SE", "title": "Subject Elements", "type": "SDTM Dataset"}, "parentProduct": {"href": "/mdr/sdtm/1-3", "title": "Study Data Tabulation Model Version 1.3", "type": "Foundational Model"}, "priorVersion": {"href": "/mdr/sdtm/1-2/datasets/SE/variables/EPOCH", "title": "Epoch", "type": "SDTM Dataset Variable"}, "rootItem": {"href": "/mdr/root/sdtm/datasets/SE/variables/EPOCH", "title": "Version-agnostic anchor resource for SDTM variable SE.EPOCH", "type": "Root Data Element"}, "self": {"href": "/mdr/sdtm/1-3/datasets/SE/variables/EPOCH", "title": "Epoch", "type": "SDTM Dataset Variable"}}, "description": "Epoch associated with the Element in the planned sequence of Elements for the ARM to which the subject was assigned", "label": "Epoch", "name": "EPOCH", "ordinal": "10", "role": "Timing", "roleDescription": "Timing", "simpleDatatype": "Char"}, {"_links": {"parentDataset": {"href": "/mdr/sdtm/1-3/datasets/SE", "title": "Subject Elements", "type": "SDTM Dataset"}, "parentProduct": {"href": "/mdr/sdtm/1-3", "title": "Study Data Tabulation Model Version 1.3", "type": "Foundational Model"}, "priorVersion": {"href": "/mdr/sdtm/1-2/datasets/SE/variables/SEUPDES", "title": "Description of Unplanned Element", "type": "SDTM Dataset Variable"}, "rootItem": {"href": "/mdr/root/sdtm/datasets/SE/variables/SEUPDES", "title": "Version-agnostic anchor resource for SDTM variable SE.SEUPDES", "type": "Root Data Element"}, "self": {"href": "/mdr/sdtm/1-3/datasets/SE/variables/SEUPDES", "title": "Description of Unplanned Element", "type": "SDTM Dataset Variable"}}, "description": "Description of what happened to the subject during an unplanned Element. Used only if ETCD has the value of \"UNPLAN\".", "label": "Description of Unplanned Element", "name": "SEUPDES", "ordinal": "11", "role": "Qualifier", "roleDescription": "Qualifier", "simpleDatatype": "Char"}], "description": "A special-purpose domain that contains the actual order of elements followed by the subject, together with the start date/time and end date/time for each element. (Source: CDISC Controlled Terminology, DOMAIN, C49616, 2018-06-29)", "label": "Subject Elements", "name": "SE", "ordinal": "3"}, {"_links": {"parentClass": {"href": "/mdr/sdtm/1-3/classes/SpecialPurpose", "title": "Special-Purpose Datasets", "type": "Class"}, "parentProduct": {"href": "/mdr/sdtm/1-3", "title": "Study Data Tabulation Model Version 1.3", "type": "Foundational Model"}, "priorVersion": {"href": "/mdr/sdtm/1-2/datasets/SV", "title": "Subject Visits", "type": "SDTM Dataset"}, "self": {"href": "/mdr/sdtm/1-3/datasets/SV", "title": "Subject Visits", "type": "SDTM Dataset"}}, "datasetStructure": "One Record per Subject Visit, per Subject", "datasetVariables": [{"_links": {"parentDataset": {"href": "/mdr/sdtm/1-3/datasets/SV", "title": "Subject Visits", "type": "SDTM Dataset"}, "parentProduct": {"href": "/mdr/sdtm/1-3", "title": "Study Data Tabulation Model Version 1.3", "type": "Foundational Model"}, "priorVersion": {"href": "/mdr/sdtm/1-2/datasets/SV/variables/STUDYID", "title": "Study Identifier", "type": "SDTM Dataset Variable"}, "rootItem": {"href": "/mdr/root/sdtm/datasets/SV/variables/STUDYID", "title": "Version-agnostic anchor resource for SDTM variable SV.STUDYID", "type": "Root Data Element"}, "self": {"href": "/mdr/sdtm/1-3/datasets/SV/variables/STUDYID", "title": "Study Identifier", "type": "SDTM Dataset Variable"}}, "description": "Unique identifier for a study.", "label": "Study Identifier", "name": "STUDYID", "ordinal": "1", "simpleDatatype": "Char"}, {"_links": {"parentDataset": {"href": "/mdr/sdtm/1-3/datasets/SV", "title": "Subject Visits", "type": "SDTM Dataset"}, "parentProduct": {"href": "/mdr/sdtm/1-3", "title": "Study Data Tabulation Model Version 1.3", "type": "Foundational Model"}, "priorVersion": {"href": "/mdr/sdtm/1-2/datasets/SV/variables/DOMAIN", "title": "Domain Abbreviation", "type": "SDTM Dataset Variable"}, "rootItem": {"href": "/mdr/root/sdtm/datasets/SV/variables/DOMAIN", "title": "Version-agnostic anchor resource for SDTM variable SV.DOMAIN", "type": "Root Data Element"}, "self": {"href": "/mdr/sdtm/1-3/datasets/SV/variables/DOMAIN", "title": "Domain Abbreviation", "type": "SDTM Dataset Variable"}}, "description": "Two-character abbreviation for the domain, which must be SV.", "label": "Domain Abbreviation", "name": "DOMAIN", "ordinal": "2", "simpleDatatype": "Char"}, {"_links": {"parentDataset": {"href": "/mdr/sdtm/1-3/datasets/SV", "title": "Subject Visits", "type": "SDTM Dataset"}, "parentProduct": {"href": "/mdr/sdtm/1-3", "title": "Study Data Tabulation Model Version 1.3", "type": "Foundational Model"}, "priorVersion": {"href": "/mdr/sdtm/1-2/datasets/SV/variables/USUBJID", "title": "Unique Subject Identifier", "type": "SDTM Dataset Variable"}, "rootItem": {"href": "/mdr/root/sdtm/datasets/SV/variables/USUBJID", "title": "Version-agnostic anchor resource for SDTM variable SV.USUBJID", "type": "Root Data Element"}, "self": {"href": "/mdr/sdtm/1-3/datasets/SV/variables/USUBJID", "title": "Unique Subject Identifier", "type": "SDTM Dataset Variable"}}, "description": "Identifier used to uniquely identify a subject across all studies for all applications or submissions involving the product.", "label": "Unique Subject Identifier", "name": "USUBJID", "ordinal": "3", "simpleDatatype": "Char"}, {"_links": {"parentDataset": {"href": "/mdr/sdtm/1-3/datasets/SV", "title": "Subject Visits", "type": "SDTM Dataset"}, "parentProduct": {"href": "/mdr/sdtm/1-3", "title": "Study Data Tabulation Model Version 1.3", "type": "Foundational Model"}, "priorVersion": {"href": "/mdr/sdtm/1-2/datasets/SV/variables/VISITNUM", "title": "Visit Number", "type": "SDTM Dataset Variable"}, "rootItem": {"href": "/mdr/root/sdtm/datasets/SV/variables/VISITNUM", "title": "Version-agnostic anchor resource for SDTM variable SV.VISITNUM", "type": "Root Data Element"}, "self": {"href": "/mdr/sdtm/1-3/datasets/SV/variables/VISITNUM", "title": "Visit Number", "type": "SDTM Dataset Variable"}}, "description": "Clinical encounter number. (Decimal numbering may be useful for inserting unplanned visits.) Numeric version of VISIT, used for sorting.", "label": "Visit Number", "name": "VISITNUM", "ordinal": "4", "role": "Topic", "roleDescription": "Topic", "simpleDatatype": "Num"}, {"_links": {"parentDataset": {"href": "/mdr/sdtm/1-3/datasets/SV", "title": "Subject Visits", "type": "SDTM Dataset"}, "parentProduct": {"href": "/mdr/sdtm/1-3", "title": "Study Data Tabulation Model Version 1.3", "type": "Foundational Model"}, "priorVersion": {"href": "/mdr/sdtm/1-2/datasets/SV/variables/VISIT", "title": "Visit Name", "type": "SDTM Dataset Variable"}, "rootItem": {"href": "/mdr/root/sdtm/datasets/SV/variables/VISIT", "title": "Version-agnostic anchor resource for SDTM variable SV.VISIT", "type": "Root Data Element"}, "self": {"href": "/mdr/sdtm/1-3/datasets/SV/variables/VISIT", "title": "Visit Name", "type": "SDTM Dataset Variable"}}, "description": "Protocol-defined description of clinical encounter or description of unplanned visit. May be used in addition to VISITNUM and/or VISITDY as a text description of the clinical encounter.", "label": "Visit Name", "name": "VISIT", "ordinal": "5", "role": "Timing", "roleDescription": "Timing", "simpleDatatype": "Char"}, {"_links": {"parentDataset": {"href": "/mdr/sdtm/1-3/datasets/SV", "title": "Subject Visits", "type": "SDTM Dataset"}, "parentProduct": {"href": "/mdr/sdtm/1-3", "title": "Study Data Tabulation Model Version 1.3", "type": "Foundational Model"}, "priorVersion": {"href": "/mdr/sdtm/1-2/datasets/SV/variables/VISITDY", "title": "Planned Study Day of Visit", "type": "SDTM Dataset Variable"}, "rootItem": {"href": "/mdr/root/sdtm/datasets/SV/variables/VISITDY", "title": "Version-agnostic anchor resource for SDTM variable SV.VISITDY", "type": "Root Data Element"}, "self": {"href": "/mdr/sdtm/1-3/datasets/SV/variables/VISITDY", "title": "Planned Study Day of Visit", "type": "SDTM Dataset Variable"}}, "description": "Planned study day of the start of the visit based upon RFSTDTC in Demographics.", "label": "Planned Study Day of Visit", "name": "VISITDY", "ordinal": "6", "role": "Timing", "roleDescription": "Timing", "simpleDatatype": "Num"}, {"_links": {"parentDataset": {"href": "/mdr/sdtm/1-3/datasets/SV", "title": "Subject Visits", "type": "SDTM Dataset"}, "parentProduct": {"href": "/mdr/sdtm/1-3", "title": "Study Data Tabulation Model Version 1.3", "type": "Foundational Model"}, "priorVersion": {"href": "/mdr/sdtm/1-2/datasets/SV/variables/SVSTDTC", "title": "Start Date/Time of Visit", "type": "SDTM Dataset Variable"}, "rootItem": {"href": "/mdr/root/sdtm/datasets/SV/variables/SVSTDTC", "title": "Version-agnostic anchor resource for SDTM variable SV.SVSTDTC", "type": "Root Data Element"}, "self": {"href": "/mdr/sdtm/1-3/datasets/SV/variables/SVSTDTC", "title": "Start Date/Time of Visit", "type": "SDTM Dataset Variable"}}, "description": "Start date/time for a subject's visit, represented in ISO 8601 character format.", "label": "Start Date/Time of Visit", "name": "SVSTDTC", "ordinal": "7", "role": "Timing", "roleDescription": "Timing", "simpleDatatype": "Char"}, {"_links": {"parentDataset": {"href": "/mdr/sdtm/1-3/datasets/SV", "title": "Subject Visits", "type": "SDTM Dataset"}, "parentProduct": {"href": "/mdr/sdtm/1-3", "title": "Study Data Tabulation Model Version 1.3", "type": "Foundational Model"}, "priorVersion": {"href": "/mdr/sdtm/1-2/datasets/SV/variables/SVENDTC", "title": "End Date/Time of Visit", "type": "SDTM Dataset Variable"}, "rootItem": {"href": "/mdr/root/sdtm/datasets/SV/variables/SVENDTC", "title": "Version-agnostic anchor resource for SDTM variable SV.SVENDTC", "type": "Root Data Element"}, "self": {"href": "/mdr/sdtm/1-3/datasets/SV/variables/SVENDTC", "title": "End Date/Time of Visit", "type": "SDTM Dataset Variable"}}, "description": "End date/time of a subject's visit, represented in ISO 8601 character format.", "label": "End Date/Time of Visit", "name": "SVENDTC", "ordinal": "8", "role": "Timing", "roleDescription": "Timing", "simpleDatatype": "Char"}, {"_links": {"parentDataset": {"href": "/mdr/sdtm/1-3/datasets/SV", "title": "Subject Visits", "type": "SDTM Dataset"}, "parentProduct": {"href": "/mdr/sdtm/1-3", "title": "Study Data Tabulation Model Version 1.3", "type": "Foundational Model"}, "priorVersion": {"href": "/mdr/sdtm/1-2/datasets/SV/variables/SVSTDY", "title": "Study Day of Start of Visit", "type": "SDTM Dataset Variable"}, "rootItem": {"href": "/mdr/root/sdtm/datasets/SV/variables/SVSTDY", "title": "Version-agnostic anchor resource for SDTM variable SV.SVSTDY", "type": "Root Data Element"}, "self": {"href": "/mdr/sdtm/1-3/datasets/SV/variables/SVSTDY", "title": "Study Day of Start of Visit", "type": "SDTM Dataset Variable"}}, "description": "Study day of start of visit relative to the sponsor-defined RFSTDTC.", "label": "Study Day of Start of Visit", "name": "SVSTDY", "ordinal": "9", "role": "Timing", "roleDescription": "Timing", "simpleDatatype": "Num"}, {"_links": {"parentDataset": {"href": "/mdr/sdtm/1-3/datasets/SV", "title": "Subject Visits", "type": "SDTM Dataset"}, "parentProduct": {"href": "/mdr/sdtm/1-3", "title": "Study Data Tabulation Model Version 1.3", "type": "Foundational Model"}, "priorVersion": {"href": "/mdr/sdtm/1-2/datasets/SV/variables/SVENDY", "title": "Study Day of End of Visit", "type": "SDTM Dataset Variable"}, "rootItem": {"href": "/mdr/root/sdtm/datasets/SV/variables/SVENDY", "title": "Version-agnostic anchor resource for SDTM variable SV.SVENDY", "type": "Root Data Element"}, "self": {"href": "/mdr/sdtm/1-3/datasets/SV/variables/SVENDY", "title": "Study Day of End of Visit", "type": "SDTM Dataset Variable"}}, "description": "Study day of end of visit relative to the sponsor-defined RFSTDTC.", "label": "Study Day of End of Visit", "name": "SVENDY", "ordinal": "10", "role": "Timing", "roleDescription": "Timing", "simpleDatatype": "Num"}, {"_links": {"parentDataset": {"href": "/mdr/sdtm/1-3/datasets/SV", "title": "Subject Visits", "type": "SDTM Dataset"}, "parentProduct": {"href": "/mdr/sdtm/1-3", "title": "Study Data Tabulation Model Version 1.3", "type": "Foundational Model"}, "priorVersion": {"href": "/mdr/sdtm/1-2/datasets/SV/variables/SVUPDES", "title": "Description of Unplanned Visit", "type": "SDTM Dataset Variable"}, "rootItem": {"href": "/mdr/root/sdtm/datasets/SV/variables/SVUPDES", "title": "Version-agnostic anchor resource for SDTM variable SV.SVUPDES", "type": "Root Data Element"}, "self": {"href": "/mdr/sdtm/1-3/datasets/SV/variables/SVUPDES", "title": "Description of Unplanned Visit", "type": "SDTM Dataset Variable"}}, "description": "Description of what happened to the subject during an unplanned visit. Null for protocol-defined visits.", "label": "Description of Unplanned Visit", "name": "SVUPDES", "ordinal": "11", "role": "Qualifier", "roleDescription": "Qualifier", "simpleDatatype": "Char"}], "description": "A special-purpose domain that contains the actual start and end data/time for each visit of each individual subject. (Source: CDISC Controlled Terminology, DOMAIN, C49617, 2018-06-29)", "label": "Subject Visits", "name": "SV", "ordinal": "4"}], "description": "This SDTM class contains a set of domains which do not conform to the Findings, Events or Interventions observation classes. The domains included are DM, CO, SE and SV. (Source: CDISC Controlled Terminology, GNRLOBSC, C103377, 2018-06-29)", "label": "Special-Purpose Datasets", "name": "Special-Purpose", "ordinal": "6"}
