{"_links": {"parentClass": {"href": "/mdr/sendig/3-1/classes/Findings", "title": "Findings Observation Class", "type": "Class"}, "parentProduct": {"href": "/mdr/sendig/3-1", "title": "Standard for Exchange of Nonclinical Data Implementation Guide: Nonclinical Studies Version 3.1 (Final)", "type": "Implementation Guide"}, "self": {"href": "/mdr/sendig/3-1/datasets/CV", "title": "Cardiovascular Findings", "type": "SDTM Dataset"}}, "datasetStructure": "One record per test per observation time or evaluation interval per subject", "datasetVariables": [{"_links": {"modelClassVariable": {"href": "/mdr/sdtm/1-5/classes/GeneralObservations/variables/STUDYID", "title": "Study Identifier", "type": "Class Variable"}, "parentDataset": {"href": "/mdr/sendig/3-1/datasets/CV", "title": "Cardiovascular Findings", "type": "SDTM Dataset"}, "parentProduct": {"href": "/mdr/sendig/3-1", "title": "Standard for Exchange of Nonclinical Data Implementation Guide: Nonclinical Studies Version 3.1 (Final)", "type": "Implementation Guide"}, "rootItem": {"href": "/mdr/root/sendig/datasets/CV/variables/STUDYID", "title": "Version-agnostic anchor resource for SENDIG variable CV.STUDYID", "type": "Root Data Element"}, "self": {"href": "/mdr/sendig/3-1/datasets/CV/variables/STUDYID", "title": "Study Identifier", "type": "SDTM Dataset Variable"}}, "core": "Req", "description": "Unique identifier for a study.", "label": "Study Identifier", "name": "STUDYID", "ordinal": "1", "role": "Identifier", "simpleDatatype": "Char"}, {"_links": {"modelClassVariable": {"href": "/mdr/sdtm/1-5/classes/GeneralObservations/variables/DOMAIN", "title": "Domain Abbreviation", "type": "Class Variable"}, "parentDataset": {"href": "/mdr/sendig/3-1/datasets/CV", "title": "Cardiovascular Findings", "type": "SDTM Dataset"}, "parentProduct": {"href": "/mdr/sendig/3-1", "title": "Standard for Exchange of Nonclinical Data Implementation Guide: Nonclinical Studies Version 3.1 (Final)", "type": "Implementation Guide"}, "rootItem": {"href": "/mdr/root/sendig/datasets/CV/variables/DOMAIN", "title": "Version-agnostic anchor resource for SENDIG variable CV.DOMAIN", "type": "Root Data Element"}, "self": {"href": "/mdr/sendig/3-1/datasets/CV/variables/DOMAIN", "title": "Domain Abbreviation", "type": "SDTM Dataset Variable"}}, "core": "Req", "description": "Two-character abbreviation for the domain.", "label": "Domain Abbreviation", "name": "DOMAIN", "ordinal": "2", "role": "Identifier", "simpleDatatype": "Char", "valueList": ["CV"]}, {"_links": {"modelClassVariable": {"href": "/mdr/sdtm/1-5/classes/GeneralObservations/variables/USUBJID", "title": "Unique Subject Identifier", "type": "Class Variable"}, "parentDataset": {"href": "/mdr/sendig/3-1/datasets/CV", "title": "Cardiovascular Findings", "type": "SDTM Dataset"}, "parentProduct": {"href": "/mdr/sendig/3-1", "title": "Standard for Exchange of Nonclinical Data Implementation Guide: Nonclinical Studies Version 3.1 (Final)", "type": "Implementation Guide"}, "rootItem": {"href": "/mdr/root/sendig/datasets/CV/variables/USUBJID", "title": "Version-agnostic anchor resource for SENDIG variable CV.USUBJID", "type": "Root Data Element"}, "self": {"href": "/mdr/sendig/3-1/datasets/CV/variables/USUBJID", "title": "Unique Subject Identifier", "type": "SDTM Dataset Variable"}}, "core": "Req", "description": "Identifier used to uniquely identify a subject across all studies for all application or submissions involving the product.", "label": "Unique Subject Identifier", "name": "USUBJID", "ordinal": "3", "role": "Identifier", "simpleDatatype": "Char"}, {"_links": {"modelClassVariable": {"href": "/mdr/sdtm/1-5/classes/GeneralObservations/variables/--SEQ", "title": "Sequence Number", "type": "Class Variable"}, "parentDataset": {"href": "/mdr/sendig/3-1/datasets/CV", "title": "Cardiovascular Findings", "type": "SDTM Dataset"}, "parentProduct": {"href": "/mdr/sendig/3-1", "title": "Standard for Exchange of Nonclinical Data Implementation Guide: Nonclinical Studies Version 3.1 (Final)", "type": "Implementation Guide"}, "rootItem": {"href": "/mdr/root/sendig/datasets/CV/variables/CVSEQ", "title": "Version-agnostic anchor resource for SENDIG variable CV.CVSEQ", "type": "Root Data Element"}, "self": {"href": "/mdr/sendig/3-1/datasets/CV/variables/CVSEQ", "title": "Sequence Number", "type": "SDTM Dataset Variable"}}, "core": "Req", "description": "Sequence number given to ensure uniqueness of subject records within a domain. May be any valid number.", "label": "Sequence Number", "name": "CVSEQ", "ordinal": "4", "role": "Identifier", "simpleDatatype": "Num"}, {"_links": {"modelClassVariable": {"href": "/mdr/sdtm/1-5/classes/GeneralObservations/variables/--GRPID", "title": "Group ID", "type": "Class Variable"}, "parentDataset": {"href": "/mdr/sendig/3-1/datasets/CV", "title": "Cardiovascular Findings", "type": "SDTM Dataset"}, "parentProduct": {"href": "/mdr/sendig/3-1", "title": "Standard for Exchange of Nonclinical Data Implementation Guide: Nonclinical Studies Version 3.1 (Final)", "type": "Implementation Guide"}, "rootItem": {"href": "/mdr/root/sendig/datasets/CV/variables/CVGRPID", "title": "Version-agnostic anchor resource for SENDIG variable CV.CVGRPID", "type": "Root Data Element"}, "self": {"href": "/mdr/sendig/3-1/datasets/CV/variables/CVGRPID", "title": "Group Identifier", "type": "SDTM Dataset Variable"}}, "core": "Perm", "description": "Used to tie together a block of related records in a single domain for a subject and can be used to support relationships within the domain and between domains using RELREC. This is not the treatment group number.", "label": "Group Identifier", "name": "CVGRPID", "ordinal": "5", "role": "Identifier", "simpleDatatype": "Char"}, {"_links": {"modelClassVariable": {"href": "/mdr/sdtm/1-5/classes/GeneralObservations/variables/--SPID", "title": "Sponsor-Defined Identifier", "type": "Class Variable"}, "parentDataset": {"href": "/mdr/sendig/3-1/datasets/CV", "title": "Cardiovascular Findings", "type": "SDTM Dataset"}, "parentProduct": {"href": "/mdr/sendig/3-1", "title": "Standard for Exchange of Nonclinical Data Implementation Guide: Nonclinical Studies Version 3.1 (Final)", "type": "Implementation Guide"}, "rootItem": {"href": "/mdr/root/sendig/datasets/CV/variables/CVSPID", "title": "Version-agnostic anchor resource for SENDIG variable CV.CVSPID", "type": "Root Data Element"}, "self": {"href": "/mdr/sendig/3-1/datasets/CV/variables/CVSPID", "title": "Sponsor-Defined Identifier", "type": "SDTM Dataset Variable"}}, "core": "Perm", "description": "Sponsor-defined reference identifier", "label": "Sponsor-Defined Identifier", "name": "CVSPID", "ordinal": "6", "role": "Identifier", "simpleDatatype": "Char"}, {"_links": {"codelist": [{"href": "/mdr/root/ct/sendct/codelists/C120532", "title": "Version-agnostic anchor resource for codelist C120532", "type": "Root Value Domain"}], "modelClassVariable": {"href": "/mdr/sdtm/1-5/classes/Findings/variables/--TESTCD", "title": "Short Name of Measurement, Test or Examination", "type": "Class Variable"}, "parentDataset": {"href": "/mdr/sendig/3-1/datasets/CV", "title": "Cardiovascular Findings", "type": "SDTM Dataset"}, "parentProduct": {"href": "/mdr/sendig/3-1", "title": "Standard for Exchange of Nonclinical Data Implementation Guide: Nonclinical Studies Version 3.1 (Final)", "type": "Implementation Guide"}, "rootItem": {"href": "/mdr/root/sendig/datasets/CV/variables/CVTESTCD", "title": "Version-agnostic anchor resource for SENDIG variable CV.CVTESTCD", "type": "Root Data Element"}, "self": {"href": "/mdr/sendig/3-1/datasets/CV/variables/CVTESTCD", "title": "Test Short Name", "type": "SDTM Dataset Variable"}}, "core": "Req", "description": "Short name of the measurement, test, or examination described in CVTEST. It can be used as a column name when converting a dataset from a vertical to a horizontal format. The value in CVTESTCD cannot be longer than 8 characters, nor can it start with a number (e.g., \"1TEST\" is not valid). CVTESTCD cannot contain characters other than letters, numbers, or underscores. Examples: DIABP, HR, MAP, SYSBP.", "label": "Test Short Name", "name": "CVTESTCD", "ordinal": "7", "role": "Topic", "simpleDatatype": "Char"}, {"_links": {"codelist": [{"href": "/mdr/root/ct/sendct/codelists/C120533", "title": "Version-agnostic anchor resource for codelist C120533", "type": "Root Value Domain"}], "modelClassVariable": {"href": "/mdr/sdtm/1-5/classes/Findings/variables/--TEST", "title": "Name of Measurement, Test or Examination", "type": "Class Variable"}, "parentDataset": {"href": "/mdr/sendig/3-1/datasets/CV", "title": "Cardiovascular Findings", "type": "SDTM Dataset"}, "parentProduct": {"href": "/mdr/sendig/3-1", "title": "Standard for Exchange of Nonclinical Data Implementation Guide: Nonclinical Studies Version 3.1 (Final)", "type": "Implementation Guide"}, "rootItem": {"href": "/mdr/root/sendig/datasets/CV/variables/CVTEST", "title": "Version-agnostic anchor resource for SENDIG variable CV.CVTEST", "type": "Root Data Element"}, "self": {"href": "/mdr/sendig/3-1/datasets/CV/variables/CVTEST", "title": "Test Name", "type": "SDTM Dataset Variable"}}, "core": "Req", "description": "Long name for CVTESTCD. The value in CVTEST cannot be longer than 40 characters. Examples: Diastolic Blood Pressure, Heart Rate, Mean Arterial Pressure, Systolic Blood Pressure.", "label": "Test Name", "name": "CVTEST", "ordinal": "8", "role": "Synonym Qualifier", "simpleDatatype": "Char"}, {"_links": {"codelist": [{"href": "/mdr/root/ct/sendct/codelists/C71148", "title": "Version-agnostic anchor resource for codelist C71148", "type": "Root Value Domain"}], "modelClassVariable": {"href": "/mdr/sdtm/1-5/classes/Findings/variables/--POS", "title": "Position of Subject During Observation", "type": "Class Variable"}, "parentDataset": {"href": "/mdr/sendig/3-1/datasets/CV", "title": "Cardiovascular Findings", "type": "SDTM Dataset"}, "parentProduct": {"href": "/mdr/sendig/3-1", "title": "Standard for Exchange of Nonclinical Data Implementation Guide: Nonclinical Studies Version 3.1 (Final)", "type": "Implementation Guide"}, "rootItem": {"href": "/mdr/root/sendig/datasets/CV/variables/CVPOS", "title": "Version-agnostic anchor resource for SENDIG variable CV.CVPOS", "type": "Root Data Element"}, "self": {"href": "/mdr/sendig/3-1/datasets/CV/variables/CVPOS", "title": "Position of Subject During Test", "type": "SDTM Dataset Variable"}}, "core": "Exp", "description": "Position of the subject during the measurement or examination. If the subject is restrained, populate with the position (example SITTING or STANDING); otherwise, populate with UNCONSTRAINED.", "label": "Position of Subject During Test", "name": "CVPOS", "ordinal": "9", "role": "Record Qualifier", "simpleDatatype": "Char"}, {"_links": {"modelClassVariable": {"href": "/mdr/sdtm/1-5/classes/Findings/variables/--ORRES", "title": "Result or Finding in Original Units", "type": "Class Variable"}, "parentDataset": {"href": "/mdr/sendig/3-1/datasets/CV", "title": "Cardiovascular Findings", "type": "SDTM Dataset"}, "parentProduct": {"href": "/mdr/sendig/3-1", "title": "Standard for Exchange of Nonclinical Data Implementation Guide: Nonclinical Studies Version 3.1 (Final)", "type": "Implementation Guide"}, "rootItem": {"href": "/mdr/root/sendig/datasets/CV/variables/CVORRES", "title": "Version-agnostic anchor resource for SENDIG variable CV.CVORRES", "type": "Root Data Element"}, "self": {"href": "/mdr/sendig/3-1/datasets/CV/variables/CVORRES", "title": "Result or Findings as Collected", "type": "SDTM Dataset Variable"}}, "core": "Exp", "description": "Result of the measurement or finding as originally received or collected.", "label": "Result or Findings as Collected", "name": "CVORRES", "ordinal": "10", "role": "Result Qualifier", "simpleDatatype": "Char"}, {"_links": {"codelist": [{"href": "/mdr/root/ct/sendct/codelists/C71620", "title": "Version-agnostic anchor resource for codelist C71620", "type": "Root Value Domain"}], "modelClassVariable": {"href": "/mdr/sdtm/1-5/classes/Findings/variables/--ORRESU", "title": "Original Units", "type": "Class Variable"}, "parentDataset": {"href": "/mdr/sendig/3-1/datasets/CV", "title": "Cardiovascular Findings", "type": "SDTM Dataset"}, "parentProduct": {"href": "/mdr/sendig/3-1", "title": "Standard for Exchange of Nonclinical Data Implementation Guide: Nonclinical Studies Version 3.1 (Final)", "type": "Implementation Guide"}, "rootItem": {"href": "/mdr/root/sendig/datasets/CV/variables/CVORRESU", "title": "Version-agnostic anchor resource for SENDIG variable CV.CVORRESU", "type": "Root Data Element"}, "self": {"href": "/mdr/sendig/3-1/datasets/CV/variables/CVORRESU", "title": "Unit of the Original Result", "type": "SDTM Dataset Variable"}}, "core": "Exp", "description": "The unit for the original result. The unit of the original result should be mapped to a synonymous unit on the Controlled Terminology (http://www.cdisc.org/terminology) list.", "label": "Unit of the Original Result", "name": "CVORRESU", "ordinal": "11", "role": "Variable Qualifier", "simpleDatatype": "Char"}, {"_links": {"modelClassVariable": {"href": "/mdr/sdtm/1-5/classes/Findings/variables/--STRESC", "title": "Result or Finding in Standard Format", "type": "Class Variable"}, "parentDataset": {"href": "/mdr/sendig/3-1/datasets/CV", "title": "Cardiovascular Findings", "type": "SDTM Dataset"}, "parentProduct": {"href": "/mdr/sendig/3-1", "title": "Standard for Exchange of Nonclinical Data Implementation Guide: Nonclinical Studies Version 3.1 (Final)", "type": "Implementation Guide"}, "rootItem": {"href": "/mdr/root/sendig/datasets/CV/variables/CVSTRESC", "title": "Version-agnostic anchor resource for SENDIG variable CV.CVSTRESC", "type": "Root Data Element"}, "self": {"href": "/mdr/sendig/3-1/datasets/CV/variables/CVSTRESC", "title": "Standardized Result in Character Format", "type": "SDTM Dataset Variable"}}, "core": "Exp", "description": "Contains the result value for all findings, copied or derived from CVORRES in a standard format or standard units. CVSTRESC should store all results or findings in character format; if results are numeric, they should also be stored in numeric format in CVSTRESN.", "label": "Standardized Result in Character Format", "name": "CVSTRESC", "ordinal": "12", "role": "Result Qualifier", "simpleDatatype": "Char"}, {"_links": {"modelClassVariable": {"href": "/mdr/sdtm/1-5/classes/Findings/variables/--STRESN", "title": "Numeric Result/Finding in Standard Units", "type": "Class Variable"}, "parentDataset": {"href": "/mdr/sendig/3-1/datasets/CV", "title": "Cardiovascular Findings", "type": "SDTM Dataset"}, "parentProduct": {"href": "/mdr/sendig/3-1", "title": "Standard for Exchange of Nonclinical Data Implementation Guide: Nonclinical Studies Version 3.1 (Final)", "type": "Implementation Guide"}, "rootItem": {"href": "/mdr/root/sendig/datasets/CV/variables/CVSTRESN", "title": "Version-agnostic anchor resource for SENDIG variable CV.CVSTRESN", "type": "Root Data Element"}, "self": {"href": "/mdr/sendig/3-1/datasets/CV/variables/CVSTRESN", "title": "Standardized Result in Numeric Format", "type": "SDTM Dataset Variable"}}, "core": "Exp", "description": "Used for continuous or numeric results or findings in standard format; contains the numeric form of CVSTRESC. CVSTRESN should store all numeric test results or findings.", "label": "Standardized Result in Numeric Format", "name": "CVSTRESN", "ordinal": "13", "role": "Result Qualifier", "simpleDatatype": "Num"}, {"_links": {"codelist": [{"href": "/mdr/root/ct/sendct/codelists/C71620", "title": "Version-agnostic anchor resource for codelist C71620", "type": "Root Value Domain"}], "modelClassVariable": {"href": "/mdr/sdtm/1-5/classes/Findings/variables/--STRESU", "title": "Standard Units", "type": "Class Variable"}, "parentDataset": {"href": "/mdr/sendig/3-1/datasets/CV", "title": "Cardiovascular Findings", "type": "SDTM Dataset"}, "parentProduct": {"href": "/mdr/sendig/3-1", "title": "Standard for Exchange of Nonclinical Data Implementation Guide: Nonclinical Studies Version 3.1 (Final)", "type": "Implementation Guide"}, "rootItem": {"href": "/mdr/root/sendig/datasets/CV/variables/CVSTRESU", "title": "Version-agnostic anchor resource for SENDIG variable CV.CVSTRESU", "type": "Root Data Element"}, "self": {"href": "/mdr/sendig/3-1/datasets/CV/variables/CVSTRESU", "title": "Unit of the Standardized Result", "type": "SDTM Dataset Variable"}}, "core": "Exp", "description": "Standardized unit used for CVSTRESC and CVSTRESN.", "label": "Unit of the Standardized Result", "name": "CVSTRESU", "ordinal": "14", "role": "Variable Qualifier", "simpleDatatype": "Char"}, {"_links": {"codelist": [{"href": "/mdr/root/ct/sendct/codelists/C66789", "title": "Version-agnostic anchor resource for codelist C66789", "type": "Root Value Domain"}], "modelClassVariable": {"href": "/mdr/sdtm/1-5/classes/Findings/variables/--STAT", "title": "Completion Status", "type": "Class Variable"}, "parentDataset": {"href": "/mdr/sendig/3-1/datasets/CV", "title": "Cardiovascular Findings", "type": "SDTM Dataset"}, "parentProduct": {"href": "/mdr/sendig/3-1", "title": "Standard for Exchange of Nonclinical Data Implementation Guide: Nonclinical Studies Version 3.1 (Final)", "type": "Implementation Guide"}, "rootItem": {"href": "/mdr/root/sendig/datasets/CV/variables/CVSTAT", "title": "Version-agnostic anchor resource for SENDIG variable CV.CVSTAT", "type": "Root Data Element"}, "self": {"href": "/mdr/sendig/3-1/datasets/CV/variables/CVSTAT", "title": "Completion Status", "type": "SDTM Dataset Variable"}}, "core": "Perm", "description": "Used to indicate when a test is not done or result is missing. Should be null if a result exists in CVORRES.", "label": "Completion Status", "name": "CVSTAT", "ordinal": "15", "role": "Record Qualifier", "simpleDatatype": "Char"}, {"_links": {"modelClassVariable": {"href": "/mdr/sdtm/1-5/classes/Findings/variables/--REASND", "title": "Reason Not Done", "type": "Class Variable"}, "parentDataset": {"href": "/mdr/sendig/3-1/datasets/CV", "title": "Cardiovascular Findings", "type": "SDTM Dataset"}, "parentProduct": {"href": "/mdr/sendig/3-1", "title": "Standard for Exchange of Nonclinical Data Implementation Guide: Nonclinical Studies Version 3.1 (Final)", "type": "Implementation Guide"}, "rootItem": {"href": "/mdr/root/sendig/datasets/CV/variables/CVREASND", "title": "Version-agnostic anchor resource for SENDIG variable CV.CVREASND", "type": "Root Data Element"}, "self": {"href": "/mdr/sendig/3-1/datasets/CV/variables/CVREASND", "title": "Reason Not Done", "type": "SDTM Dataset Variable"}}, "core": "Perm", "description": "Describes why CVSTAT is NOT DONE, such as BROKEN EQUIPMENT.", "label": "Reason Not Done", "name": "CVREASND", "ordinal": "16", "role": "Record Qualifier", "simpleDatatype": "Char"}, {"_links": {"modelClassVariable": {"href": "/mdr/sdtm/1-5/classes/Findings/variables/--METHOD", "title": "Method of Test or Examination", "type": "Class Variable"}, "parentDataset": {"href": "/mdr/sendig/3-1/datasets/CV", "title": "Cardiovascular Findings", "type": "SDTM Dataset"}, "parentProduct": {"href": "/mdr/sendig/3-1", "title": "Standard for Exchange of Nonclinical Data Implementation Guide: Nonclinical Studies Version 3.1 (Final)", "type": "Implementation Guide"}, "rootItem": {"href": "/mdr/root/sendig/datasets/CV/variables/CVMETHOD", "title": "Version-agnostic anchor resource for SENDIG variable CV.CVMETHOD", "type": "Root Data Element"}, "self": {"href": "/mdr/sendig/3-1/datasets/CV/variables/CVMETHOD", "title": "Method of Test", "type": "SDTM Dataset Variable"}}, "core": "Exp", "description": "Method of the test or examination. Examples: Intravascular, External Cuff.", "label": "Method of Test", "name": "CVMETHOD", "ordinal": "17", "role": "Record Qualifier", "simpleDatatype": "Char"}, {"_links": {"codelist": [{"href": "/mdr/root/ct/sendct/codelists/C90018", "title": "Version-agnostic anchor resource for codelist C90018", "type": "Root Value Domain"}], "modelClassVariable": {"href": "/mdr/sdtm/1-5/classes/Findings/variables/--CSTATE", "title": "Consciousness State", "type": "Class Variable"}, "parentDataset": {"href": "/mdr/sendig/3-1/datasets/CV", "title": "Cardiovascular Findings", "type": "SDTM Dataset"}, "parentProduct": {"href": "/mdr/sendig/3-1", "title": "Standard for Exchange of Nonclinical Data Implementation Guide: Nonclinical Studies Version 3.1 (Final)", "type": "Implementation Guide"}, "rootItem": {"href": "/mdr/root/sendig/datasets/CV/variables/CVCSTATE", "title": "Version-agnostic anchor resource for SENDIG variable CV.CVCSTATE", "type": "Root Data Element"}, "self": {"href": "/mdr/sendig/3-1/datasets/CV/variables/CVCSTATE", "title": "Consciousness State", "type": "SDTM Dataset Variable"}}, "core": "Exp", "description": "Consciousness state of the subject at the time of measurement. Examples: CONSCIOUS, SEMI-CONSCIOUS, UNCONSCIOUS.", "label": "Consciousness State", "name": "CVCSTATE", "ordinal": "18", "role": "Record Qualifier", "simpleDatatype": "Char"}, {"_links": {"codelist": [{"href": "/mdr/root/ct/sendct/codelists/C66742", "title": "Version-agnostic anchor resource for codelist C66742", "type": "Root Value Domain"}], "modelClassVariable": {"href": "/mdr/sdtm/1-5/classes/Findings/variables/--BLFL", "title": "Baseline Flag", "type": "Class Variable"}, "parentDataset": {"href": "/mdr/sendig/3-1/datasets/CV", "title": "Cardiovascular Findings", "type": "SDTM Dataset"}, "parentProduct": {"href": "/mdr/sendig/3-1", "title": "Standard for Exchange of Nonclinical Data Implementation Guide: Nonclinical Studies Version 3.1 (Final)", "type": "Implementation Guide"}, "rootItem": {"href": "/mdr/root/sendig/datasets/CV/variables/CVBLFL", "title": "Version-agnostic anchor resource for SENDIG variable CV.CVBLFL", "type": "Root Data Element"}, "self": {"href": "/mdr/sendig/3-1/datasets/CV/variables/CVBLFL", "title": "Baseline Flag", "type": "SDTM Dataset Variable"}}, "core": "Exp", "description": "A baseline indicator may be used to calculate differences or changes from baseline. Value should be Y or null. The baseline flag is sponsor defined.", "label": "Baseline Flag", "name": "CVBLFL", "ordinal": "19", "role": "Record Qualifier", "simpleDatatype": "Char"}, {"_links": {"codelist": [{"href": "/mdr/root/ct/sendct/codelists/C66742", "title": "Version-agnostic anchor resource for codelist C66742", "type": "Root Value Domain"}], "modelClassVariable": {"href": "/mdr/sdtm/1-5/classes/Findings/variables/--DRVFL", "title": "Derived Flag", "type": "Class Variable"}, "parentDataset": {"href": "/mdr/sendig/3-1/datasets/CV", "title": "Cardiovascular Findings", "type": "SDTM Dataset"}, "parentProduct": {"href": "/mdr/sendig/3-1", "title": "Standard for Exchange of Nonclinical Data Implementation Guide: Nonclinical Studies Version 3.1 (Final)", "type": "Implementation Guide"}, "rootItem": {"href": "/mdr/root/sendig/datasets/CV/variables/CVDRVFL", "title": "Version-agnostic anchor resource for SENDIG variable CV.CVDRVFL", "type": "Root Data Element"}, "self": {"href": "/mdr/sendig/3-1/datasets/CV/variables/CVDRVFL", "title": "Derived Flag", "type": "SDTM Dataset Variable"}}, "core": "Perm", "description": "Used to indicate a derived record. The value should be Y or null.", "label": "Derived Flag", "name": "CVDRVFL", "ordinal": "20", "role": "Record Qualifier", "simpleDatatype": "Char"}, {"_links": {"codelist": [{"href": "/mdr/root/ct/sendct/codelists/C66742", "title": "Version-agnostic anchor resource for codelist C66742", "type": "Root Value Domain"}], "modelClassVariable": {"href": "/mdr/sdtm/1-5/classes/Findings/variables/--EXCLFL", "title": "Exclude from Statistics", "type": "Class Variable"}, "parentDataset": {"href": "/mdr/sendig/3-1/datasets/CV", "title": "Cardiovascular Findings", "type": "SDTM Dataset"}, "parentProduct": {"href": "/mdr/sendig/3-1", "title": "Standard for Exchange of Nonclinical Data Implementation Guide: Nonclinical Studies Version 3.1 (Final)", "type": "Implementation Guide"}, "rootItem": {"href": "/mdr/root/sendig/datasets/CV/variables/CVEXCLFL", "title": "Version-agnostic anchor resource for SENDIG variable CV.CVEXCLFL", "type": "Root Data Element"}, "self": {"href": "/mdr/sendig/3-1/datasets/CV/variables/CVEXCLFL", "title": "Exclusion Flag", "type": "SDTM Dataset Variable"}}, "core": "Perm", "description": "Y if the result should be excluded from all calculations, otherwise null.", "label": "Exclusion Flag", "name": "CVEXCLFL", "ordinal": "21", "role": "Record Qualifier", "simpleDatatype": "Char"}, {"_links": {"modelClassVariable": {"href": "/mdr/sdtm/1-5/classes/Findings/variables/--REASEX", "title": "Reason for Exclusion from Statistics", "type": "Class Variable"}, "parentDataset": {"href": "/mdr/sendig/3-1/datasets/CV", "title": "Cardiovascular Findings", "type": "SDTM Dataset"}, "parentProduct": {"href": "/mdr/sendig/3-1", "title": "Standard for Exchange of Nonclinical Data Implementation Guide: Nonclinical Studies Version 3.1 (Final)", "type": "Implementation Guide"}, "rootItem": {"href": "/mdr/root/sendig/datasets/CV/variables/CVREASEX", "title": "Version-agnostic anchor resource for SENDIG variable CV.CVREASEX", "type": "Root Data Element"}, "self": {"href": "/mdr/sendig/3-1/datasets/CV/variables/CVREASEX", "title": "Reason for Exclusion", "type": "SDTM Dataset Variable"}}, "core": "Perm", "description": "The reason the result should be excluded from all calculations. Used only when CVEXCLFL is Y.", "label": "Reason for Exclusion", "name": "CVREASEX", "ordinal": "22", "role": "Record Qualifier", "simpleDatatype": "Char"}, {"_links": {"codelist": [{"href": "/mdr/root/ct/sendct/codelists/C66742", "title": "Version-agnostic anchor resource for codelist C66742", "type": "Root Value Domain"}], "modelClassVariable": {"href": "/mdr/sdtm/1-5/classes/Findings/variables/--USCHFL", "title": "Unscheduled Flag", "type": "Class Variable"}, "parentDataset": {"href": "/mdr/sendig/3-1/datasets/CV", "title": "Cardiovascular Findings", "type": "SDTM Dataset"}, "parentProduct": {"href": "/mdr/sendig/3-1", "title": "Standard for Exchange of Nonclinical Data Implementation Guide: Nonclinical Studies Version 3.1 (Final)", "type": "Implementation Guide"}, "rootItem": {"href": "/mdr/root/sendig/datasets/CV/variables/CVUSCHFL", "title": "Version-agnostic anchor resource for SENDIG variable CV.CVUSCHFL", "type": "Root Data Element"}, "self": {"href": "/mdr/sendig/3-1/datasets/CV/variables/CVUSCHFL", "title": "Unscheduled Flag", "type": "SDTM Dataset Variable"}}, "core": "Perm", "description": "Indicates whether the timing of the performed test or observation was unscheduled. If a test or observation was performed based upon a schedule defined in the protocol, this flag should be null. Expected values are Y or null.", "label": "Unscheduled Flag", "name": "CVUSCHFL", "ordinal": "23", "role": "Record Qualifier", "simpleDatatype": "Char"}, {"_links": {"modelClassVariable": {"href": "/mdr/sdtm/1-5/classes/GeneralObservations/variables/--DTC", "title": "Date/Time of Collection", "type": "Class Variable"}, "parentDataset": {"href": "/mdr/sendig/3-1/datasets/CV", "title": "Cardiovascular Findings", "type": "SDTM Dataset"}, "parentProduct": {"href": "/mdr/sendig/3-1", "title": "Standard for Exchange of Nonclinical Data Implementation Guide: Nonclinical Studies Version 3.1 (Final)", "type": "Implementation Guide"}, "rootItem": {"href": "/mdr/root/sendig/datasets/CV/variables/CVDTC", "title": "Version-agnostic anchor resource for SENDIG variable CV.CVDTC", "type": "Root Data Element"}, "self": {"href": "/mdr/sendig/3-1/datasets/CV/variables/CVDTC", "title": "Date/Time of Cardiovascular Test", "type": "SDTM Dataset Variable"}}, "core": "Exp", "describedValueDomain": "ISO 8601", "description": "Date/Time of cardiovascular data collection, in ISO 8601 format. For measurements related to a continuous evaluation interval, CVDTC should be used to indicate the start date/time of that interval.", "label": "Date/Time of Cardiovascular Test", "name": "CVDTC", "ordinal": "24", "role": "Timing", "simpleDatatype": "Char"}, {"_links": {"modelClassVariable": {"href": "/mdr/sdtm/1-5/classes/GeneralObservations/variables/--ENDTC", "title": "End Date/Time of Observation", "type": "Class Variable"}, "parentDataset": {"href": "/mdr/sendig/3-1/datasets/CV", "title": "Cardiovascular Findings", "type": "SDTM Dataset"}, "parentProduct": {"href": "/mdr/sendig/3-1", "title": "Standard for Exchange of Nonclinical Data Implementation Guide: Nonclinical Studies Version 3.1 (Final)", "type": "Implementation Guide"}, "rootItem": {"href": "/mdr/root/sendig/datasets/CV/variables/CVENDTC", "title": "Version-agnostic anchor resource for SENDIG variable CV.CVENDTC", "type": "Root Data Element"}, "self": {"href": "/mdr/sendig/3-1/datasets/CV/variables/CVENDTC", "title": "End Date/Time of Cardiovascular Test", "type": "SDTM Dataset Variable"}}, "core": "Perm", "describedValueDomain": "ISO 8601", "description": "Date/Time of end of a cardiovascular evaluation interval, in ISO 8601 format. Should be populated when CVDTC represents the start date/time of a continuous evaluation interval.", "label": "End Date/Time of Cardiovascular Test", "name": "CVENDTC", "ordinal": "25", "role": "Timing", "simpleDatatype": "Char"}, {"_links": {"modelClassVariable": {"href": "/mdr/sdtm/1-5/classes/GeneralObservations/variables/--DY", "title": "Study Day of Visit/Collection/Exam", "type": "Class Variable"}, "parentDataset": {"href": "/mdr/sendig/3-1/datasets/CV", "title": "Cardiovascular Findings", "type": "SDTM Dataset"}, "parentProduct": {"href": "/mdr/sendig/3-1", "title": "Standard for Exchange of Nonclinical Data Implementation Guide: Nonclinical Studies Version 3.1 (Final)", "type": "Implementation Guide"}, "rootItem": {"href": "/mdr/root/sendig/datasets/CV/variables/CVDY", "title": "Version-agnostic anchor resource for SENDIG variable CV.CVDY", "type": "Root Data Element"}, "self": {"href": "/mdr/sendig/3-1/datasets/CV/variables/CVDY", "title": "Study Day of Cardiovascular Test", "type": "SDTM Dataset Variable"}}, "core": "Perm", "description": "Study day of cardiovascular data collection, in integer days. For measurements related to a continuous evaluation interval, CVDY can be used to indicate start day of that interval. The algorithm for calculating the day must be relative to the sponsor-defined RFSTDTC variable in the Demographics (DM) domain.", "label": "Study Day of Cardiovascular Test", "name": "CVDY", "ordinal": "26", "role": "Timing", "simpleDatatype": "Num"}, {"_links": {"modelClassVariable": {"href": "/mdr/sdtm/1-5/classes/GeneralObservations/variables/--ENDY", "title": "Study Day of End of Observation", "type": "Class Variable"}, "parentDataset": {"href": "/mdr/sendig/3-1/datasets/CV", "title": "Cardiovascular Findings", "type": "SDTM Dataset"}, "parentProduct": {"href": "/mdr/sendig/3-1", "title": "Standard for Exchange of Nonclinical Data Implementation Guide: Nonclinical Studies Version 3.1 (Final)", "type": "Implementation Guide"}, "rootItem": {"href": "/mdr/root/sendig/datasets/CV/variables/CVENDY", "title": "Version-agnostic anchor resource for SENDIG variable CV.CVENDY", "type": "Root Data Element"}, "self": {"href": "/mdr/sendig/3-1/datasets/CV/variables/CVENDY", "title": "Study Day of End of Cardiovascular Test", "type": "SDTM Dataset Variable"}}, "core": "Perm", "description": "Study day of the end of a cardiovascular evaluation interval, in integer days. Can be populated when CVDY represents the start day of a continuous evaluation interval. The algorithm for calculating the day must be relative to the sponsor-defined RFSTDTC variable in the Demographics (DM) domain.", "label": "Study Day of End of Cardiovascular Test", "name": "CVENDY", "ordinal": "27", "role": "Timing", "simpleDatatype": "Num"}, {"_links": {"modelClassVariable": {"href": "/mdr/sdtm/1-5/classes/GeneralObservations/variables/--NOMDY", "title": "Nominal Study Day for Tabulations", "type": "Class Variable"}, "parentDataset": {"href": "/mdr/sendig/3-1/datasets/CV", "title": "Cardiovascular Findings", "type": "SDTM Dataset"}, "parentProduct": {"href": "/mdr/sendig/3-1", "title": "Standard for Exchange of Nonclinical Data Implementation Guide: Nonclinical Studies Version 3.1 (Final)", "type": "Implementation Guide"}, "rootItem": {"href": "/mdr/root/sendig/datasets/CV/variables/CVNOMDY", "title": "Version-agnostic anchor resource for SENDIG variable CV.CVNOMDY", "type": "Root Data Element"}, "self": {"href": "/mdr/sendig/3-1/datasets/CV/variables/CVNOMDY", "title": "Nominal Study Day for Tabulations", "type": "SDTM Dataset Variable"}}, "core": "Exp", "description": "Nominal study day used for grouping records for observations that may occur on different days into a single reported study day. Should be an integer.", "label": "Nominal Study Day for Tabulations", "name": "CVNOMDY", "ordinal": "28", "role": "Timing", "simpleDatatype": "Num"}, {"_links": {"modelClassVariable": {"href": "/mdr/sdtm/1-5/classes/GeneralObservations/variables/--NOMLBL", "title": "Label for Nominal Study Day", "type": "Class Variable"}, "parentDataset": {"href": "/mdr/sendig/3-1/datasets/CV", "title": "Cardiovascular Findings", "type": "SDTM Dataset"}, "parentProduct": {"href": "/mdr/sendig/3-1", "title": "Standard for Exchange of Nonclinical Data Implementation Guide: Nonclinical Studies Version 3.1 (Final)", "type": "Implementation Guide"}, "rootItem": {"href": "/mdr/root/sendig/datasets/CV/variables/CVNOMLBL", "title": "Version-agnostic anchor resource for SENDIG variable CV.CVNOMLBL", "type": "Root Data Element"}, "self": {"href": "/mdr/sendig/3-1/datasets/CV/variables/CVNOMLBL", "title": "Label for Nominal Study Day", "type": "SDTM Dataset Variable"}}, "core": "Perm", "description": "A label for a given value of CVNOMDY as presented in the study report Examples: Pretreatment, Week 4, Day 28.", "label": "Label for Nominal Study Day", "name": "CVNOMLBL", "ordinal": "29", "role": "Timing", "simpleDatatype": "Char"}, {"_links": {"modelClassVariable": {"href": "/mdr/sdtm/1-5/classes/GeneralObservations/variables/--TPT", "title": "Planned Time Point Name", "type": "Class Variable"}, "parentDataset": {"href": "/mdr/sendig/3-1/datasets/CV", "title": "Cardiovascular Findings", "type": "SDTM Dataset"}, "parentProduct": {"href": "/mdr/sendig/3-1", "title": "Standard for Exchange of Nonclinical Data Implementation Guide: Nonclinical Studies Version 3.1 (Final)", "type": "Implementation Guide"}, "rootItem": {"href": "/mdr/root/sendig/datasets/CV/variables/CVTPT", "title": "Version-agnostic anchor resource for SENDIG variable CV.CVTPT", "type": "Root Data Element"}, "self": {"href": "/mdr/sendig/3-1/datasets/CV/variables/CVTPT", "title": "Planned Time Point Name", "type": "SDTM Dataset Variable"}}, "core": "Exp", "description": "Text description of time when data should be collected. This may be represented as an elapsed time relative to a fixed reference point, such as time of last dose. See CVTPTNUM and CVTPTREF. Examples: Predose, 1 Hour Postdose.", "label": "Planned Time Point Name", "name": "CVTPT", "ordinal": "30", "role": "Timing", "simpleDatatype": "Char"}, {"_links": {"modelClassVariable": {"href": "/mdr/sdtm/1-5/classes/GeneralObservations/variables/--TPTNUM", "title": "Planned Time Point Number", "type": "Class Variable"}, "parentDataset": {"href": "/mdr/sendig/3-1/datasets/CV", "title": "Cardiovascular Findings", "type": "SDTM Dataset"}, "parentProduct": {"href": "/mdr/sendig/3-1", "title": "Standard for Exchange of Nonclinical Data Implementation Guide: Nonclinical Studies Version 3.1 (Final)", "type": "Implementation Guide"}, "rootItem": {"href": "/mdr/root/sendig/datasets/CV/variables/CVTPTNUM", "title": "Version-agnostic anchor resource for SENDIG variable CV.CVTPTNUM", "type": "Root Data Element"}, "self": {"href": "/mdr/sendig/3-1/datasets/CV/variables/CVTPTNUM", "title": "Planned Time Point Number", "type": "SDTM Dataset Variable"}}, "core": "Exp", "description": "Numerical version of CVTPT to aid in sorting.", "label": "Planned Time Point Number", "name": "CVTPTNUM", "ordinal": "31", "role": "Timing", "simpleDatatype": "Num"}, {"_links": {"modelClassVariable": {"href": "/mdr/sdtm/1-5/classes/GeneralObservations/variables/--ELTM", "title": "Planned Elapsed Time from Time Point Ref", "type": "Class Variable"}, "parentDataset": {"href": "/mdr/sendig/3-1/datasets/CV", "title": "Cardiovascular Findings", "type": "SDTM Dataset"}, "parentProduct": {"href": "/mdr/sendig/3-1", "title": "Standard for Exchange of Nonclinical Data Implementation Guide: Nonclinical Studies Version 3.1 (Final)", "type": "Implementation Guide"}, "rootItem": {"href": "/mdr/root/sendig/datasets/CV/variables/CVELTM", "title": "Version-agnostic anchor resource for SENDIG variable CV.CVELTM", "type": "Root Data Element"}, "self": {"href": "/mdr/sendig/3-1/datasets/CV/variables/CVELTM", "title": "Planned Elapsed Time from Time Point Ref", "type": "SDTM Dataset Variable"}}, "core": "Exp", "describedValueDomain": "ISO 8601", "description": "Planned elapsed time (in ISO 8601 format) relative to a fixed time point reference (CVTPTREF). This variable is useful where there are repetitive measures. Not a clock time or a date time variable. Represented as an ISO 8601 duration. Examples: \"-PT15M\" to represent the period of 15 minutes prior to the reference point indicated by CVTPTREF, or \"PT8H\" to represent the period of 8 hours after the reference point indicated by CVTPTREF.", "label": "Planned Elapsed Time from Time Point Ref", "name": "CVELTM", "ordinal": "32", "role": "Timing", "simpleDatatype": "Char"}, {"_links": {"modelClassVariable": {"href": "/mdr/sdtm/1-5/classes/GeneralObservations/variables/--TPTREF", "title": "Time Point Reference", "type": "Class Variable"}, "parentDataset": {"href": "/mdr/sendig/3-1/datasets/CV", "title": "Cardiovascular Findings", "type": "SDTM Dataset"}, "parentProduct": {"href": "/mdr/sendig/3-1", "title": "Standard for Exchange of Nonclinical Data Implementation Guide: Nonclinical Studies Version 3.1 (Final)", "type": "Implementation Guide"}, "rootItem": {"href": "/mdr/root/sendig/datasets/CV/variables/CVTPTREF", "title": "Version-agnostic anchor resource for SENDIG variable CV.CVTPTREF", "type": "Root Data Element"}, "self": {"href": "/mdr/sendig/3-1/datasets/CV/variables/CVTPTREF", "title": "Time Point Reference", "type": "SDTM Dataset Variable"}}, "core": "Exp", "description": "Name of the fixed reference point referred to by CVELTM, if used for CVTPTNUM, and CVTPT. It is recommended that CVTPTREF be as descriptive as possible so the reference time point can be inferred without looking at others variables. Example: DAY 1 FIRST DOSE.", "label": "Time Point Reference", "name": "CVTPTREF", "ordinal": "33", "role": "Timing", "simpleDatatype": "Char"}, {"_links": {"modelClassVariable": {"href": "/mdr/sdtm/1-5/classes/GeneralObservations/variables/--RFTDTC", "title": "Date/Time of Reference Time Point", "type": "Class Variable"}, "parentDataset": {"href": "/mdr/sendig/3-1/datasets/CV", "title": "Cardiovascular Findings", "type": "SDTM Dataset"}, "parentProduct": {"href": "/mdr/sendig/3-1", "title": "Standard for Exchange of Nonclinical Data Implementation Guide: Nonclinical Studies Version 3.1 (Final)", "type": "Implementation Guide"}, "rootItem": {"href": "/mdr/root/sendig/datasets/CV/variables/CVRFTDTC", "title": "Version-agnostic anchor resource for SENDIG variable CV.CVRFTDTC", "type": "Root Data Element"}, "self": {"href": "/mdr/sendig/3-1/datasets/CV/variables/CVRFTDTC", "title": "Date/Time of Reference Time Point", "type": "SDTM Dataset Variable"}}, "core": "Perm", "describedValueDomain": "ISO 8601", "description": "Date/Time of the reference time point, CVTPTREF.", "label": "Date/Time of Reference Time Point", "name": "CVRFTDTC", "ordinal": "34", "role": "Timing", "simpleDatatype": "Char"}, {"_links": {"modelClassVariable": {"href": "/mdr/sdtm/1-5/classes/GeneralObservations/variables/--EVLINT", "title": "Evaluation Interval", "type": "Class Variable"}, "parentDataset": {"href": "/mdr/sendig/3-1/datasets/CV", "title": "Cardiovascular Findings", "type": "SDTM Dataset"}, "parentProduct": {"href": "/mdr/sendig/3-1", "title": "Standard for Exchange of Nonclinical Data Implementation Guide: Nonclinical Studies Version 3.1 (Final)", "type": "Implementation Guide"}, "rootItem": {"href": "/mdr/root/sendig/datasets/CV/variables/CVEVLINT", "title": "Version-agnostic anchor resource for SENDIG variable CV.CVEVLINT", "type": "Root Data Element"}, "self": {"href": "/mdr/sendig/3-1/datasets/CV/variables/CVEVLINT", "title": "Evaluation Interval", "type": "SDTM Dataset Variable"}}, "core": "Perm", "describedValueDomain": "ISO 8601", "description": "Length of evaluation interval in ISO 8601 duration format. Used in place of CVSTINT and CVENINT when CVTPTREF is not available.", "label": "Evaluation Interval", "name": "CVEVLINT", "ordinal": "35", "role": "Timing", "simpleDatatype": "Char"}, {"_links": {"modelClassVariable": {"href": "/mdr/sdtm/1-5/classes/GeneralObservations/variables/--STINT", "title": "Planned Start of Assessment Interval", "type": "Class Variable"}, "parentDataset": {"href": "/mdr/sendig/3-1/datasets/CV", "title": "Cardiovascular Findings", "type": "SDTM Dataset"}, "parentProduct": {"href": "/mdr/sendig/3-1", "title": "Standard for Exchange of Nonclinical Data Implementation Guide: Nonclinical Studies Version 3.1 (Final)", "type": "Implementation Guide"}, "rootItem": {"href": "/mdr/root/sendig/datasets/CV/variables/CVSTINT", "title": "Version-agnostic anchor resource for SENDIG variable CV.CVSTINT", "type": "Root Data Element"}, "self": {"href": "/mdr/sendig/3-1/datasets/CV/variables/CVSTINT", "title": "Planned Start of Assessment Interval", "type": "SDTM Dataset Variable"}}, "core": "Exp", "describedValueDomain": "ISO 8601", "description": "Planned start of an assessment interval relative to Time Point Reference (CVTPTREF) in ISO 8601 duration format. Example: When the evaluation interval is from 1 to 2 hours after dosing, the value would be PT1H.", "label": "Planned Start of Assessment Interval", "name": "CVSTINT", "ordinal": "36", "role": "Timing", "simpleDatatype": "Char"}, {"_links": {"modelClassVariable": {"href": "/mdr/sdtm/1-5/classes/GeneralObservations/variables/--ENINT", "title": "Planned End of Assessment Interval", "type": "Class Variable"}, "parentDataset": {"href": "/mdr/sendig/3-1/datasets/CV", "title": "Cardiovascular Findings", "type": "SDTM Dataset"}, "parentProduct": {"href": "/mdr/sendig/3-1", "title": "Standard for Exchange of Nonclinical Data Implementation Guide: Nonclinical Studies Version 3.1 (Final)", "type": "Implementation Guide"}, "rootItem": {"href": "/mdr/root/sendig/datasets/CV/variables/CVENINT", "title": "Version-agnostic anchor resource for SENDIG variable CV.CVENINT", "type": "Root Data Element"}, "self": {"href": "/mdr/sendig/3-1/datasets/CV/variables/CVENINT", "title": "Planned End of Assessment Interval", "type": "SDTM Dataset Variable"}}, "core": "Exp", "describedValueDomain": "ISO 8601", "description": "Planned end of an assessment interval relative to Time Point Reference (CVTPTREF) in ISO 8601 duration format. Example: When the evaluation interval is from 1 to 2 hours after dosing, the value would be PT2H.", "label": "Planned End of Assessment Interval", "name": "CVENINT", "ordinal": "37", "role": "Timing", "simpleDatatype": "Char"}], "description": "A findings domain that contains physiological and morphological findings related to the cardiovascular system, including the heart, blood vessels and lymphatic vessels. (Source: CDISC Controlled Terminology, SDOMAIN, C102605, 2018-06-29)", "label": "Cardiovascular Findings", "name": "CV", "ordinal": "22"}
