{"_links": {"parentClass": {"href": "/mdr/sendig/3-1/classes/Findings", "title": "Findings Observation Class", "type": "Class"}, "parentProduct": {"href": "/mdr/sendig/3-1", "title": "Standard for Exchange of Nonclinical Data Implementation Guide: Nonclinical Studies Version 3.1 (Final)", "type": "Implementation Guide"}, "priorVersion": {"href": "/mdr/sendig/3-0/datasets/EG", "title": "ECG", "type": "SDTM Dataset"}, "self": {"href": "/mdr/sendig/3-1/datasets/EG", "title": "ECG", "type": "SDTM Dataset"}}, "datasetStructure": "One record per test per ECG reference per observation time per subject", "datasetVariables": [{"_links": {"modelClassVariable": {"href": "/mdr/sdtm/1-5/classes/GeneralObservations/variables/STUDYID", "title": "Study Identifier", "type": "Class Variable"}, "parentDataset": {"href": "/mdr/sendig/3-1/datasets/EG", "title": "ECG", "type": "SDTM Dataset"}, "parentProduct": {"href": "/mdr/sendig/3-1", "title": "Standard for Exchange of Nonclinical Data Implementation Guide: Nonclinical Studies Version 3.1 (Final)", "type": "Implementation Guide"}, "priorVersion": {"href": "/mdr/sendig/3-0/datasets/EG/variables/STUDYID", "title": "Study Identifier", "type": "SDTM Dataset Variable"}, "rootItem": {"href": "/mdr/root/sendig/datasets/EG/variables/STUDYID", "title": "Version-agnostic anchor resource for SENDIG variable EG.STUDYID", "type": "Root Data Element"}, "self": {"href": "/mdr/sendig/3-1/datasets/EG/variables/STUDYID", "title": "Study Identifier", "type": "SDTM Dataset Variable"}}, "core": "Req", "description": "Unique identifier for a study.", "label": "Study Identifier", "name": "STUDYID", "ordinal": "1", "role": "Identifier", "simpleDatatype": "Char"}, {"_links": {"modelClassVariable": {"href": "/mdr/sdtm/1-5/classes/GeneralObservations/variables/DOMAIN", "title": "Domain Abbreviation", "type": "Class Variable"}, "parentDataset": {"href": "/mdr/sendig/3-1/datasets/EG", "title": "ECG", "type": "SDTM Dataset"}, "parentProduct": {"href": "/mdr/sendig/3-1", "title": "Standard for Exchange of Nonclinical Data Implementation Guide: Nonclinical Studies Version 3.1 (Final)", "type": "Implementation Guide"}, "priorVersion": {"href": "/mdr/sendig/3-0/datasets/EG/variables/DOMAIN", "title": "Domain Abbreviation", "type": "SDTM Dataset Variable"}, "rootItem": {"href": "/mdr/root/sendig/datasets/EG/variables/DOMAIN", "title": "Version-agnostic anchor resource for SENDIG variable EG.DOMAIN", "type": "Root Data Element"}, "self": {"href": "/mdr/sendig/3-1/datasets/EG/variables/DOMAIN", "title": "Domain Abbreviation", "type": "SDTM Dataset Variable"}}, "core": "Req", "description": "Two-character abbreviation for the domain.", "label": "Domain Abbreviation", "name": "DOMAIN", "ordinal": "2", "role": "Identifier", "simpleDatatype": "Char", "valueList": ["EG"]}, {"_links": {"modelClassVariable": {"href": "/mdr/sdtm/1-5/classes/GeneralObservations/variables/USUBJID", "title": "Unique Subject Identifier", "type": "Class Variable"}, "parentDataset": {"href": "/mdr/sendig/3-1/datasets/EG", "title": "ECG", "type": "SDTM Dataset"}, "parentProduct": {"href": "/mdr/sendig/3-1", "title": "Standard for Exchange of Nonclinical Data Implementation Guide: Nonclinical Studies Version 3.1 (Final)", "type": "Implementation Guide"}, "priorVersion": {"href": "/mdr/sendig/3-0/datasets/EG/variables/USUBJID", "title": "Unique Subject Identifier", "type": "SDTM Dataset Variable"}, "rootItem": {"href": "/mdr/root/sendig/datasets/EG/variables/USUBJID", "title": "Version-agnostic anchor resource for SENDIG variable EG.USUBJID", "type": "Root Data Element"}, "self": {"href": "/mdr/sendig/3-1/datasets/EG/variables/USUBJID", "title": "Unique Subject Identifier", "type": "SDTM Dataset Variable"}}, "core": "Req", "description": "Identifier used to uniquely identify a subject across all studies for all applications or submissions involving the product.", "label": "Unique Subject Identifier", "name": "USUBJID", "ordinal": "3", "role": "Identifier", "simpleDatatype": "Char"}, {"_links": {"modelClassVariable": {"href": "/mdr/sdtm/1-5/classes/GeneralObservations/variables/--SEQ", "title": "Sequence Number", "type": "Class Variable"}, "parentDataset": {"href": "/mdr/sendig/3-1/datasets/EG", "title": "ECG", "type": "SDTM Dataset"}, "parentProduct": {"href": "/mdr/sendig/3-1", "title": "Standard for Exchange of Nonclinical Data Implementation Guide: Nonclinical Studies Version 3.1 (Final)", "type": "Implementation Guide"}, "priorVersion": {"href": "/mdr/sendig/3-0/datasets/EG/variables/EGSEQ", "title": "Sequence Number", "type": "SDTM Dataset Variable"}, "rootItem": {"href": "/mdr/root/sendig/datasets/EG/variables/EGSEQ", "title": "Version-agnostic anchor resource for SENDIG variable EG.EGSEQ", "type": "Root Data Element"}, "self": {"href": "/mdr/sendig/3-1/datasets/EG/variables/EGSEQ", "title": "Sequence Number", "type": "SDTM Dataset Variable"}}, "core": "Req", "description": "Sequence number given to ensure uniqueness of subject records within a domain. May be any valid number.", "label": "Sequence Number", "name": "EGSEQ", "ordinal": "4", "role": "Identifier", "simpleDatatype": "Num"}, {"_links": {"modelClassVariable": {"href": "/mdr/sdtm/1-5/classes/GeneralObservations/variables/--GRPID", "title": "Group ID", "type": "Class Variable"}, "parentDataset": {"href": "/mdr/sendig/3-1/datasets/EG", "title": "ECG", "type": "SDTM Dataset"}, "parentProduct": {"href": "/mdr/sendig/3-1", "title": "Standard for Exchange of Nonclinical Data Implementation Guide: Nonclinical Studies Version 3.1 (Final)", "type": "Implementation Guide"}, "priorVersion": {"href": "/mdr/sendig/3-0/datasets/EG/variables/EGGRPID", "title": "Group Identifier", "type": "SDTM Dataset Variable"}, "rootItem": {"href": "/mdr/root/sendig/datasets/EG/variables/EGGRPID", "title": "Version-agnostic anchor resource for SENDIG variable EG.EGGRPID", "type": "Root Data Element"}, "self": {"href": "/mdr/sendig/3-1/datasets/EG/variables/EGGRPID", "title": "Group Identifier", "type": "SDTM Dataset Variable"}}, "core": "Perm", "description": "Used to tie together a block of related records in a single domain for a subject. This is not the treatment group number.", "label": "Group Identifier", "name": "EGGRPID", "ordinal": "5", "role": "Identifier", "simpleDatatype": "Char"}, {"_links": {"modelClassVariable": {"href": "/mdr/sdtm/1-5/classes/GeneralObservations/variables/--REFID", "title": "Reference ID", "type": "Class Variable"}, "parentDataset": {"href": "/mdr/sendig/3-1/datasets/EG", "title": "ECG", "type": "SDTM Dataset"}, "parentProduct": {"href": "/mdr/sendig/3-1", "title": "Standard for Exchange of Nonclinical Data Implementation Guide: Nonclinical Studies Version 3.1 (Final)", "type": "Implementation Guide"}, "priorVersion": {"href": "/mdr/sendig/3-0/datasets/EG/variables/EGREFID", "title": "ECG Reference Identifier", "type": "SDTM Dataset Variable"}, "rootItem": {"href": "/mdr/root/sendig/datasets/EG/variables/EGREFID", "title": "Version-agnostic anchor resource for SENDIG variable EG.EGREFID", "type": "Root Data Element"}, "self": {"href": "/mdr/sendig/3-1/datasets/EG/variables/EGREFID", "title": "ECG Reference Identifier", "type": "SDTM Dataset Variable"}}, "core": "Perm", "description": "Internal or external ECG identifier. Example: UUID.", "label": "ECG Reference Identifier", "name": "EGREFID", "ordinal": "6", "role": "Identifier", "simpleDatatype": "Char"}, {"_links": {"modelClassVariable": {"href": "/mdr/sdtm/1-5/classes/GeneralObservations/variables/--SPID", "title": "Sponsor-Defined Identifier", "type": "Class Variable"}, "parentDataset": {"href": "/mdr/sendig/3-1/datasets/EG", "title": "ECG", "type": "SDTM Dataset"}, "parentProduct": {"href": "/mdr/sendig/3-1", "title": "Standard for Exchange of Nonclinical Data Implementation Guide: Nonclinical Studies Version 3.1 (Final)", "type": "Implementation Guide"}, "priorVersion": {"href": "/mdr/sendig/3-0/datasets/EG/variables/EGSPID", "title": "Sponsor-Defined Identifier", "type": "SDTM Dataset Variable"}, "rootItem": {"href": "/mdr/root/sendig/datasets/EG/variables/EGSPID", "title": "Version-agnostic anchor resource for SENDIG variable EG.EGSPID", "type": "Root Data Element"}, "self": {"href": "/mdr/sendig/3-1/datasets/EG/variables/EGSPID", "title": "Sponsor-Defined Identifier", "type": "SDTM Dataset Variable"}}, "core": "Perm", "description": "Sponsor-defined reference identifier.", "label": "Sponsor-Defined Identifier", "name": "EGSPID", "ordinal": "7", "role": "Identifier", "simpleDatatype": "Char"}, {"_links": {"codelist": [{"href": "/mdr/root/ct/sendct/codelists/C71153", "title": "Version-agnostic anchor resource for codelist C71153", "type": "Root Value Domain"}], "modelClassVariable": {"href": "/mdr/sdtm/1-5/classes/Findings/variables/--TESTCD", "title": "Short Name of Measurement, Test or Examination", "type": "Class Variable"}, "parentDataset": {"href": "/mdr/sendig/3-1/datasets/EG", "title": "ECG", "type": "SDTM Dataset"}, "parentProduct": {"href": "/mdr/sendig/3-1", "title": "Standard for Exchange of Nonclinical Data Implementation Guide: Nonclinical Studies Version 3.1 (Final)", "type": "Implementation Guide"}, "priorVersion": {"href": "/mdr/sendig/3-0/datasets/EG/variables/EGTESTCD", "title": "ECG Test or Examination Short Name", "type": "SDTM Dataset Variable"}, "rootItem": {"href": "/mdr/root/sendig/datasets/EG/variables/EGTESTCD", "title": "Version-agnostic anchor resource for SENDIG variable EG.EGTESTCD", "type": "Root Data Element"}, "self": {"href": "/mdr/sendig/3-1/datasets/EG/variables/EGTESTCD", "title": "ECG Test Short Name", "type": "SDTM Dataset Variable"}}, "core": "Req", "description": "Short name of the measurement, test, or examination described in EGTEST. It can be used as a column name when converting a dataset from a vertical to a horizontal format. The value in EGTESTCD cannot be longer than 8 characters, nor can it start with a number (e.g., \"1TEST\" is not valid). EGTESTCD cannot contain characters other than letters, numbers, or underscores. Examples: EGHRMN, QTMAX.", "label": "ECG Test Short Name", "name": "EGTESTCD", "ordinal": "8", "role": "Topic", "simpleDatatype": "Char"}, {"_links": {"codelist": [{"href": "/mdr/root/ct/sendct/codelists/C71152", "title": "Version-agnostic anchor resource for codelist C71152", "type": "Root Value Domain"}], "modelClassVariable": {"href": "/mdr/sdtm/1-5/classes/Findings/variables/--TEST", "title": "Name of Measurement, Test or Examination", "type": "Class Variable"}, "parentDataset": {"href": "/mdr/sendig/3-1/datasets/EG", "title": "ECG", "type": "SDTM Dataset"}, "parentProduct": {"href": "/mdr/sendig/3-1", "title": "Standard for Exchange of Nonclinical Data Implementation Guide: Nonclinical Studies Version 3.1 (Final)", "type": "Implementation Guide"}, "priorVersion": {"href": "/mdr/sendig/3-0/datasets/EG/variables/EGTEST", "title": "ECG Test or Examination Name", "type": "SDTM Dataset Variable"}, "rootItem": {"href": "/mdr/root/sendig/datasets/EG/variables/EGTEST", "title": "Version-agnostic anchor resource for SENDIG variable EG.EGTEST", "type": "Root Data Element"}, "self": {"href": "/mdr/sendig/3-1/datasets/EG/variables/EGTEST", "title": "ECG Test Name", "type": "SDTM Dataset Variable"}}, "core": "Req", "description": "Long name for EGTESTCD. The value in EGTEST cannot be longer than 40 characters. Examples: ECG Mean Heart Rate, Summary (Max) QT Duration.", "label": "ECG Test Name", "name": "EGTEST", "ordinal": "9", "role": "Synonym Qualifier", "simpleDatatype": "Char"}, {"_links": {"codelist": [{"href": "/mdr/root/ct/sendct/codelists/C90012", "title": "Version-agnostic anchor resource for codelist C90012", "type": "Root Value Domain"}], "modelClassVariable": {"href": "/mdr/sdtm/1-5/classes/Findings/variables/--CAT", "title": "Category", "type": "Class Variable"}, "parentDataset": {"href": "/mdr/sendig/3-1/datasets/EG", "title": "ECG", "type": "SDTM Dataset"}, "parentProduct": {"href": "/mdr/sendig/3-1", "title": "Standard for Exchange of Nonclinical Data Implementation Guide: Nonclinical Studies Version 3.1 (Final)", "type": "Implementation Guide"}, "priorVersion": {"href": "/mdr/sendig/3-0/datasets/EG/variables/EGCAT", "title": "Category for ECG", "type": "SDTM Dataset Variable"}, "rootItem": {"href": "/mdr/root/sendig/datasets/EG/variables/EGCAT", "title": "Version-agnostic anchor resource for SENDIG variable EG.EGCAT", "type": "Root Data Element"}, "self": {"href": "/mdr/sendig/3-1/datasets/EG/variables/EGCAT", "title": "Category for ECG", "type": "SDTM Dataset Variable"}}, "core": "Perm", "description": "Used to define a category of the ECG test performed. Examples: MEASUREMENT, DIAGNOSIS, INTERPRETATION.", "label": "Category for ECG", "name": "EGCAT", "ordinal": "10", "role": "Grouping Qualifier", "simpleDatatype": "Char"}, {"_links": {"codelist": [{"href": "/mdr/root/ct/sendct/codelists/C71148", "title": "Version-agnostic anchor resource for codelist C71148", "type": "Root Value Domain"}], "modelClassVariable": {"href": "/mdr/sdtm/1-5/classes/Findings/variables/--POS", "title": "Position of Subject During Observation", "type": "Class Variable"}, "parentDataset": {"href": "/mdr/sendig/3-1/datasets/EG", "title": "ECG", "type": "SDTM Dataset"}, "parentProduct": {"href": "/mdr/sendig/3-1", "title": "Standard for Exchange of Nonclinical Data Implementation Guide: Nonclinical Studies Version 3.1 (Final)", "type": "Implementation Guide"}, "priorVersion": {"href": "/mdr/sendig/3-0/datasets/EG/variables/EGPOS", "title": "ECG Position of Subject", "type": "SDTM Dataset Variable"}, "rootItem": {"href": "/mdr/root/sendig/datasets/EG/variables/EGPOS", "title": "Version-agnostic anchor resource for SENDIG variable EG.EGPOS", "type": "Root Data Element"}, "self": {"href": "/mdr/sendig/3-1/datasets/EG/variables/EGPOS", "title": "ECG Position of Subject", "type": "SDTM Dataset Variable"}}, "core": "Exp", "description": "Position of the subject during a measurement or examination. If the subject is restrained, populate with the position (example SITTING or STANDING); otherwise, populate with UNCONSTRAINED.", "label": "ECG Position of Subject", "name": "EGPOS", "ordinal": "11", "role": "Record Qualifier", "simpleDatatype": "Char"}, {"_links": {"modelClassVariable": {"href": "/mdr/sdtm/1-5/classes/Findings/variables/--ORRES", "title": "Result or Finding in Original Units", "type": "Class Variable"}, "parentDataset": {"href": "/mdr/sendig/3-1/datasets/EG", "title": "ECG", "type": "SDTM Dataset"}, "parentProduct": {"href": "/mdr/sendig/3-1", "title": "Standard for Exchange of Nonclinical Data Implementation Guide: Nonclinical Studies Version 3.1 (Final)", "type": "Implementation Guide"}, "priorVersion": {"href": "/mdr/sendig/3-0/datasets/EG/variables/EGORRES", "title": "Result or Findings as Collected", "type": "SDTM Dataset Variable"}, "rootItem": {"href": "/mdr/root/sendig/datasets/EG/variables/EGORRES", "title": "Version-agnostic anchor resource for SENDIG variable EG.EGORRES", "type": "Root Data Element"}, "self": {"href": "/mdr/sendig/3-1/datasets/EG/variables/EGORRES", "title": "Result or Findings as Collected", "type": "SDTM Dataset Variable"}}, "core": "Exp", "description": "Result of the ECG measurement or finding as originally received or collected.", "label": "Result or Findings as Collected", "name": "EGORRES", "ordinal": "12", "role": "Result Qualifier", "simpleDatatype": "Char"}, {"_links": {"codelist": [{"href": "/mdr/root/ct/sendct/codelists/C71620", "title": "Version-agnostic anchor resource for codelist C71620", "type": "Root Value Domain"}], "modelClassVariable": {"href": "/mdr/sdtm/1-5/classes/Findings/variables/--ORRESU", "title": "Original Units", "type": "Class Variable"}, "parentDataset": {"href": "/mdr/sendig/3-1/datasets/EG", "title": "ECG", "type": "SDTM Dataset"}, "parentProduct": {"href": "/mdr/sendig/3-1", "title": "Standard for Exchange of Nonclinical Data Implementation Guide: Nonclinical Studies Version 3.1 (Final)", "type": "Implementation Guide"}, "priorVersion": {"href": "/mdr/sendig/3-0/datasets/EG/variables/EGORRESU", "title": "Unit of the Original Result", "type": "SDTM Dataset Variable"}, "rootItem": {"href": "/mdr/root/sendig/datasets/EG/variables/EGORRESU", "title": "Version-agnostic anchor resource for SENDIG variable EG.EGORRESU", "type": "Root Data Element"}, "self": {"href": "/mdr/sendig/3-1/datasets/EG/variables/EGORRESU", "title": "Unit of the Original Result", "type": "SDTM Dataset Variable"}}, "core": "Exp", "description": "The unit for the original result. The unit of the original result should be mapped to a synonymous unit on the Controlled Terminology (http://www.cdisc.org/terminology) list.", "label": "Unit of the Original Result", "name": "EGORRESU", "ordinal": "13", "role": "Variable Qualifier", "simpleDatatype": "Char"}, {"_links": {"codelist": [{"href": "/mdr/root/ct/sendct/codelists/C71150", "title": "Version-agnostic anchor resource for codelist C71150", "type": "Root Value Domain"}], "modelClassVariable": {"href": "/mdr/sdtm/1-5/classes/Findings/variables/--STRESC", "title": "Result or Finding in Standard Format", "type": "Class Variable"}, "parentDataset": {"href": "/mdr/sendig/3-1/datasets/EG", "title": "ECG", "type": "SDTM Dataset"}, "parentProduct": {"href": "/mdr/sendig/3-1", "title": "Standard for Exchange of Nonclinical Data Implementation Guide: Nonclinical Studies Version 3.1 (Final)", "type": "Implementation Guide"}, "priorVersion": {"href": "/mdr/sendig/3-0/datasets/EG/variables/EGSTRESC", "title": "Standardized Result in Character Format", "type": "SDTM Dataset Variable"}, "rootItem": {"href": "/mdr/root/sendig/datasets/EG/variables/EGSTRESC", "title": "Version-agnostic anchor resource for SENDIG variable EG.EGSTRESC", "type": "Root Data Element"}, "self": {"href": "/mdr/sendig/3-1/datasets/EG/variables/EGSTRESC", "title": "Standardized Result in Character Format", "type": "SDTM Dataset Variable"}}, "core": "Exp", "description": "Contains the result value for all findings, copied or derived from EGORRES, in a standard format or standard units. EGSTRESC should store all results or findings in character format, using controlled terminology, where possible. If results are numeric, they should also be stored in numeric format in EGSTRESN.", "label": "Standardized Result in Character Format", "name": "EGSTRESC", "ordinal": "14", "role": "Result Qualifier", "simpleDatatype": "Char"}, {"_links": {"modelClassVariable": {"href": "/mdr/sdtm/1-5/classes/Findings/variables/--STRESN", "title": "Numeric Result/Finding in Standard Units", "type": "Class Variable"}, "parentDataset": {"href": "/mdr/sendig/3-1/datasets/EG", "title": "ECG", "type": "SDTM Dataset"}, "parentProduct": {"href": "/mdr/sendig/3-1", "title": "Standard for Exchange of Nonclinical Data Implementation Guide: Nonclinical Studies Version 3.1 (Final)", "type": "Implementation Guide"}, "priorVersion": {"href": "/mdr/sendig/3-0/datasets/EG/variables/EGSTRESN", "title": "Standardized Result in Numeric Format", "type": "SDTM Dataset Variable"}, "rootItem": {"href": "/mdr/root/sendig/datasets/EG/variables/EGSTRESN", "title": "Version-agnostic anchor resource for SENDIG variable EG.EGSTRESN", "type": "Root Data Element"}, "self": {"href": "/mdr/sendig/3-1/datasets/EG/variables/EGSTRESN", "title": "Standardized Result in Numeric Format", "type": "SDTM Dataset Variable"}}, "core": "Exp", "description": "Used for numeric results or findings in standard format; contains the numeric form of EGSTRESC. EGSTRESN should store all numeric test results or findings.", "label": "Standardized Result in Numeric Format", "name": "EGSTRESN", "ordinal": "15", "role": "Result Qualifier", "simpleDatatype": "Num"}, {"_links": {"codelist": [{"href": "/mdr/root/ct/sendct/codelists/C71620", "title": "Version-agnostic anchor resource for codelist C71620", "type": "Root Value Domain"}], "modelClassVariable": {"href": "/mdr/sdtm/1-5/classes/Findings/variables/--STRESU", "title": "Standard Units", "type": "Class Variable"}, "parentDataset": {"href": "/mdr/sendig/3-1/datasets/EG", "title": "ECG", "type": "SDTM Dataset"}, "parentProduct": {"href": "/mdr/sendig/3-1", "title": "Standard for Exchange of Nonclinical Data Implementation Guide: Nonclinical Studies Version 3.1 (Final)", "type": "Implementation Guide"}, "priorVersion": {"href": "/mdr/sendig/3-0/datasets/EG/variables/EGSTRESU", "title": "Unit of the Standardized Result", "type": "SDTM Dataset Variable"}, "rootItem": {"href": "/mdr/root/sendig/datasets/EG/variables/EGSTRESU", "title": "Version-agnostic anchor resource for SENDIG variable EG.EGSTRESU", "type": "Root Data Element"}, "self": {"href": "/mdr/sendig/3-1/datasets/EG/variables/EGSTRESU", "title": "Unit of the Standardized Result", "type": "SDTM Dataset Variable"}}, "core": "Exp", "description": "Standardized unit used for EGSTRESC and EGSTRESN.", "label": "Unit of the Standardized Result", "name": "EGSTRESU", "ordinal": "16", "role": "Variable Qualifier", "simpleDatatype": "Char"}, {"_links": {"codelist": [{"href": "/mdr/root/ct/sendct/codelists/C66789", "title": "Version-agnostic anchor resource for codelist C66789", "type": "Root Value Domain"}], "modelClassVariable": {"href": "/mdr/sdtm/1-5/classes/Findings/variables/--STAT", "title": "Completion Status", "type": "Class Variable"}, "parentDataset": {"href": "/mdr/sendig/3-1/datasets/EG", "title": "ECG", "type": "SDTM Dataset"}, "parentProduct": {"href": "/mdr/sendig/3-1", "title": "Standard for Exchange of Nonclinical Data Implementation Guide: Nonclinical Studies Version 3.1 (Final)", "type": "Implementation Guide"}, "priorVersion": {"href": "/mdr/sendig/3-0/datasets/EG/variables/EGSTAT", "title": "Completion Status", "type": "SDTM Dataset Variable"}, "rootItem": {"href": "/mdr/root/sendig/datasets/EG/variables/EGSTAT", "title": "Version-agnostic anchor resource for SENDIG variable EG.EGSTAT", "type": "Root Data Element"}, "self": {"href": "/mdr/sendig/3-1/datasets/EG/variables/EGSTAT", "title": "Completion Status", "type": "SDTM Dataset Variable"}}, "core": "Perm", "description": "Used to indicate when a test is not done or result is missing. Should be null if a result exists in EGORRES.", "label": "Completion Status", "name": "EGSTAT", "ordinal": "17", "role": "Record Qualifier", "simpleDatatype": "Char"}, {"_links": {"modelClassVariable": {"href": "/mdr/sdtm/1-5/classes/Findings/variables/--REASND", "title": "Reason Not Done", "type": "Class Variable"}, "parentDataset": {"href": "/mdr/sendig/3-1/datasets/EG", "title": "ECG", "type": "SDTM Dataset"}, "parentProduct": {"href": "/mdr/sendig/3-1", "title": "Standard for Exchange of Nonclinical Data Implementation Guide: Nonclinical Studies Version 3.1 (Final)", "type": "Implementation Guide"}, "priorVersion": {"href": "/mdr/sendig/3-0/datasets/EG/variables/EGREASND", "title": "Reason Not Done", "type": "SDTM Dataset Variable"}, "rootItem": {"href": "/mdr/root/sendig/datasets/EG/variables/EGREASND", "title": "Version-agnostic anchor resource for SENDIG variable EG.EGREASND", "type": "Root Data Element"}, "self": {"href": "/mdr/sendig/3-1/datasets/EG/variables/EGREASND", "title": "Reason Not Done", "type": "SDTM Dataset Variable"}}, "core": "Perm", "description": "Describes why EGSTAT is NOT DONE, such as BROKEN EQUIPMENT.", "label": "Reason Not Done", "name": "EGREASND", "ordinal": "18", "role": "Record Qualifier", "simpleDatatype": "Char"}, {"_links": {"modelClassVariable": {"href": "/mdr/sdtm/1-5/classes/Findings/variables/--XFN", "title": "External File Path", "type": "Class Variable"}, "parentDataset": {"href": "/mdr/sendig/3-1/datasets/EG", "title": "ECG", "type": "SDTM Dataset"}, "parentProduct": {"href": "/mdr/sendig/3-1", "title": "Standard for Exchange of Nonclinical Data Implementation Guide: Nonclinical Studies Version 3.1 (Final)", "type": "Implementation Guide"}, "priorVersion": {"href": "/mdr/sendig/3-0/datasets/EG/variables/EGXFN", "title": "ECG External File Name", "type": "SDTM Dataset Variable"}, "rootItem": {"href": "/mdr/root/sendig/datasets/EG/variables/EGXFN", "title": "Version-agnostic anchor resource for SENDIG variable EG.EGXFN", "type": "Root Data Element"}, "self": {"href": "/mdr/sendig/3-1/datasets/EG/variables/EGXFN", "title": "ECG External File Name", "type": "SDTM Dataset Variable"}}, "core": "Perm", "description": "File name and path for the external ECG Waveform file. Would be used if sponsor is requested to submit waveform.", "label": "ECG External File Name", "name": "EGXFN", "ordinal": "19", "role": "Record Qualifier", "simpleDatatype": "Char"}, {"_links": {"modelClassVariable": {"href": "/mdr/sdtm/1-5/classes/Findings/variables/--NAM", "title": "Laboratory/Vendor Name", "type": "Class Variable"}, "parentDataset": {"href": "/mdr/sendig/3-1/datasets/EG", "title": "ECG", "type": "SDTM Dataset"}, "parentProduct": {"href": "/mdr/sendig/3-1", "title": "Standard for Exchange of Nonclinical Data Implementation Guide: Nonclinical Studies Version 3.1 (Final)", "type": "Implementation Guide"}, "priorVersion": {"href": "/mdr/sendig/3-0/datasets/EG/variables/EGNAM", "title": "Vendor Name", "type": "SDTM Dataset Variable"}, "rootItem": {"href": "/mdr/root/sendig/datasets/EG/variables/EGNAM", "title": "Version-agnostic anchor resource for SENDIG variable EG.EGNAM", "type": "Root Data Element"}, "self": {"href": "/mdr/sendig/3-1/datasets/EG/variables/EGNAM", "title": "Laboratory Name", "type": "SDTM Dataset Variable"}}, "core": "Perm", "description": "Name or identifier of the laboratory or vendor that provided the test results.", "label": "Laboratory Name", "name": "EGNAM", "ordinal": "20", "role": "Record Qualifier", "simpleDatatype": "Char"}, {"_links": {"codelist": [{"href": "/mdr/root/ct/sendct/codelists/C71151", "title": "Version-agnostic anchor resource for codelist C71151", "type": "Root Value Domain"}], "modelClassVariable": {"href": "/mdr/sdtm/1-5/classes/Findings/variables/--METHOD", "title": "Method of Test or Examination", "type": "Class Variable"}, "parentDataset": {"href": "/mdr/sendig/3-1/datasets/EG", "title": "ECG", "type": "SDTM Dataset"}, "parentProduct": {"href": "/mdr/sendig/3-1", "title": "Standard for Exchange of Nonclinical Data Implementation Guide: Nonclinical Studies Version 3.1 (Final)", "type": "Implementation Guide"}, "priorVersion": {"href": "/mdr/sendig/3-0/datasets/EG/variables/EGMETHOD", "title": "Method of ECG Test", "type": "SDTM Dataset Variable"}, "rootItem": {"href": "/mdr/root/sendig/datasets/EG/variables/EGMETHOD", "title": "Version-agnostic anchor resource for SENDIG variable EG.EGMETHOD", "type": "Root Data Element"}, "self": {"href": "/mdr/sendig/3-1/datasets/EG/variables/EGMETHOD", "title": "Method of ECG Test", "type": "SDTM Dataset Variable"}}, "core": "Exp", "description": "Method of the test or examination. Examples: 12 LEAD STANDARD, 6 LEAD STANDARD.", "label": "Method of ECG Test", "name": "EGMETHOD", "ordinal": "21", "role": "Record Qualifier", "simpleDatatype": "Char"}, {"_links": {"codelist": [{"href": "/mdr/root/ct/sendct/codelists/C90013", "title": "Version-agnostic anchor resource for codelist C90013", "type": "Root Value Domain"}], "modelClassVariable": {"href": "/mdr/sdtm/1-5/classes/Findings/variables/--LEAD", "title": "Lead Identified to Collect Measurements", "type": "Class Variable"}, "parentDataset": {"href": "/mdr/sendig/3-1/datasets/EG", "title": "ECG", "type": "SDTM Dataset"}, "parentProduct": {"href": "/mdr/sendig/3-1", "title": "Standard for Exchange of Nonclinical Data Implementation Guide: Nonclinical Studies Version 3.1 (Final)", "type": "Implementation Guide"}, "priorVersion": {"href": "/mdr/sendig/3-0/datasets/EG/variables/EGLEAD", "title": "Location Used for Measurement", "type": "SDTM Dataset Variable"}, "rootItem": {"href": "/mdr/root/sendig/datasets/EG/variables/EGLEAD", "title": "Version-agnostic anchor resource for SENDIG variable EG.EGLEAD", "type": "Root Data Element"}, "self": {"href": "/mdr/sendig/3-1/datasets/EG/variables/EGLEAD", "title": "Lead Used for Measurement", "type": "SDTM Dataset Variable"}}, "core": "Exp", "description": "Lead identified to capture the measurement.", "label": "Lead Used for Measurement", "name": "EGLEAD", "ordinal": "22", "role": "Record Qualifier", "simpleDatatype": "Char"}, {"_links": {"codelist": [{"href": "/mdr/root/ct/sendct/codelists/C90018", "title": "Version-agnostic anchor resource for codelist C90018", "type": "Root Value Domain"}], "modelClassVariable": {"href": "/mdr/sdtm/1-5/classes/Findings/variables/--CSTATE", "title": "Consciousness State", "type": "Class Variable"}, "parentDataset": {"href": "/mdr/sendig/3-1/datasets/EG", "title": "ECG", "type": "SDTM Dataset"}, "parentProduct": {"href": "/mdr/sendig/3-1", "title": "Standard for Exchange of Nonclinical Data Implementation Guide: Nonclinical Studies Version 3.1 (Final)", "type": "Implementation Guide"}, "priorVersion": {"href": "/mdr/sendig/3-0/datasets/EG/variables/EGCSTATE", "title": "Consciousness State", "type": "SDTM Dataset Variable"}, "rootItem": {"href": "/mdr/root/sendig/datasets/EG/variables/EGCSTATE", "title": "Version-agnostic anchor resource for SENDIG variable EG.EGCSTATE", "type": "Root Data Element"}, "self": {"href": "/mdr/sendig/3-1/datasets/EG/variables/EGCSTATE", "title": "Consciousness State", "type": "SDTM Dataset Variable"}}, "core": "Exp", "description": "Consciousness state of the subject at the time of measurement. Examples: CONSCIOUS, SEMI-CONSCIOUS, UNCONSCIOUS.", "label": "Consciousness State", "name": "EGCSTATE", "ordinal": "23", "role": "Record Qualifier", "simpleDatatype": "Char"}, {"_links": {"codelist": [{"href": "/mdr/root/ct/sendct/codelists/C66742", "title": "Version-agnostic anchor resource for codelist C66742", "type": "Root Value Domain"}], "modelClassVariable": {"href": "/mdr/sdtm/1-5/classes/Findings/variables/--BLFL", "title": "Baseline Flag", "type": "Class Variable"}, "parentDataset": {"href": "/mdr/sendig/3-1/datasets/EG", "title": "ECG", "type": "SDTM Dataset"}, "parentProduct": {"href": "/mdr/sendig/3-1", "title": "Standard for Exchange of Nonclinical Data Implementation Guide: Nonclinical Studies Version 3.1 (Final)", "type": "Implementation Guide"}, "priorVersion": {"href": "/mdr/sendig/3-0/datasets/EG/variables/EGBLFL", "title": "Baseline Flag", "type": "SDTM Dataset Variable"}, "rootItem": {"href": "/mdr/root/sendig/datasets/EG/variables/EGBLFL", "title": "Version-agnostic anchor resource for SENDIG variable EG.EGBLFL", "type": "Root Data Element"}, "self": {"href": "/mdr/sendig/3-1/datasets/EG/variables/EGBLFL", "title": "Baseline Flag", "type": "SDTM Dataset Variable"}}, "core": "Exp", "description": "A baseline indicator may be used to calculate differences or changes from baseline. Value should be Y or null. The baseline flag is sponsor defined.", "label": "Baseline Flag", "name": "EGBLFL", "ordinal": "24", "role": "Record Qualifier", "simpleDatatype": "Char"}, {"_links": {"codelist": [{"href": "/mdr/root/ct/sendct/codelists/C66742", "title": "Version-agnostic anchor resource for codelist C66742", "type": "Root Value Domain"}], "modelClassVariable": {"href": "/mdr/sdtm/1-5/classes/Findings/variables/--DRVFL", "title": "Derived Flag", "type": "Class Variable"}, "parentDataset": {"href": "/mdr/sendig/3-1/datasets/EG", "title": "ECG", "type": "SDTM Dataset"}, "parentProduct": {"href": "/mdr/sendig/3-1", "title": "Standard for Exchange of Nonclinical Data Implementation Guide: Nonclinical Studies Version 3.1 (Final)", "type": "Implementation Guide"}, "priorVersion": {"href": "/mdr/sendig/3-0/datasets/EG/variables/EGDRVFL", "title": "Derived Flag", "type": "SDTM Dataset Variable"}, "rootItem": {"href": "/mdr/root/sendig/datasets/EG/variables/EGDRVFL", "title": "Version-agnostic anchor resource for SENDIG variable EG.EGDRVFL", "type": "Root Data Element"}, "self": {"href": "/mdr/sendig/3-1/datasets/EG/variables/EGDRVFL", "title": "Derived Flag", "type": "SDTM Dataset Variable"}}, "core": "Perm", "description": "Used to indicate a derived record. The value should be Y or null. Records that represent the average of other records, or that are not as originally received or collected, are examples of records that might be derived for the submission datasets.", "label": "Derived Flag", "name": "EGDRVFL", "ordinal": "25", "role": "Record Qualifier", "simpleDatatype": "Char"}, {"_links": {"modelClassVariable": {"href": "/mdr/sdtm/1-5/classes/Findings/variables/--EVAL", "title": "Evaluator", "type": "Class Variable"}, "parentDataset": {"href": "/mdr/sendig/3-1/datasets/EG", "title": "ECG", "type": "SDTM Dataset"}, "parentProduct": {"href": "/mdr/sendig/3-1", "title": "Standard for Exchange of Nonclinical Data Implementation Guide: Nonclinical Studies Version 3.1 (Final)", "type": "Implementation Guide"}, "priorVersion": {"href": "/mdr/sendig/3-0/datasets/EG/variables/EGEVAL", "title": "Evaluator", "type": "SDTM Dataset Variable"}, "rootItem": {"href": "/mdr/root/sendig/datasets/EG/variables/EGEVAL", "title": "Version-agnostic anchor resource for SENDIG variable EG.EGEVAL", "type": "Root Data Element"}, "self": {"href": "/mdr/sendig/3-1/datasets/EG/variables/EGEVAL", "title": "Evaluator", "type": "SDTM Dataset Variable"}}, "core": "Perm", "description": "Role of the person who provided the evaluation. Should be null for records that contain collected or derived data. Examples: RESPONSIBLE SCIENTIST, PRINCIPAL INVESTIGATOR, PEER REVIEWER.", "label": "Evaluator", "name": "EGEVAL", "ordinal": "26", "role": "Record Qualifier", "simpleDatatype": "Char"}, {"_links": {"codelist": [{"href": "/mdr/root/ct/sendct/codelists/C66742", "title": "Version-agnostic anchor resource for codelist C66742", "type": "Root Value Domain"}], "modelClassVariable": {"href": "/mdr/sdtm/1-5/classes/Findings/variables/--EXCLFL", "title": "Exclude from Statistics", "type": "Class Variable"}, "parentDataset": {"href": "/mdr/sendig/3-1/datasets/EG", "title": "ECG", "type": "SDTM Dataset"}, "parentProduct": {"href": "/mdr/sendig/3-1", "title": "Standard for Exchange of Nonclinical Data Implementation Guide: Nonclinical Studies Version 3.1 (Final)", "type": "Implementation Guide"}, "priorVersion": {"href": "/mdr/sendig/3-0/datasets/EG/variables/EGEXCLFL", "title": "Exclusion Flag", "type": "SDTM Dataset Variable"}, "rootItem": {"href": "/mdr/root/sendig/datasets/EG/variables/EGEXCLFL", "title": "Version-agnostic anchor resource for SENDIG variable EG.EGEXCLFL", "type": "Root Data Element"}, "self": {"href": "/mdr/sendig/3-1/datasets/EG/variables/EGEXCLFL", "title": "Exclusion Flag", "type": "SDTM Dataset Variable"}}, "core": "Perm", "description": "Y if the result should be excluded from all calculations, otherwise null.", "label": "Exclusion Flag", "name": "EGEXCLFL", "ordinal": "27", "role": "Record Qualifier", "simpleDatatype": "Char"}, {"_links": {"modelClassVariable": {"href": "/mdr/sdtm/1-5/classes/Findings/variables/--REASEX", "title": "Reason for Exclusion from Statistics", "type": "Class Variable"}, "parentDataset": {"href": "/mdr/sendig/3-1/datasets/EG", "title": "ECG", "type": "SDTM Dataset"}, "parentProduct": {"href": "/mdr/sendig/3-1", "title": "Standard for Exchange of Nonclinical Data Implementation Guide: Nonclinical Studies Version 3.1 (Final)", "type": "Implementation Guide"}, "priorVersion": {"href": "/mdr/sendig/3-0/datasets/EG/variables/EGREASEX", "title": "Reason for Exclusion", "type": "SDTM Dataset Variable"}, "rootItem": {"href": "/mdr/root/sendig/datasets/EG/variables/EGREASEX", "title": "Version-agnostic anchor resource for SENDIG variable EG.EGREASEX", "type": "Root Data Element"}, "self": {"href": "/mdr/sendig/3-1/datasets/EG/variables/EGREASEX", "title": "Reason for Exclusion", "type": "SDTM Dataset Variable"}}, "core": "Perm", "description": "The reason the result should be excluded from all calculations. Used only when EGEXCLFL is Y.", "label": "Reason for Exclusion", "name": "EGREASEX", "ordinal": "28", "role": "Record Qualifier", "simpleDatatype": "Char"}, {"_links": {"codelist": [{"href": "/mdr/root/ct/sendct/codelists/C66742", "title": "Version-agnostic anchor resource for codelist C66742", "type": "Root Value Domain"}], "modelClassVariable": {"href": "/mdr/sdtm/1-5/classes/Findings/variables/--USCHFL", "title": "Unscheduled Flag", "type": "Class Variable"}, "parentDataset": {"href": "/mdr/sendig/3-1/datasets/EG", "title": "ECG", "type": "SDTM Dataset"}, "parentProduct": {"href": "/mdr/sendig/3-1", "title": "Standard for Exchange of Nonclinical Data Implementation Guide: Nonclinical Studies Version 3.1 (Final)", "type": "Implementation Guide"}, "rootItem": {"href": "/mdr/root/sendig/datasets/EG/variables/EGUSCHFL", "title": "Version-agnostic anchor resource for SENDIG variable EG.EGUSCHFL", "type": "Root Data Element"}, "self": {"href": "/mdr/sendig/3-1/datasets/EG/variables/EGUSCHFL", "title": "Unscheduled Flag", "type": "SDTM Dataset Variable"}}, "core": "Perm", "description": "Indicates whether the timing of the performed test or observation was unscheduled. If a test or observation was performed based upon a schedule defined in the protocol, this flag should be null. Expected values are Y or null.", "label": "Unscheduled Flag", "name": "EGUSCHFL", "ordinal": "29", "role": "Record Qualifier", "simpleDatatype": "Char"}, {"_links": {"modelClassVariable": {"href": "/mdr/sdtm/1-5/classes/GeneralObservations/variables/VISITDY", "title": "Planned Study Day of Visit", "type": "Class Variable"}, "parentDataset": {"href": "/mdr/sendig/3-1/datasets/EG", "title": "ECG", "type": "SDTM Dataset"}, "parentProduct": {"href": "/mdr/sendig/3-1", "title": "Standard for Exchange of Nonclinical Data Implementation Guide: Nonclinical Studies Version 3.1 (Final)", "type": "Implementation Guide"}, "priorVersion": {"href": "/mdr/sendig/3-0/datasets/EG/variables/VISITDY", "title": "Planned Study Day of Collection", "type": "SDTM Dataset Variable"}, "rootItem": {"href": "/mdr/root/sendig/datasets/EG/variables/VISITDY", "title": "Version-agnostic anchor resource for SENDIG variable EG.VISITDY", "type": "Root Data Element"}, "self": {"href": "/mdr/sendig/3-1/datasets/EG/variables/VISITDY", "title": "Planned Study Day of Collection", "type": "SDTM Dataset Variable"}}, "core": "Perm", "description": "Planned study day of collection. Should be an integer.", "label": "Planned Study Day of Collection", "name": "VISITDY", "ordinal": "30", "role": "Timing", "simpleDatatype": "Num"}, {"_links": {"modelClassVariable": {"href": "/mdr/sdtm/1-5/classes/GeneralObservations/variables/--DTC", "title": "Date/Time of Collection", "type": "Class Variable"}, "parentDataset": {"href": "/mdr/sendig/3-1/datasets/EG", "title": "ECG", "type": "SDTM Dataset"}, "parentProduct": {"href": "/mdr/sendig/3-1", "title": "Standard for Exchange of Nonclinical Data Implementation Guide: Nonclinical Studies Version 3.1 (Final)", "type": "Implementation Guide"}, "priorVersion": {"href": "/mdr/sendig/3-0/datasets/EG/variables/EGDTC", "title": "Date/Time of ECG", "type": "SDTM Dataset Variable"}, "rootItem": {"href": "/mdr/root/sendig/datasets/EG/variables/EGDTC", "title": "Version-agnostic anchor resource for SENDIG variable EG.EGDTC", "type": "Root Data Element"}, "self": {"href": "/mdr/sendig/3-1/datasets/EG/variables/EGDTC", "title": "Date/Time of ECG Collection", "type": "SDTM Dataset Variable"}}, "core": "Exp", "describedValueDomain": "ISO 8601", "description": "Date/Time of ECG data collection, in ISO 8601 format. For indicating measurement over a continuous period, DTC should be used to indicate start date/time of collection.", "label": "Date/Time of ECG Collection", "name": "EGDTC", "ordinal": "31", "role": "Timing", "simpleDatatype": "Char"}, {"_links": {"modelClassVariable": {"href": "/mdr/sdtm/1-5/classes/GeneralObservations/variables/--ENDTC", "title": "End Date/Time of Observation", "type": "Class Variable"}, "parentDataset": {"href": "/mdr/sendig/3-1/datasets/EG", "title": "ECG", "type": "SDTM Dataset"}, "parentProduct": {"href": "/mdr/sendig/3-1", "title": "Standard for Exchange of Nonclinical Data Implementation Guide: Nonclinical Studies Version 3.1 (Final)", "type": "Implementation Guide"}, "priorVersion": {"href": "/mdr/sendig/3-0/datasets/EG/variables/EGENDTC", "title": "End Date/Time of ECG Collection", "type": "SDTM Dataset Variable"}, "rootItem": {"href": "/mdr/root/sendig/datasets/EG/variables/EGENDTC", "title": "Version-agnostic anchor resource for SENDIG variable EG.EGENDTC", "type": "Root Data Element"}, "self": {"href": "/mdr/sendig/3-1/datasets/EG/variables/EGENDTC", "title": "End Date/Time of ECG Collection", "type": "SDTM Dataset Variable"}}, "core": "Perm", "describedValueDomain": "ISO 8601", "description": "Date/Time of end of the ECG data collection, in ISO 8601 format. Should be populated for measurement over a continuous period only.", "label": "End Date/Time of ECG Collection", "name": "EGENDTC", "ordinal": "32", "role": "Timing", "simpleDatatype": "Char"}, {"_links": {"modelClassVariable": {"href": "/mdr/sdtm/1-5/classes/GeneralObservations/variables/--DY", "title": "Study Day of Visit/Collection/Exam", "type": "Class Variable"}, "parentDataset": {"href": "/mdr/sendig/3-1/datasets/EG", "title": "ECG", "type": "SDTM Dataset"}, "parentProduct": {"href": "/mdr/sendig/3-1", "title": "Standard for Exchange of Nonclinical Data Implementation Guide: Nonclinical Studies Version 3.1 (Final)", "type": "Implementation Guide"}, "priorVersion": {"href": "/mdr/sendig/3-0/datasets/EG/variables/EGDY", "title": "Study Day of ECG Collection", "type": "SDTM Dataset Variable"}, "rootItem": {"href": "/mdr/root/sendig/datasets/EG/variables/EGDY", "title": "Version-agnostic anchor resource for SENDIG variable EG.EGDY", "type": "Root Data Element"}, "self": {"href": "/mdr/sendig/3-1/datasets/EG/variables/EGDY", "title": "Study Day of ECG Collection", "type": "SDTM Dataset Variable"}}, "core": "Perm", "description": "Study day of the ECG measurement collection, in integer days. The algorithm for calculations must be relative to the sponsor-defined RFSTDTC variable in the Demographics (DM) domain.", "label": "Study Day of ECG Collection", "name": "EGDY", "ordinal": "33", "role": "Timing", "simpleDatatype": "Num"}, {"_links": {"modelClassVariable": {"href": "/mdr/sdtm/1-5/classes/GeneralObservations/variables/--ENDY", "title": "Study Day of End of Observation", "type": "Class Variable"}, "parentDataset": {"href": "/mdr/sendig/3-1/datasets/EG", "title": "ECG", "type": "SDTM Dataset"}, "parentProduct": {"href": "/mdr/sendig/3-1", "title": "Standard for Exchange of Nonclinical Data Implementation Guide: Nonclinical Studies Version 3.1 (Final)", "type": "Implementation Guide"}, "priorVersion": {"href": "/mdr/sendig/3-0/datasets/EG/variables/EGENDY", "title": "Study Day of End of ECG Collection", "type": "SDTM Dataset Variable"}, "rootItem": {"href": "/mdr/root/sendig/datasets/EG/variables/EGENDY", "title": "Version-agnostic anchor resource for SENDIG variable EG.EGENDY", "type": "Root Data Element"}, "self": {"href": "/mdr/sendig/3-1/datasets/EG/variables/EGENDY", "title": "Study Day of End of ECG Collection", "type": "SDTM Dataset Variable"}}, "core": "Perm", "description": "Study day of the end of the ECG measurement collection, in integer days. The algorithm for calculations must be relative to the sponsor-defined RFSTDTC variable in the Demographics (DM) domain.", "label": "Study Day of End of ECG Collection", "name": "EGENDY", "ordinal": "34", "role": "Timing", "simpleDatatype": "Num"}, {"_links": {"modelClassVariable": {"href": "/mdr/sdtm/1-5/classes/GeneralObservations/variables/--NOMDY", "title": "Nominal Study Day for Tabulations", "type": "Class Variable"}, "parentDataset": {"href": "/mdr/sendig/3-1/datasets/EG", "title": "ECG", "type": "SDTM Dataset"}, "parentProduct": {"href": "/mdr/sendig/3-1", "title": "Standard for Exchange of Nonclinical Data Implementation Guide: Nonclinical Studies Version 3.1 (Final)", "type": "Implementation Guide"}, "rootItem": {"href": "/mdr/root/sendig/datasets/EG/variables/EGNOMDY", "title": "Version-agnostic anchor resource for SENDIG variable EG.EGNOMDY", "type": "Root Data Element"}, "self": {"href": "/mdr/sendig/3-1/datasets/EG/variables/EGNOMDY", "title": "Nominal Study Day for Tabulations", "type": "SDTM Dataset Variable"}}, "core": "Exp", "description": "Nominal study day used for grouping records for observations that may occur on different days into a single reported study day. Should be an integer.", "label": "Nominal Study Day for Tabulations", "name": "EGNOMDY", "ordinal": "35", "role": "Timing", "simpleDatatype": "Num"}, {"_links": {"modelClassVariable": {"href": "/mdr/sdtm/1-5/classes/GeneralObservations/variables/--NOMLBL", "title": "Label for Nominal Study Day", "type": "Class Variable"}, "parentDataset": {"href": "/mdr/sendig/3-1/datasets/EG", "title": "ECG", "type": "SDTM Dataset"}, "parentProduct": {"href": "/mdr/sendig/3-1", "title": "Standard for Exchange of Nonclinical Data Implementation Guide: Nonclinical Studies Version 3.1 (Final)", "type": "Implementation Guide"}, "rootItem": {"href": "/mdr/root/sendig/datasets/EG/variables/EGNOMLBL", "title": "Version-agnostic anchor resource for SENDIG variable EG.EGNOMLBL", "type": "Root Data Element"}, "self": {"href": "/mdr/sendig/3-1/datasets/EG/variables/EGNOMLBL", "title": "Label for Nominal Study Day", "type": "SDTM Dataset Variable"}}, "core": "Perm", "description": "A label for a given value of EGNOMDY as presented in the study report. Examples: Pre-Treatment, Week 4, Day 28.", "label": "Label for Nominal Study Day", "name": "EGNOMLBL", "ordinal": "36", "role": "Timing", "simpleDatatype": "Char"}, {"_links": {"modelClassVariable": {"href": "/mdr/sdtm/1-5/classes/GeneralObservations/variables/--TPT", "title": "Planned Time Point Name", "type": "Class Variable"}, "parentDataset": {"href": "/mdr/sendig/3-1/datasets/EG", "title": "ECG", "type": "SDTM Dataset"}, "parentProduct": {"href": "/mdr/sendig/3-1", "title": "Standard for Exchange of Nonclinical Data Implementation Guide: Nonclinical Studies Version 3.1 (Final)", "type": "Implementation Guide"}, "priorVersion": {"href": "/mdr/sendig/3-0/datasets/EG/variables/EGTPT", "title": "Planned Time Point Name", "type": "SDTM Dataset Variable"}, "rootItem": {"href": "/mdr/root/sendig/datasets/EG/variables/EGTPT", "title": "Version-agnostic anchor resource for SENDIG variable EG.EGTPT", "type": "Root Data Element"}, "self": {"href": "/mdr/sendig/3-1/datasets/EG/variables/EGTPT", "title": "Planned Time Point Name", "type": "SDTM Dataset Variable"}}, "core": "Perm", "description": "Text description of time when ECG data should be collected. Note: This may be represented as an elapsed time relative to a fixed reference point, such as time of last dose. See EGTPTNUM and EGTPTREF. Examples: Predose, 1 Hour Postdose.", "label": "Planned Time Point Name", "name": "EGTPT", "ordinal": "37", "role": "Timing", "simpleDatatype": "Char"}, {"_links": {"modelClassVariable": {"href": "/mdr/sdtm/1-5/classes/GeneralObservations/variables/--TPTNUM", "title": "Planned Time Point Number", "type": "Class Variable"}, "parentDataset": {"href": "/mdr/sendig/3-1/datasets/EG", "title": "ECG", "type": "SDTM Dataset"}, "parentProduct": {"href": "/mdr/sendig/3-1", "title": "Standard for Exchange of Nonclinical Data Implementation Guide: Nonclinical Studies Version 3.1 (Final)", "type": "Implementation Guide"}, "priorVersion": {"href": "/mdr/sendig/3-0/datasets/EG/variables/EGTPTNUM", "title": "Planned Time Point Number", "type": "SDTM Dataset Variable"}, "rootItem": {"href": "/mdr/root/sendig/datasets/EG/variables/EGTPTNUM", "title": "Version-agnostic anchor resource for SENDIG variable EG.EGTPTNUM", "type": "Root Data Element"}, "self": {"href": "/mdr/sendig/3-1/datasets/EG/variables/EGTPTNUM", "title": "Planned Time Point Number", "type": "SDTM Dataset Variable"}}, "core": "Perm", "description": "Numerical version of EGTPT to aid in sorting.", "label": "Planned Time Point Number", "name": "EGTPTNUM", "ordinal": "38", "role": "Timing", "simpleDatatype": "Num"}, {"_links": {"modelClassVariable": {"href": "/mdr/sdtm/1-5/classes/GeneralObservations/variables/--ELTM", "title": "Planned Elapsed Time from Time Point Ref", "type": "Class Variable"}, "parentDataset": {"href": "/mdr/sendig/3-1/datasets/EG", "title": "ECG", "type": "SDTM Dataset"}, "parentProduct": {"href": "/mdr/sendig/3-1", "title": "Standard for Exchange of Nonclinical Data Implementation Guide: Nonclinical Studies Version 3.1 (Final)", "type": "Implementation Guide"}, "priorVersion": {"href": "/mdr/sendig/3-0/datasets/EG/variables/EGELTM", "title": "Planned Elapsed Time from Time Point Ref", "type": "SDTM Dataset Variable"}, "rootItem": {"href": "/mdr/root/sendig/datasets/EG/variables/EGELTM", "title": "Version-agnostic anchor resource for SENDIG variable EG.EGELTM", "type": "Root Data Element"}, "self": {"href": "/mdr/sendig/3-1/datasets/EG/variables/EGELTM", "title": "Planned Elapsed Time from Time Point Ref", "type": "SDTM Dataset Variable"}}, "core": "Perm", "describedValueDomain": "ISO 8601", "description": "Planned elapsed time (in ISO 8601 format) relative to a fixed time point reference (EGTPTREF). This variable is useful where there are repetitive measures. Not a clock-time or a date-time variable. Represented as an ISO 8601 duration. Examples: \"-PT15M\" to represent the period of 15 minutes prior to the reference point indicated by EGTPTREF, or \"PT8H\" to represent the period of 8 hours after the reference point indicated by EGTPTREF.", "label": "Planned Elapsed Time from Time Point Ref", "name": "EGELTM", "ordinal": "39", "role": "Timing", "simpleDatatype": "Char"}, {"_links": {"modelClassVariable": {"href": "/mdr/sdtm/1-5/classes/GeneralObservations/variables/--TPTREF", "title": "Time Point Reference", "type": "Class Variable"}, "parentDataset": {"href": "/mdr/sendig/3-1/datasets/EG", "title": "ECG", "type": "SDTM Dataset"}, "parentProduct": {"href": "/mdr/sendig/3-1", "title": "Standard for Exchange of Nonclinical Data Implementation Guide: Nonclinical Studies Version 3.1 (Final)", "type": "Implementation Guide"}, "priorVersion": {"href": "/mdr/sendig/3-0/datasets/EG/variables/EGTPTREF", "title": "Time Point Reference", "type": "SDTM Dataset Variable"}, "rootItem": {"href": "/mdr/root/sendig/datasets/EG/variables/EGTPTREF", "title": "Version-agnostic anchor resource for SENDIG variable EG.EGTPTREF", "type": "Root Data Element"}, "self": {"href": "/mdr/sendig/3-1/datasets/EG/variables/EGTPTREF", "title": "Time Point Reference", "type": "SDTM Dataset Variable"}}, "core": "Perm", "description": "Name of the fixed reference point referred to by EGELTM, if used for EGTPTNUM, and EGTPT. It is recommended that EGTPTREF be as descriptive as possible so the reference time point can be inferred without looking at others variables. Example: DAY 1 FIRST DOSE.", "label": "Time Point Reference", "name": "EGTPTREF", "ordinal": "40", "role": "Timing", "simpleDatatype": "Char"}, {"_links": {"modelClassVariable": {"href": "/mdr/sdtm/1-5/classes/GeneralObservations/variables/--RFTDTC", "title": "Date/Time of Reference Time Point", "type": "Class Variable"}, "parentDataset": {"href": "/mdr/sendig/3-1/datasets/EG", "title": "ECG", "type": "SDTM Dataset"}, "parentProduct": {"href": "/mdr/sendig/3-1", "title": "Standard for Exchange of Nonclinical Data Implementation Guide: Nonclinical Studies Version 3.1 (Final)", "type": "Implementation Guide"}, "priorVersion": {"href": "/mdr/sendig/3-0/datasets/EG/variables/EGRFTDTC", "title": "Date/Time of Reference Time Point", "type": "SDTM Dataset Variable"}, "rootItem": {"href": "/mdr/root/sendig/datasets/EG/variables/EGRFTDTC", "title": "Version-agnostic anchor resource for SENDIG variable EG.EGRFTDTC", "type": "Root Data Element"}, "self": {"href": "/mdr/sendig/3-1/datasets/EG/variables/EGRFTDTC", "title": "Date/Time of Reference Time Point", "type": "SDTM Dataset Variable"}}, "core": "Perm", "describedValueDomain": "ISO 8601", "description": "Date/Time of the reference time point, EGTPTREF.", "label": "Date/Time of Reference Time Point", "name": "EGRFTDTC", "ordinal": "41", "role": "Timing", "simpleDatatype": "Char"}, {"_links": {"modelClassVariable": {"href": "/mdr/sdtm/1-5/classes/GeneralObservations/variables/--EVLINT", "title": "Evaluation Interval", "type": "Class Variable"}, "parentDataset": {"href": "/mdr/sendig/3-1/datasets/EG", "title": "ECG", "type": "SDTM Dataset"}, "parentProduct": {"href": "/mdr/sendig/3-1", "title": "Standard for Exchange of Nonclinical Data Implementation Guide: Nonclinical Studies Version 3.1 (Final)", "type": "Implementation Guide"}, "priorVersion": {"href": "/mdr/sendig/3-0/datasets/EG/variables/EGEVLINT", "title": "Evaluation Interval", "type": "SDTM Dataset Variable"}, "rootItem": {"href": "/mdr/root/sendig/datasets/EG/variables/EGEVLINT", "title": "Version-agnostic anchor resource for SENDIG variable EG.EGEVLINT", "type": "Root Data Element"}, "self": {"href": "/mdr/sendig/3-1/datasets/EG/variables/EGEVLINT", "title": "Evaluation Interval", "type": "SDTM Dataset Variable"}}, "core": "Perm", "describedValueDomain": "ISO 8601", "description": "Length of evaluation interval in ISO 8601 duration format. Used in place of EGSTINT and EGENINT when EGTPTREF is not available.", "label": "Evaluation Interval", "name": "EGEVLINT", "ordinal": "42", "role": "Timing", "simpleDatatype": "Char"}, {"_links": {"modelClassVariable": {"href": "/mdr/sdtm/1-5/classes/GeneralObservations/variables/--STINT", "title": "Planned Start of Assessment Interval", "type": "Class Variable"}, "parentDataset": {"href": "/mdr/sendig/3-1/datasets/EG", "title": "ECG", "type": "SDTM Dataset"}, "parentProduct": {"href": "/mdr/sendig/3-1", "title": "Standard for Exchange of Nonclinical Data Implementation Guide: Nonclinical Studies Version 3.1 (Final)", "type": "Implementation Guide"}, "rootItem": {"href": "/mdr/root/sendig/datasets/EG/variables/EGSTINT", "title": "Version-agnostic anchor resource for SENDIG variable EG.EGSTINT", "type": "Root Data Element"}, "self": {"href": "/mdr/sendig/3-1/datasets/EG/variables/EGSTINT", "title": "Planned Start of Assessment Interval", "type": "SDTM Dataset Variable"}}, "core": "Perm", "describedValueDomain": "ISO 8601", "description": "Planned Start of an asessment interval relative to Time Point Reference (EGTPTREF) in ISO 8601 duration format.", "label": "Planned Start of Assessment Interval", "name": "EGSTINT", "ordinal": "43", "role": "Timing", "simpleDatatype": "Char"}, {"_links": {"modelClassVariable": {"href": "/mdr/sdtm/1-5/classes/GeneralObservations/variables/--ENINT", "title": "Planned End of Assessment Interval", "type": "Class Variable"}, "parentDataset": {"href": "/mdr/sendig/3-1/datasets/EG", "title": "ECG", "type": "SDTM Dataset"}, "parentProduct": {"href": "/mdr/sendig/3-1", "title": "Standard for Exchange of Nonclinical Data Implementation Guide: Nonclinical Studies Version 3.1 (Final)", "type": "Implementation Guide"}, "rootItem": {"href": "/mdr/root/sendig/datasets/EG/variables/EGENINT", "title": "Version-agnostic anchor resource for SENDIG variable EG.EGENINT", "type": "Root Data Element"}, "self": {"href": "/mdr/sendig/3-1/datasets/EG/variables/EGENINT", "title": "Planned End of Assessment Interval", "type": "SDTM Dataset Variable"}}, "core": "Perm", "describedValueDomain": "ISO 8601", "description": "Planned End of an assessment interval relative to Time Point Reference (EGTPTREF) in ISO 8601 duration format.", "label": "Planned End of Assessment Interval", "name": "EGENINT", "ordinal": "44", "role": "Timing", "simpleDatatype": "Char"}], "description": "A findings domain that contains ECG data, including position of the subject, method of evaluation, all cycle measurements and all findings from the ECG including an overall interpretation if collected or derived. (Source: CDISC Controlled Terminology, SDOMAIN, C49626, 2018-06-29)", "label": "ECG", "name": "EG", "ordinal": "21"}
