{"_links": {"parentClass": {"href": "/mdr/sendig/3-1/classes/Findings", "title": "Findings Observation Class", "type": "Class"}, "parentProduct": {"href": "/mdr/sendig/3-1", "title": "Standard for Exchange of Nonclinical Data Implementation Guide: Nonclinical Studies Version 3.1 (Final)", "type": "Implementation Guide"}, "priorVersion": {"href": "/mdr/sendig/3-0/datasets/LB", "title": "Laboratory", "type": "SDTM Dataset"}, "self": {"href": "/mdr/sendig/3-1/datasets/LB", "title": "Laboratory", "type": "SDTM Dataset"}}, "datasetStructure": "One record per test per specimen per observation time per subject or pool", "datasetVariables": [{"_links": {"modelClassVariable": {"href": "/mdr/sdtm/1-5/classes/GeneralObservations/variables/STUDYID", "title": "Study Identifier", "type": "Class Variable"}, "parentDataset": {"href": "/mdr/sendig/3-1/datasets/LB", "title": "Laboratory", "type": "SDTM Dataset"}, "parentProduct": {"href": "/mdr/sendig/3-1", "title": "Standard for Exchange of Nonclinical Data Implementation Guide: Nonclinical Studies Version 3.1 (Final)", "type": "Implementation Guide"}, "priorVersion": {"href": "/mdr/sendig/3-0/datasets/LB/variables/STUDYID", "title": "Study Identifier", "type": "SDTM Dataset Variable"}, "rootItem": {"href": "/mdr/root/sendig/datasets/LB/variables/STUDYID", "title": "Version-agnostic anchor resource for SENDIG variable LB.STUDYID", "type": "Root Data Element"}, "self": {"href": "/mdr/sendig/3-1/datasets/LB/variables/STUDYID", "title": "Study Identifier", "type": "SDTM Dataset Variable"}}, "core": "Req", "description": "Unique identifier for a study.", "label": "Study Identifier", "name": "STUDYID", "ordinal": "1", "role": "Identifier", "simpleDatatype": "Char"}, {"_links": {"modelClassVariable": {"href": "/mdr/sdtm/1-5/classes/GeneralObservations/variables/DOMAIN", "title": "Domain Abbreviation", "type": "Class Variable"}, "parentDataset": {"href": "/mdr/sendig/3-1/datasets/LB", "title": "Laboratory", "type": "SDTM Dataset"}, "parentProduct": {"href": "/mdr/sendig/3-1", "title": "Standard for Exchange of Nonclinical Data Implementation Guide: Nonclinical Studies Version 3.1 (Final)", "type": "Implementation Guide"}, "priorVersion": {"href": "/mdr/sendig/3-0/datasets/LB/variables/DOMAIN", "title": "Domain Abbreviation", "type": "SDTM Dataset Variable"}, "rootItem": {"href": "/mdr/root/sendig/datasets/LB/variables/DOMAIN", "title": "Version-agnostic anchor resource for SENDIG variable LB.DOMAIN", "type": "Root Data Element"}, "self": {"href": "/mdr/sendig/3-1/datasets/LB/variables/DOMAIN", "title": "Domain Abbreviation", "type": "SDTM Dataset Variable"}}, "core": "Req", "description": "Two-character abbreviation for the domain.", "label": "Domain Abbreviation", "name": "DOMAIN", "ordinal": "2", "role": "Identifier", "simpleDatatype": "Char", "valueList": ["LB"]}, {"_links": {"modelClassVariable": {"href": "/mdr/sdtm/1-5/classes/GeneralObservations/variables/USUBJID", "title": "Unique Subject Identifier", "type": "Class Variable"}, "parentDataset": {"href": "/mdr/sendig/3-1/datasets/LB", "title": "Laboratory", "type": "SDTM Dataset"}, "parentProduct": {"href": "/mdr/sendig/3-1", "title": "Standard for Exchange of Nonclinical Data Implementation Guide: Nonclinical Studies Version 3.1 (Final)", "type": "Implementation Guide"}, "priorVersion": {"href": "/mdr/sendig/3-0/datasets/LB/variables/USUBJID", "title": "Unique Subject Identifier", "type": "SDTM Dataset Variable"}, "rootItem": {"href": "/mdr/root/sendig/datasets/LB/variables/USUBJID", "title": "Version-agnostic anchor resource for SENDIG variable LB.USUBJID", "type": "Root Data Element"}, "self": {"href": "/mdr/sendig/3-1/datasets/LB/variables/USUBJID", "title": "Unique Subject Identifier", "type": "SDTM Dataset Variable"}}, "core": "Exp", "description": "Identifier used to uniquely identify a subject across all studies for all application or submissions involving the product. Either USUBJID or POOLID must be populated.", "label": "Unique Subject Identifier", "name": "USUBJID", "ordinal": "3", "role": "Identifier", "simpleDatatype": "Char"}, {"_links": {"modelClassVariable": {"href": "/mdr/sdtm/1-5/classes/GeneralObservations/variables/POOLID", "title": "Pool Identifier", "type": "Class Variable"}, "parentDataset": {"href": "/mdr/sendig/3-1/datasets/LB", "title": "Laboratory", "type": "SDTM Dataset"}, "parentProduct": {"href": "/mdr/sendig/3-1", "title": "Standard for Exchange of Nonclinical Data Implementation Guide: Nonclinical Studies Version 3.1 (Final)", "type": "Implementation Guide"}, "priorVersion": {"href": "/mdr/sendig/3-0/datasets/LB/variables/POOLID", "title": "Pool Identifier", "type": "SDTM Dataset Variable"}, "rootItem": {"href": "/mdr/root/sendig/datasets/LB/variables/POOLID", "title": "Version-agnostic anchor resource for SENDIG variable LB.POOLID", "type": "Root Data Element"}, "self": {"href": "/mdr/sendig/3-1/datasets/LB/variables/POOLID", "title": "Pool Identifier", "type": "SDTM Dataset Variable"}}, "core": "Perm", "description": "Identifier used for pooling subjects to assign a single finding to multiple subjects. If POOLID is entered, POOLDEF records must exist for each subject and the USUBJID must be null. Either USUBJID or POOLID must be populated.", "label": "Pool Identifier", "name": "POOLID", "ordinal": "4", "role": "Identifier", "simpleDatatype": "Char"}, {"_links": {"modelClassVariable": {"href": "/mdr/sdtm/1-5/classes/GeneralObservations/variables/--SEQ", "title": "Sequence Number", "type": "Class Variable"}, "parentDataset": {"href": "/mdr/sendig/3-1/datasets/LB", "title": "Laboratory", "type": "SDTM Dataset"}, "parentProduct": {"href": "/mdr/sendig/3-1", "title": "Standard for Exchange of Nonclinical Data Implementation Guide: Nonclinical Studies Version 3.1 (Final)", "type": "Implementation Guide"}, "priorVersion": {"href": "/mdr/sendig/3-0/datasets/LB/variables/LBSEQ", "title": "Sequence Number", "type": "SDTM Dataset Variable"}, "rootItem": {"href": "/mdr/root/sendig/datasets/LB/variables/LBSEQ", "title": "Version-agnostic anchor resource for SENDIG variable LB.LBSEQ", "type": "Root Data Element"}, "self": {"href": "/mdr/sendig/3-1/datasets/LB/variables/LBSEQ", "title": "Sequence Number", "type": "SDTM Dataset Variable"}}, "core": "Req", "description": "The sequence number must be unique for each record within a USUBJID or POOLID, whichever applies for the record.", "label": "Sequence Number", "name": "LBSEQ", "ordinal": "5", "role": "Identifier", "simpleDatatype": "Num"}, {"_links": {"modelClassVariable": {"href": "/mdr/sdtm/1-5/classes/GeneralObservations/variables/--GRPID", "title": "Group ID", "type": "Class Variable"}, "parentDataset": {"href": "/mdr/sendig/3-1/datasets/LB", "title": "Laboratory", "type": "SDTM Dataset"}, "parentProduct": {"href": "/mdr/sendig/3-1", "title": "Standard for Exchange of Nonclinical Data Implementation Guide: Nonclinical Studies Version 3.1 (Final)", "type": "Implementation Guide"}, "priorVersion": {"href": "/mdr/sendig/3-0/datasets/LB/variables/LBGRPID", "title": "Group Identifier", "type": "SDTM Dataset Variable"}, "rootItem": {"href": "/mdr/root/sendig/datasets/LB/variables/LBGRPID", "title": "Version-agnostic anchor resource for SENDIG variable LB.LBGRPID", "type": "Root Data Element"}, "self": {"href": "/mdr/sendig/3-1/datasets/LB/variables/LBGRPID", "title": "Group Identifier", "type": "SDTM Dataset Variable"}}, "core": "Perm", "description": "Used to tie together a block of related records in a single domain for a subject or pool. This is not the treatment group number.", "label": "Group Identifier", "name": "LBGRPID", "ordinal": "6", "role": "Identifier", "simpleDatatype": "Char"}, {"_links": {"modelClassVariable": {"href": "/mdr/sdtm/1-5/classes/GeneralObservations/variables/--REFID", "title": "Reference ID", "type": "Class Variable"}, "parentDataset": {"href": "/mdr/sendig/3-1/datasets/LB", "title": "Laboratory", "type": "SDTM Dataset"}, "parentProduct": {"href": "/mdr/sendig/3-1", "title": "Standard for Exchange of Nonclinical Data Implementation Guide: Nonclinical Studies Version 3.1 (Final)", "type": "Implementation Guide"}, "priorVersion": {"href": "/mdr/sendig/3-0/datasets/LB/variables/LBREFID", "title": "Specimen Identifier", "type": "SDTM Dataset Variable"}, "rootItem": {"href": "/mdr/root/sendig/datasets/LB/variables/LBREFID", "title": "Version-agnostic anchor resource for SENDIG variable LB.LBREFID", "type": "Root Data Element"}, "self": {"href": "/mdr/sendig/3-1/datasets/LB/variables/LBREFID", "title": "Specimen Identifier", "type": "SDTM Dataset Variable"}}, "core": "Perm", "description": "Internal or external specimen identifier. Example: 1009570101.", "label": "Specimen Identifier", "name": "LBREFID", "ordinal": "7", "role": "Identifier", "simpleDatatype": "Char"}, {"_links": {"modelClassVariable": {"href": "/mdr/sdtm/1-5/classes/GeneralObservations/variables/--SPID", "title": "Sponsor-Defined Identifier", "type": "Class Variable"}, "parentDataset": {"href": "/mdr/sendig/3-1/datasets/LB", "title": "Laboratory", "type": "SDTM Dataset"}, "parentProduct": {"href": "/mdr/sendig/3-1", "title": "Standard for Exchange of Nonclinical Data Implementation Guide: Nonclinical Studies Version 3.1 (Final)", "type": "Implementation Guide"}, "priorVersion": {"href": "/mdr/sendig/3-0/datasets/LB/variables/LBSPID", "title": "Sponsor-Defined Identifier", "type": "SDTM Dataset Variable"}, "rootItem": {"href": "/mdr/root/sendig/datasets/LB/variables/LBSPID", "title": "Version-agnostic anchor resource for SENDIG variable LB.LBSPID", "type": "Root Data Element"}, "self": {"href": "/mdr/sendig/3-1/datasets/LB/variables/LBSPID", "title": "Sponsor-Defined Identifier", "type": "SDTM Dataset Variable"}}, "core": "Perm", "description": "Sponsor-defined reference identifier. Example: Line number on the Lab page.", "label": "Sponsor-Defined Identifier", "name": "LBSPID", "ordinal": "8", "role": "Identifier", "simpleDatatype": "Char"}, {"_links": {"codelist": [{"href": "/mdr/root/ct/sendct/codelists/C65047", "title": "Version-agnostic anchor resource for codelist C65047", "type": "Root Value Domain"}], "modelClassVariable": {"href": "/mdr/sdtm/1-5/classes/Findings/variables/--TESTCD", "title": "Short Name of Measurement, Test or Examination", "type": "Class Variable"}, "parentDataset": {"href": "/mdr/sendig/3-1/datasets/LB", "title": "Laboratory", "type": "SDTM Dataset"}, "parentProduct": {"href": "/mdr/sendig/3-1", "title": "Standard for Exchange of Nonclinical Data Implementation Guide: Nonclinical Studies Version 3.1 (Final)", "type": "Implementation Guide"}, "priorVersion": {"href": "/mdr/sendig/3-0/datasets/LB/variables/LBTESTCD", "title": "Lab Test or Examination Short Name", "type": "SDTM Dataset Variable"}, "rootItem": {"href": "/mdr/root/sendig/datasets/LB/variables/LBTESTCD", "title": "Version-agnostic anchor resource for SENDIG variable LB.LBTESTCD", "type": "Root Data Element"}, "self": {"href": "/mdr/sendig/3-1/datasets/LB/variables/LBTESTCD", "title": "Lab Test or Examination Short Name", "type": "SDTM Dataset Variable"}}, "core": "Req", "description": "Short name of the measurement, test, or examination described in LBTEST. It can be used as a column name when converting a dataset from a vertical to a horizontal format. The value in LBTESTCD cannot be longer than 8 characters, nor can it start with a number (e.g., \"1TEST\" is not valid). LBTESTCD cannot contain characters other than letters, numbers, or underscores. Examples: ALT, LDH.", "label": "Lab Test or Examination Short Name", "name": "LBTESTCD", "ordinal": "9", "role": "Topic", "simpleDatatype": "Char"}, {"_links": {"codelist": [{"href": "/mdr/root/ct/sendct/codelists/C67154", "title": "Version-agnostic anchor resource for codelist C67154", "type": "Root Value Domain"}], "modelClassVariable": {"href": "/mdr/sdtm/1-5/classes/Findings/variables/--TEST", "title": "Name of Measurement, Test or Examination", "type": "Class Variable"}, "parentDataset": {"href": "/mdr/sendig/3-1/datasets/LB", "title": "Laboratory", "type": "SDTM Dataset"}, "parentProduct": {"href": "/mdr/sendig/3-1", "title": "Standard for Exchange of Nonclinical Data Implementation Guide: Nonclinical Studies Version 3.1 (Final)", "type": "Implementation Guide"}, "priorVersion": {"href": "/mdr/sendig/3-0/datasets/LB/variables/LBTEST", "title": "Lab Test or Examination Name", "type": "SDTM Dataset Variable"}, "rootItem": {"href": "/mdr/root/sendig/datasets/LB/variables/LBTEST", "title": "Version-agnostic anchor resource for SENDIG variable LB.LBTEST", "type": "Root Data Element"}, "self": {"href": "/mdr/sendig/3-1/datasets/LB/variables/LBTEST", "title": "Lab Test or Examination Name", "type": "SDTM Dataset Variable"}}, "core": "Req", "description": "Long name for LBTESTCD. The value in LBTEST cannot be longer than 40 characters. Examples: Alanine Aminotransferase, Lactate Dehydrogenase.", "label": "Lab Test or Examination Name", "name": "LBTEST", "ordinal": "10", "role": "Synonym Qualifier", "simpleDatatype": "Char"}, {"_links": {"modelClassVariable": {"href": "/mdr/sdtm/1-5/classes/Findings/variables/--CAT", "title": "Category", "type": "Class Variable"}, "parentDataset": {"href": "/mdr/sendig/3-1/datasets/LB", "title": "Laboratory", "type": "SDTM Dataset"}, "parentProduct": {"href": "/mdr/sendig/3-1", "title": "Standard for Exchange of Nonclinical Data Implementation Guide: Nonclinical Studies Version 3.1 (Final)", "type": "Implementation Guide"}, "priorVersion": {"href": "/mdr/sendig/3-0/datasets/LB/variables/LBCAT", "title": "Category for Lab Test", "type": "SDTM Dataset Variable"}, "rootItem": {"href": "/mdr/root/sendig/datasets/LB/variables/LBCAT", "title": "Version-agnostic anchor resource for SENDIG variable LB.LBCAT", "type": "Root Data Element"}, "self": {"href": "/mdr/sendig/3-1/datasets/LB/variables/LBCAT", "title": "Category for Lab Test", "type": "SDTM Dataset Variable"}}, "core": "Exp", "description": "Used to define a category of the lab test performed. Examples: URINALYSIS, CLINICAL CHEMISTRY, HEMATOLOGY, etc.", "label": "Category for Lab Test", "name": "LBCAT", "ordinal": "11", "role": "Grouping Qualifier", "simpleDatatype": "Char"}, {"_links": {"modelClassVariable": {"href": "/mdr/sdtm/1-5/classes/Findings/variables/--SCAT", "title": "Subcategory", "type": "Class Variable"}, "parentDataset": {"href": "/mdr/sendig/3-1/datasets/LB", "title": "Laboratory", "type": "SDTM Dataset"}, "parentProduct": {"href": "/mdr/sendig/3-1", "title": "Standard for Exchange of Nonclinical Data Implementation Guide: Nonclinical Studies Version 3.1 (Final)", "type": "Implementation Guide"}, "priorVersion": {"href": "/mdr/sendig/3-0/datasets/LB/variables/LBSCAT", "title": "Subcategory for Lab Test", "type": "SDTM Dataset Variable"}, "rootItem": {"href": "/mdr/root/sendig/datasets/LB/variables/LBSCAT", "title": "Version-agnostic anchor resource for SENDIG variable LB.LBSCAT", "type": "Root Data Element"}, "self": {"href": "/mdr/sendig/3-1/datasets/LB/variables/LBSCAT", "title": "Subcategory for Lab Test", "type": "SDTM Dataset Variable"}}, "core": "Perm", "description": "A further categorization of a test category. Examples: DIFFERENTIAL, LIVER FUNCTION, ELECTROLYTES.", "label": "Subcategory for Lab Test", "name": "LBSCAT", "ordinal": "12", "role": "Grouping Qualifier", "simpleDatatype": "Char"}, {"_links": {"modelClassVariable": {"href": "/mdr/sdtm/1-5/classes/Findings/variables/--ORRES", "title": "Result or Finding in Original Units", "type": "Class Variable"}, "parentDataset": {"href": "/mdr/sendig/3-1/datasets/LB", "title": "Laboratory", "type": "SDTM Dataset"}, "parentProduct": {"href": "/mdr/sendig/3-1", "title": "Standard for Exchange of Nonclinical Data Implementation Guide: Nonclinical Studies Version 3.1 (Final)", "type": "Implementation Guide"}, "priorVersion": {"href": "/mdr/sendig/3-0/datasets/LB/variables/LBORRES", "title": "Result or Findings as Collected", "type": "SDTM Dataset Variable"}, "rootItem": {"href": "/mdr/root/sendig/datasets/LB/variables/LBORRES", "title": "Version-agnostic anchor resource for SENDIG variable LB.LBORRES", "type": "Root Data Element"}, "self": {"href": "/mdr/sendig/3-1/datasets/LB/variables/LBORRES", "title": "Result or Findings as Collected", "type": "SDTM Dataset Variable"}}, "core": "Exp", "description": "Result of the measurement or finding as originally received or collected.", "label": "Result or Findings as Collected", "name": "LBORRES", "ordinal": "13", "role": "Result Qualifier", "simpleDatatype": "Char"}, {"_links": {"codelist": [{"href": "/mdr/root/ct/sendct/codelists/C71620", "title": "Version-agnostic anchor resource for codelist C71620", "type": "Root Value Domain"}], "modelClassVariable": {"href": "/mdr/sdtm/1-5/classes/Findings/variables/--ORRESU", "title": "Original Units", "type": "Class Variable"}, "parentDataset": {"href": "/mdr/sendig/3-1/datasets/LB", "title": "Laboratory", "type": "SDTM Dataset"}, "parentProduct": {"href": "/mdr/sendig/3-1", "title": "Standard for Exchange of Nonclinical Data Implementation Guide: Nonclinical Studies Version 3.1 (Final)", "type": "Implementation Guide"}, "priorVersion": {"href": "/mdr/sendig/3-0/datasets/LB/variables/LBORRESU", "title": "Unit of the Original Result", "type": "SDTM Dataset Variable"}, "rootItem": {"href": "/mdr/root/sendig/datasets/LB/variables/LBORRESU", "title": "Version-agnostic anchor resource for SENDIG variable LB.LBORRESU", "type": "Root Data Element"}, "self": {"href": "/mdr/sendig/3-1/datasets/LB/variables/LBORRESU", "title": "Unit of the Original Result", "type": "SDTM Dataset Variable"}}, "core": "Exp", "description": "The unit for the original result. The unit of the original result should be mapped to a synonymous unit on the Controlled Terminology (http://www.cdisc.org/terminology) list.", "label": "Unit of the Original Result", "name": "LBORRESU", "ordinal": "14", "role": "Variable Qualifier", "simpleDatatype": "Char"}, {"_links": {"modelClassVariable": {"href": "/mdr/sdtm/1-5/classes/Findings/variables/--ORNRLO", "title": "Normal Range Lower Limit-Original Units", "type": "Class Variable"}, "parentDataset": {"href": "/mdr/sendig/3-1/datasets/LB", "title": "Laboratory", "type": "SDTM Dataset"}, "parentProduct": {"href": "/mdr/sendig/3-1", "title": "Standard for Exchange of Nonclinical Data Implementation Guide: Nonclinical Studies Version 3.1 (Final)", "type": "Implementation Guide"}, "priorVersion": {"href": "/mdr/sendig/3-0/datasets/LB/variables/LBORNRLO", "title": "Reference Range Lower Limit-Orig Unit", "type": "SDTM Dataset Variable"}, "rootItem": {"href": "/mdr/root/sendig/datasets/LB/variables/LBORNRLO", "title": "Version-agnostic anchor resource for SENDIG variable LB.LBORNRLO", "type": "Root Data Element"}, "self": {"href": "/mdr/sendig/3-1/datasets/LB/variables/LBORNRLO", "title": "Reference Range Lower Limit-Orig Unit", "type": "SDTM Dataset Variable"}}, "core": "Perm", "description": "Lower end of reference range used at the time of collection for continuous measurements in original units. Should be populated only for continuous results.", "label": "Reference Range Lower Limit-Orig Unit", "name": "LBORNRLO", "ordinal": "15", "role": "Variable Qualifier", "simpleDatatype": "Char"}, {"_links": {"modelClassVariable": {"href": "/mdr/sdtm/1-5/classes/Findings/variables/--ORNRHI", "title": "Normal Range Upper Limit-Original Units", "type": "Class Variable"}, "parentDataset": {"href": "/mdr/sendig/3-1/datasets/LB", "title": "Laboratory", "type": "SDTM Dataset"}, "parentProduct": {"href": "/mdr/sendig/3-1", "title": "Standard for Exchange of Nonclinical Data Implementation Guide: Nonclinical Studies Version 3.1 (Final)", "type": "Implementation Guide"}, "priorVersion": {"href": "/mdr/sendig/3-0/datasets/LB/variables/LBORNRHI", "title": "Reference Range Upper Limit-Orig Unit", "type": "SDTM Dataset Variable"}, "rootItem": {"href": "/mdr/root/sendig/datasets/LB/variables/LBORNRHI", "title": "Version-agnostic anchor resource for SENDIG variable LB.LBORNRHI", "type": "Root Data Element"}, "self": {"href": "/mdr/sendig/3-1/datasets/LB/variables/LBORNRHI", "title": "Reference Range Upper Limit-Orig Unit", "type": "SDTM Dataset Variable"}}, "core": "Perm", "description": "Upper end of reference range used at the time of collection for continuous measurements in original units. Should be populated only for continuous results.", "label": "Reference Range Upper Limit-Orig Unit", "name": "LBORNRHI", "ordinal": "16", "role": "Variable Qualifier", "simpleDatatype": "Char"}, {"_links": {"modelClassVariable": {"href": "/mdr/sdtm/1-5/classes/Findings/variables/--STRESC", "title": "Result or Finding in Standard Format", "type": "Class Variable"}, "parentDataset": {"href": "/mdr/sendig/3-1/datasets/LB", "title": "Laboratory", "type": "SDTM Dataset"}, "parentProduct": {"href": "/mdr/sendig/3-1", "title": "Standard for Exchange of Nonclinical Data Implementation Guide: Nonclinical Studies Version 3.1 (Final)", "type": "Implementation Guide"}, "priorVersion": {"href": "/mdr/sendig/3-0/datasets/LB/variables/LBSTRESC", "title": "Standardized Result in Character Format", "type": "SDTM Dataset Variable"}, "rootItem": {"href": "/mdr/root/sendig/datasets/LB/variables/LBSTRESC", "title": "Version-agnostic anchor resource for SENDIG variable LB.LBSTRESC", "type": "Root Data Element"}, "self": {"href": "/mdr/sendig/3-1/datasets/LB/variables/LBSTRESC", "title": "Standardized Result in Character Format", "type": "SDTM Dataset Variable"}}, "core": "Exp", "description": "Contains the result value for all findings, copied or derived from LBORRES, in a standard format or standard units. LBSTRESC should store all results or findings in character format; if results are numeric, they should also be submitted in numeric format in LBSTRESN. For example, if a test has results NONE, NEG, and NEGATIVE in LBORRES and these results effectively have the same meaning, they could be represented in standard format in LBSTRESC as NEGATIVE. For other examples, see general assumptions.", "label": "Standardized Result in Character Format", "name": "LBSTRESC", "ordinal": "17", "role": "Result Qualifier", "simpleDatatype": "Char"}, {"_links": {"modelClassVariable": {"href": "/mdr/sdtm/1-5/classes/Findings/variables/--STRESN", "title": "Numeric Result/Finding in Standard Units", "type": "Class Variable"}, "parentDataset": {"href": "/mdr/sendig/3-1/datasets/LB", "title": "Laboratory", "type": "SDTM Dataset"}, "parentProduct": {"href": "/mdr/sendig/3-1", "title": "Standard for Exchange of Nonclinical Data Implementation Guide: Nonclinical Studies Version 3.1 (Final)", "type": "Implementation Guide"}, "priorVersion": {"href": "/mdr/sendig/3-0/datasets/LB/variables/LBSTRESN", "title": "Standardized Result in Numeric Format", "type": "SDTM Dataset Variable"}, "rootItem": {"href": "/mdr/root/sendig/datasets/LB/variables/LBSTRESN", "title": "Version-agnostic anchor resource for SENDIG variable LB.LBSTRESN", "type": "Root Data Element"}, "self": {"href": "/mdr/sendig/3-1/datasets/LB/variables/LBSTRESN", "title": "Standardized Result in Numeric Format", "type": "SDTM Dataset Variable"}}, "core": "Exp", "description": "Used for numeric results or findings in standard format; contains the numeric form of LBSTRESC. LBSTRESN should store all numeric test results or findings.", "label": "Standardized Result in Numeric Format", "name": "LBSTRESN", "ordinal": "18", "role": "Result Qualifier", "simpleDatatype": "Num"}, {"_links": {"codelist": [{"href": "/mdr/root/ct/sendct/codelists/C71620", "title": "Version-agnostic anchor resource for codelist C71620", "type": "Root Value Domain"}], "modelClassVariable": {"href": "/mdr/sdtm/1-5/classes/Findings/variables/--STRESU", "title": "Standard Units", "type": "Class Variable"}, "parentDataset": {"href": "/mdr/sendig/3-1/datasets/LB", "title": "Laboratory", "type": "SDTM Dataset"}, "parentProduct": {"href": "/mdr/sendig/3-1", "title": "Standard for Exchange of Nonclinical Data Implementation Guide: Nonclinical Studies Version 3.1 (Final)", "type": "Implementation Guide"}, "priorVersion": {"href": "/mdr/sendig/3-0/datasets/LB/variables/LBSTRESU", "title": "Unit of the Standardized Result", "type": "SDTM Dataset Variable"}, "rootItem": {"href": "/mdr/root/sendig/datasets/LB/variables/LBSTRESU", "title": "Version-agnostic anchor resource for SENDIG variable LB.LBSTRESU", "type": "Root Data Element"}, "self": {"href": "/mdr/sendig/3-1/datasets/LB/variables/LBSTRESU", "title": "Unit of the Standardized Result", "type": "SDTM Dataset Variable"}}, "core": "Exp", "description": "Standardized unit used for LBSTRESC and LBSTRESN.", "label": "Unit of the Standardized Result", "name": "LBSTRESU", "ordinal": "19", "role": "Variable Qualifier", "simpleDatatype": "Char"}, {"_links": {"modelClassVariable": {"href": "/mdr/sdtm/1-5/classes/Findings/variables/--STNRLO", "title": "Normal Range Lower Limit-Standard Units", "type": "Class Variable"}, "parentDataset": {"href": "/mdr/sendig/3-1/datasets/LB", "title": "Laboratory", "type": "SDTM Dataset"}, "parentProduct": {"href": "/mdr/sendig/3-1", "title": "Standard for Exchange of Nonclinical Data Implementation Guide: Nonclinical Studies Version 3.1 (Final)", "type": "Implementation Guide"}, "priorVersion": {"href": "/mdr/sendig/3-0/datasets/LB/variables/LBSTNRLO", "title": "Reference Range Lower Limit-Std Unit", "type": "SDTM Dataset Variable"}, "rootItem": {"href": "/mdr/root/sendig/datasets/LB/variables/LBSTNRLO", "title": "Version-agnostic anchor resource for SENDIG variable LB.LBSTNRLO", "type": "Root Data Element"}, "self": {"href": "/mdr/sendig/3-1/datasets/LB/variables/LBSTNRLO", "title": "Reference Range Lower Limit-Std Unit", "type": "SDTM Dataset Variable"}}, "core": "Perm", "description": "Lower end of reference range for continuous measurements in standardized units. Should be populated only for continuous results.", "label": "Reference Range Lower Limit-Std Unit", "name": "LBSTNRLO", "ordinal": "20", "role": "Variable Qualifier", "simpleDatatype": "Num"}, {"_links": {"modelClassVariable": {"href": "/mdr/sdtm/1-5/classes/Findings/variables/--STNRHI", "title": "Normal Range Upper Limit-Standard Units", "type": "Class Variable"}, "parentDataset": {"href": "/mdr/sendig/3-1/datasets/LB", "title": "Laboratory", "type": "SDTM Dataset"}, "parentProduct": {"href": "/mdr/sendig/3-1", "title": "Standard for Exchange of Nonclinical Data Implementation Guide: Nonclinical Studies Version 3.1 (Final)", "type": "Implementation Guide"}, "priorVersion": {"href": "/mdr/sendig/3-0/datasets/LB/variables/LBSTNRHI", "title": "Reference Range Upper Limit-Std Unit", "type": "SDTM Dataset Variable"}, "rootItem": {"href": "/mdr/root/sendig/datasets/LB/variables/LBSTNRHI", "title": "Version-agnostic anchor resource for SENDIG variable LB.LBSTNRHI", "type": "Root Data Element"}, "self": {"href": "/mdr/sendig/3-1/datasets/LB/variables/LBSTNRHI", "title": "Reference Range Upper Limit-Std Unit", "type": "SDTM Dataset Variable"}}, "core": "Perm", "description": "Upper end of reference range for continuous measurements in standardized units. Should be populated only for continuous results.", "label": "Reference Range Upper Limit-Std Unit", "name": "LBSTNRHI", "ordinal": "21", "role": "Variable Qualifier", "simpleDatatype": "Num"}, {"_links": {"modelClassVariable": {"href": "/mdr/sdtm/1-5/classes/Findings/variables/--STNRC", "title": "Normal Range for Character Results", "type": "Class Variable"}, "parentDataset": {"href": "/mdr/sendig/3-1/datasets/LB", "title": "Laboratory", "type": "SDTM Dataset"}, "parentProduct": {"href": "/mdr/sendig/3-1", "title": "Standard for Exchange of Nonclinical Data Implementation Guide: Nonclinical Studies Version 3.1 (Final)", "type": "Implementation Guide"}, "priorVersion": {"href": "/mdr/sendig/3-0/datasets/LB/variables/LBSTNRC", "title": "Reference Range for Char Rslt-Std Unit", "type": "SDTM Dataset Variable"}, "rootItem": {"href": "/mdr/root/sendig/datasets/LB/variables/LBSTNRC", "title": "Version-agnostic anchor resource for SENDIG variable LB.LBSTNRC", "type": "Root Data Element"}, "self": {"href": "/mdr/sendig/3-1/datasets/LB/variables/LBSTNRC", "title": "Reference Range for Char Rslt-Std Unit", "type": "SDTM Dataset Variable"}}, "core": "Perm", "description": "For normal range values that are character in ordinal scale or if categorical ranges were supplied (e.g., -1 to +1; NEGATIVE TO TRACE).", "label": "Reference Range for Char Rslt-Std Unit", "name": "LBSTNRC", "ordinal": "22", "role": "Variable Qualifier", "simpleDatatype": "Char"}, {"_links": {"modelClassVariable": {"href": "/mdr/sdtm/1-5/classes/Findings/variables/--NRIND", "title": "Normal/Reference Range Indicator", "type": "Class Variable"}, "parentDataset": {"href": "/mdr/sendig/3-1/datasets/LB", "title": "Laboratory", "type": "SDTM Dataset"}, "parentProduct": {"href": "/mdr/sendig/3-1", "title": "Standard for Exchange of Nonclinical Data Implementation Guide: Nonclinical Studies Version 3.1 (Final)", "type": "Implementation Guide"}, "priorVersion": {"href": "/mdr/sendig/3-0/datasets/LB/variables/LBNRIND", "title": "Reference Range Indicator", "type": "SDTM Dataset Variable"}, "rootItem": {"href": "/mdr/root/sendig/datasets/LB/variables/LBNRIND", "title": "Version-agnostic anchor resource for SENDIG variable LB.LBNRIND", "type": "Root Data Element"}, "self": {"href": "/mdr/sendig/3-1/datasets/LB/variables/LBNRIND", "title": "Reference Range Indicator", "type": "SDTM Dataset Variable"}}, "core": "Perm", "description": "Indicates where value falls with respect to reference range defined by LBORNRLO and LBORNRHI, LBSTRNRLO and LBSTNRHI, or by LBSTNRC. Examples: NORMAL, ABNORMAL, HIGH, LOW. Sponsors should specify in the study metadata (Comments column in the data definition file) whether LBNRIND refers to the original or standard reference ranges and results. Should not be used to indicate biological significance.", "label": "Reference Range Indicator", "name": "LBNRIND", "ordinal": "23", "role": "Variable Qualifier", "simpleDatatype": "Char"}, {"_links": {"codelist": [{"href": "/mdr/root/ct/sendct/codelists/C66789", "title": "Version-agnostic anchor resource for codelist C66789", "type": "Root Value Domain"}], "modelClassVariable": {"href": "/mdr/sdtm/1-5/classes/Findings/variables/--STAT", "title": "Completion Status", "type": "Class Variable"}, "parentDataset": {"href": "/mdr/sendig/3-1/datasets/LB", "title": "Laboratory", "type": "SDTM Dataset"}, "parentProduct": {"href": "/mdr/sendig/3-1", "title": "Standard for Exchange of Nonclinical Data Implementation Guide: Nonclinical Studies Version 3.1 (Final)", "type": "Implementation Guide"}, "priorVersion": {"href": "/mdr/sendig/3-0/datasets/LB/variables/LBSTAT", "title": "Completion Status", "type": "SDTM Dataset Variable"}, "rootItem": {"href": "/mdr/root/sendig/datasets/LB/variables/LBSTAT", "title": "Version-agnostic anchor resource for SENDIG variable LB.LBSTAT", "type": "Root Data Element"}, "self": {"href": "/mdr/sendig/3-1/datasets/LB/variables/LBSTAT", "title": "Completion Status", "type": "SDTM Dataset Variable"}}, "core": "Perm", "description": "Used to indicate when a test is not done or result is missing. Should be null if a result exists in LBORRES.", "label": "Completion Status", "name": "LBSTAT", "ordinal": "24", "role": "Record Qualifier", "simpleDatatype": "Char"}, {"_links": {"modelClassVariable": {"href": "/mdr/sdtm/1-5/classes/Findings/variables/--REASND", "title": "Reason Not Done", "type": "Class Variable"}, "parentDataset": {"href": "/mdr/sendig/3-1/datasets/LB", "title": "Laboratory", "type": "SDTM Dataset"}, "parentProduct": {"href": "/mdr/sendig/3-1", "title": "Standard for Exchange of Nonclinical Data Implementation Guide: Nonclinical Studies Version 3.1 (Final)", "type": "Implementation Guide"}, "priorVersion": {"href": "/mdr/sendig/3-0/datasets/LB/variables/LBREASND", "title": "Reason Not Done", "type": "SDTM Dataset Variable"}, "rootItem": {"href": "/mdr/root/sendig/datasets/LB/variables/LBREASND", "title": "Version-agnostic anchor resource for SENDIG variable LB.LBREASND", "type": "Root Data Element"}, "self": {"href": "/mdr/sendig/3-1/datasets/LB/variables/LBREASND", "title": "Reason Not Done", "type": "SDTM Dataset Variable"}}, "core": "Perm", "description": "Describes why LBSTAT is NOT DONE, such as BROKEN EQUIPMENT or SPECIMEN LOST.", "label": "Reason Not Done", "name": "LBREASND", "ordinal": "25", "role": "Record Qualifier", "simpleDatatype": "Char"}, {"_links": {"modelClassVariable": {"href": "/mdr/sdtm/1-5/classes/Findings/variables/--NAM", "title": "Laboratory/Vendor Name", "type": "Class Variable"}, "parentDataset": {"href": "/mdr/sendig/3-1/datasets/LB", "title": "Laboratory", "type": "SDTM Dataset"}, "parentProduct": {"href": "/mdr/sendig/3-1", "title": "Standard for Exchange of Nonclinical Data Implementation Guide: Nonclinical Studies Version 3.1 (Final)", "type": "Implementation Guide"}, "priorVersion": {"href": "/mdr/sendig/3-0/datasets/LB/variables/LBNAM", "title": "Vendor Name", "type": "SDTM Dataset Variable"}, "rootItem": {"href": "/mdr/root/sendig/datasets/LB/variables/LBNAM", "title": "Version-agnostic anchor resource for SENDIG variable LB.LBNAM", "type": "Root Data Element"}, "self": {"href": "/mdr/sendig/3-1/datasets/LB/variables/LBNAM", "title": "Laboratory Name", "type": "SDTM Dataset Variable"}}, "core": "Perm", "description": "Name or identifier of the laboratory or vendor that provided the test results.", "label": "Laboratory Name", "name": "LBNAM", "ordinal": "26", "role": "Record Qualifier", "simpleDatatype": "Char"}, {"_links": {"codelist": [{"href": "/mdr/root/ct/sendct/codelists/C77529", "title": "Version-agnostic anchor resource for codelist C77529", "type": "Root Value Domain"}], "modelClassVariable": {"href": "/mdr/sdtm/1-5/classes/Findings/variables/--SPEC", "title": "Specimen Material Type", "type": "Class Variable"}, "parentDataset": {"href": "/mdr/sendig/3-1/datasets/LB", "title": "Laboratory", "type": "SDTM Dataset"}, "parentProduct": {"href": "/mdr/sendig/3-1", "title": "Standard for Exchange of Nonclinical Data Implementation Guide: Nonclinical Studies Version 3.1 (Final)", "type": "Implementation Guide"}, "priorVersion": {"href": "/mdr/sendig/3-0/datasets/LB/variables/LBSPEC", "title": "Specimen Type", "type": "SDTM Dataset Variable"}, "rootItem": {"href": "/mdr/root/sendig/datasets/LB/variables/LBSPEC", "title": "Version-agnostic anchor resource for SENDIG variable LB.LBSPEC", "type": "Root Data Element"}, "self": {"href": "/mdr/sendig/3-1/datasets/LB/variables/LBSPEC", "title": "Specimen Material Type", "type": "SDTM Dataset Variable"}}, "core": "Exp", "description": "Defines the type of specimen analyzed to obtain the measurement or finding. Examples: WHOLE BLOOD, SERUM, PLASMA, URINE, LIVER, HEART.", "label": "Specimen Material Type", "name": "LBSPEC", "ordinal": "27", "role": "Record Qualifier", "simpleDatatype": "Char"}, {"_links": {"modelClassVariable": {"href": "/mdr/sdtm/1-5/classes/Findings/variables/--ANTREG", "title": "Anatomical Region", "type": "Class Variable"}, "parentDataset": {"href": "/mdr/sendig/3-1/datasets/LB", "title": "Laboratory", "type": "SDTM Dataset"}, "parentProduct": {"href": "/mdr/sendig/3-1", "title": "Standard for Exchange of Nonclinical Data Implementation Guide: Nonclinical Studies Version 3.1 (Final)", "type": "Implementation Guide"}, "priorVersion": {"href": "/mdr/sendig/3-0/datasets/LB/variables/LBANTREG", "title": "Anatomical Region of Specimen", "type": "SDTM Dataset Variable"}, "rootItem": {"href": "/mdr/root/sendig/datasets/LB/variables/LBANTREG", "title": "Version-agnostic anchor resource for SENDIG variable LB.LBANTREG", "type": "Root Data Element"}, "self": {"href": "/mdr/sendig/3-1/datasets/LB/variables/LBANTREG", "title": "Anatomical Region of Specimen", "type": "SDTM Dataset Variable"}}, "core": "Perm", "description": "Defines the specific anatomical or biological region of a tissue, organ specimen, or the region from which the specimen was obtained, such as a section or part of what is defined in the LBSPEC variable. If the anatomical region is not included in the specimen description LBSPEC, it may be included in this variable. This field can be a combination of terms where needed. This field can be null if not applicable. Examples: CORTEX, MEDULLA, MUCOSA, SEROSA, ISLET, ZONA FASICULATA, ZONA RETICULARIS, CRANIAL, MEDIAN, ACCESSORY, SPINAL, LUMBAR, FRONTAL.", "label": "Anatomical Region of Specimen", "name": "LBANTREG", "ordinal": "28", "role": "Variable Qualifier", "simpleDatatype": "Char"}, {"_links": {"modelClassVariable": {"href": "/mdr/sdtm/1-5/classes/Findings/variables/--SPCCND", "title": "Specimen Condition", "type": "Class Variable"}, "parentDataset": {"href": "/mdr/sendig/3-1/datasets/LB", "title": "Laboratory", "type": "SDTM Dataset"}, "parentProduct": {"href": "/mdr/sendig/3-1", "title": "Standard for Exchange of Nonclinical Data Implementation Guide: Nonclinical Studies Version 3.1 (Final)", "type": "Implementation Guide"}, "priorVersion": {"href": "/mdr/sendig/3-0/datasets/LB/variables/LBSPCCND", "title": "Specimen Condition", "type": "SDTM Dataset Variable"}, "rootItem": {"href": "/mdr/root/sendig/datasets/LB/variables/LBSPCCND", "title": "Version-agnostic anchor resource for SENDIG variable LB.LBSPCCND", "type": "Root Data Element"}, "self": {"href": "/mdr/sendig/3-1/datasets/LB/variables/LBSPCCND", "title": "Specimen Condition", "type": "SDTM Dataset Variable"}}, "core": "Perm", "description": "Free or standardized text describing the condition of the specimen. Examples: HEMOLYZED, ICTERIC, LIPEMIC", "label": "Specimen Condition", "name": "LBSPCCND", "ordinal": "29", "role": "Record Qualifier", "simpleDatatype": "Char"}, {"_links": {"codelist": [{"href": "/mdr/root/ct/sendct/codelists/C66742", "title": "Version-agnostic anchor resource for codelist C66742", "type": "Root Value Domain"}], "modelClassVariable": {"href": "/mdr/sdtm/1-5/classes/Findings/variables/--SPCUFL", "title": "Specimen Usability for the Test", "type": "Class Variable"}, "parentDataset": {"href": "/mdr/sendig/3-1/datasets/LB", "title": "Laboratory", "type": "SDTM Dataset"}, "parentProduct": {"href": "/mdr/sendig/3-1", "title": "Standard for Exchange of Nonclinical Data Implementation Guide: Nonclinical Studies Version 3.1 (Final)", "type": "Implementation Guide"}, "priorVersion": {"href": "/mdr/sendig/3-0/datasets/LB/variables/LBSPCUFL", "title": "Specimen Usability for the Test", "type": "SDTM Dataset Variable"}, "rootItem": {"href": "/mdr/root/sendig/datasets/LB/variables/LBSPCUFL", "title": "Version-agnostic anchor resource for SENDIG variable LB.LBSPCUFL", "type": "Root Data Element"}, "self": {"href": "/mdr/sendig/3-1/datasets/LB/variables/LBSPCUFL", "title": "Specimen Usability for the Test", "type": "SDTM Dataset Variable"}}, "core": "Perm", "description": "Describes the usability of the specimen for the test. Should be N if the specimen is not usable; otherwise it should be null.", "label": "Specimen Usability for the Test", "name": "LBSPCUFL", "ordinal": "30", "role": "Record Qualifier", "simpleDatatype": "Char"}, {"_links": {"modelClassVariable": {"href": "/mdr/sdtm/1-5/classes/Findings/variables/--LOC", "title": "Location Used for the Measurement", "type": "Class Variable"}, "parentDataset": {"href": "/mdr/sendig/3-1/datasets/LB", "title": "Laboratory", "type": "SDTM Dataset"}, "parentProduct": {"href": "/mdr/sendig/3-1", "title": "Standard for Exchange of Nonclinical Data Implementation Guide: Nonclinical Studies Version 3.1 (Final)", "type": "Implementation Guide"}, "priorVersion": {"href": "/mdr/sendig/3-0/datasets/LB/variables/LBLOC", "title": "Specimen Collection Location", "type": "SDTM Dataset Variable"}, "rootItem": {"href": "/mdr/root/sendig/datasets/LB/variables/LBLOC", "title": "Version-agnostic anchor resource for SENDIG variable LB.LBLOC", "type": "Root Data Element"}, "self": {"href": "/mdr/sendig/3-1/datasets/LB/variables/LBLOC", "title": "Specimen Collection Location", "type": "SDTM Dataset Variable"}}, "core": "Perm", "description": "Location relevant to the collection of specimen for the measurement.", "label": "Specimen Collection Location", "name": "LBLOC", "ordinal": "31", "role": "Record Qualifier", "simpleDatatype": "Char"}, {"_links": {"codelist": [{"href": "/mdr/root/ct/sendct/codelists/C99073", "title": "Version-agnostic anchor resource for codelist C99073", "type": "Root Value Domain"}], "modelClassVariable": {"href": "/mdr/sdtm/1-5/classes/Findings/variables/--LAT", "title": "Laterality", "type": "Class Variable"}, "parentDataset": {"href": "/mdr/sendig/3-1/datasets/LB", "title": "Laboratory", "type": "SDTM Dataset"}, "parentProduct": {"href": "/mdr/sendig/3-1", "title": "Standard for Exchange of Nonclinical Data Implementation Guide: Nonclinical Studies Version 3.1 (Final)", "type": "Implementation Guide"}, "priorVersion": {"href": "/mdr/sendig/3-0/datasets/LB/variables/LBLAT", "title": "Specimen Laterality within Subject", "type": "SDTM Dataset Variable"}, "rootItem": {"href": "/mdr/root/sendig/datasets/LB/variables/LBLAT", "title": "Version-agnostic anchor resource for SENDIG variable LB.LBLAT", "type": "Root Data Element"}, "self": {"href": "/mdr/sendig/3-1/datasets/LB/variables/LBLAT", "title": "Specimen Laterality within Subject", "type": "SDTM Dataset Variable"}}, "core": "Perm", "description": "Qualifier for laterality of the specimen within the subject for paired specimens. Examples: LEFT, RIGHT, BILATERAL.", "label": "Specimen Laterality within Subject", "name": "LBLAT", "ordinal": "32", "role": "Variable Qualifier", "simpleDatatype": "Char"}, {"_links": {"codelist": [{"href": "/mdr/root/ct/sendct/codelists/C99074", "title": "Version-agnostic anchor resource for codelist C99074", "type": "Root Value Domain"}], "modelClassVariable": {"href": "/mdr/sdtm/1-5/classes/Findings/variables/--DIR", "title": "Directionality", "type": "Class Variable"}, "parentDataset": {"href": "/mdr/sendig/3-1/datasets/LB", "title": "Laboratory", "type": "SDTM Dataset"}, "parentProduct": {"href": "/mdr/sendig/3-1", "title": "Standard for Exchange of Nonclinical Data Implementation Guide: Nonclinical Studies Version 3.1 (Final)", "type": "Implementation Guide"}, "priorVersion": {"href": "/mdr/sendig/3-0/datasets/LB/variables/LBDIR", "title": "Specimen Directionality within Subject", "type": "SDTM Dataset Variable"}, "rootItem": {"href": "/mdr/root/sendig/datasets/LB/variables/LBDIR", "title": "Version-agnostic anchor resource for SENDIG variable LB.LBDIR", "type": "Root Data Element"}, "self": {"href": "/mdr/sendig/3-1/datasets/LB/variables/LBDIR", "title": "Specimen Directionality within Subject", "type": "SDTM Dataset Variable"}}, "core": "Perm", "description": "Qualifier for directionality of the specimen within the subject. Examples: DORSAL, PROXIMAL.", "label": "Specimen Directionality within Subject", "name": "LBDIR", "ordinal": "33", "role": "Variable Qualifier", "simpleDatatype": "Char"}, {"_links": {"codelist": [{"href": "/mdr/root/ct/sendct/codelists/C99075", "title": "Version-agnostic anchor resource for codelist C99075", "type": "Root Value Domain"}], "modelClassVariable": {"href": "/mdr/sdtm/1-5/classes/Findings/variables/--PORTOT", "title": "Portion or Totality", "type": "Class Variable"}, "parentDataset": {"href": "/mdr/sendig/3-1/datasets/LB", "title": "Laboratory", "type": "SDTM Dataset"}, "parentProduct": {"href": "/mdr/sendig/3-1", "title": "Standard for Exchange of Nonclinical Data Implementation Guide: Nonclinical Studies Version 3.1 (Final)", "type": "Implementation Guide"}, "priorVersion": {"href": "/mdr/sendig/3-0/datasets/LB/variables/LBPORTOT", "title": "Portion or Totality", "type": "SDTM Dataset Variable"}, "rootItem": {"href": "/mdr/root/sendig/datasets/LB/variables/LBPORTOT", "title": "Version-agnostic anchor resource for SENDIG variable LB.LBPORTOT", "type": "Root Data Element"}, "self": {"href": "/mdr/sendig/3-1/datasets/LB/variables/LBPORTOT", "title": "Portion or Totality", "type": "SDTM Dataset Variable"}}, "core": "Perm", "description": "Qualifier for anatomical location or specimen further detailing the portion or totality, which means arrangement of, or apportioning of. Examples: ENTIRE, SINGLE, SEGMENT, MANY.", "label": "Portion or Totality", "name": "LBPORTOT", "ordinal": "34", "role": "Variable Qualifier", "simpleDatatype": "Char"}, {"_links": {"modelClassVariable": {"href": "/mdr/sdtm/1-5/classes/Findings/variables/--METHOD", "title": "Method of Test or Examination", "type": "Class Variable"}, "parentDataset": {"href": "/mdr/sendig/3-1/datasets/LB", "title": "Laboratory", "type": "SDTM Dataset"}, "parentProduct": {"href": "/mdr/sendig/3-1", "title": "Standard for Exchange of Nonclinical Data Implementation Guide: Nonclinical Studies Version 3.1 (Final)", "type": "Implementation Guide"}, "priorVersion": {"href": "/mdr/sendig/3-0/datasets/LB/variables/LBMETHOD", "title": "Method of Test or Examination", "type": "SDTM Dataset Variable"}, "rootItem": {"href": "/mdr/root/sendig/datasets/LB/variables/LBMETHOD", "title": "Version-agnostic anchor resource for SENDIG variable LB.LBMETHOD", "type": "Root Data Element"}, "self": {"href": "/mdr/sendig/3-1/datasets/LB/variables/LBMETHOD", "title": "Method of Test or Examination", "type": "SDTM Dataset Variable"}}, "core": "Exp", "description": "Method of the test or examination. Examples: EIA (Enzyme Immunoassay), ELECTROPHORESIS, DIPSTICK.", "label": "Method of Test or Examination", "name": "LBMETHOD", "ordinal": "35", "role": "Record Qualifier", "simpleDatatype": "Char"}, {"_links": {"codelist": [{"href": "/mdr/root/ct/sendct/codelists/C66742", "title": "Version-agnostic anchor resource for codelist C66742", "type": "Root Value Domain"}], "modelClassVariable": {"href": "/mdr/sdtm/1-5/classes/Findings/variables/--BLFL", "title": "Baseline Flag", "type": "Class Variable"}, "parentDataset": {"href": "/mdr/sendig/3-1/datasets/LB", "title": "Laboratory", "type": "SDTM Dataset"}, "parentProduct": {"href": "/mdr/sendig/3-1", "title": "Standard for Exchange of Nonclinical Data Implementation Guide: Nonclinical Studies Version 3.1 (Final)", "type": "Implementation Guide"}, "priorVersion": {"href": "/mdr/sendig/3-0/datasets/LB/variables/LBBLFL", "title": "Baseline Flag", "type": "SDTM Dataset Variable"}, "rootItem": {"href": "/mdr/root/sendig/datasets/LB/variables/LBBLFL", "title": "Version-agnostic anchor resource for SENDIG variable LB.LBBLFL", "type": "Root Data Element"}, "self": {"href": "/mdr/sendig/3-1/datasets/LB/variables/LBBLFL", "title": "Baseline Flag", "type": "SDTM Dataset Variable"}}, "core": "Exp", "description": "A baseline indicator may be used to calculate differences or changes from baseline. Value should be Y or null. The baseline flag is sponsor defined.", "label": "Baseline Flag", "name": "LBBLFL", "ordinal": "36", "role": "Record Qualifier", "simpleDatatype": "Char"}, {"_links": {"codelist": [{"href": "/mdr/root/ct/sendct/codelists/C66742", "title": "Version-agnostic anchor resource for codelist C66742", "type": "Root Value Domain"}], "modelClassVariable": {"href": "/mdr/sdtm/1-5/classes/Findings/variables/--FAST", "title": "Fasting Status", "type": "Class Variable"}, "parentDataset": {"href": "/mdr/sendig/3-1/datasets/LB", "title": "Laboratory", "type": "SDTM Dataset"}, "parentProduct": {"href": "/mdr/sendig/3-1", "title": "Standard for Exchange of Nonclinical Data Implementation Guide: Nonclinical Studies Version 3.1 (Final)", "type": "Implementation Guide"}, "priorVersion": {"href": "/mdr/sendig/3-0/datasets/LB/variables/LBFAST", "title": "Fasting Status", "type": "SDTM Dataset Variable"}, "rootItem": {"href": "/mdr/root/sendig/datasets/LB/variables/LBFAST", "title": "Version-agnostic anchor resource for SENDIG variable LB.LBFAST", "type": "Root Data Element"}, "self": {"href": "/mdr/sendig/3-1/datasets/LB/variables/LBFAST", "title": "Fasting Status", "type": "SDTM Dataset Variable"}}, "core": "Perm", "description": "Indicator used to identify fasting status. The value should be Y or null", "label": "Fasting Status", "name": "LBFAST", "ordinal": "37", "role": "Record Qualifier", "simpleDatatype": "Char"}, {"_links": {"codelist": [{"href": "/mdr/root/ct/sendct/codelists/C66742", "title": "Version-agnostic anchor resource for codelist C66742", "type": "Root Value Domain"}], "modelClassVariable": {"href": "/mdr/sdtm/1-5/classes/Findings/variables/--DRVFL", "title": "Derived Flag", "type": "Class Variable"}, "parentDataset": {"href": "/mdr/sendig/3-1/datasets/LB", "title": "Laboratory", "type": "SDTM Dataset"}, "parentProduct": {"href": "/mdr/sendig/3-1", "title": "Standard for Exchange of Nonclinical Data Implementation Guide: Nonclinical Studies Version 3.1 (Final)", "type": "Implementation Guide"}, "priorVersion": {"href": "/mdr/sendig/3-0/datasets/LB/variables/LBDRVFL", "title": "Derived Flag", "type": "SDTM Dataset Variable"}, "rootItem": {"href": "/mdr/root/sendig/datasets/LB/variables/LBDRVFL", "title": "Version-agnostic anchor resource for SENDIG variable LB.LBDRVFL", "type": "Root Data Element"}, "self": {"href": "/mdr/sendig/3-1/datasets/LB/variables/LBDRVFL", "title": "Derived Flag", "type": "SDTM Dataset Variable"}}, "core": "Perm", "description": "Used to indicate a derived record. The value should be Y or null. Records that represent the average of other records, or are not as originally received or collected are examples of records that might be derived for the submission datasets.", "label": "Derived Flag", "name": "LBDRVFL", "ordinal": "38", "role": "Record Qualifier", "simpleDatatype": "Char"}, {"_links": {"modelClassVariable": {"href": "/mdr/sdtm/1-5/classes/Findings/variables/--TOX", "title": "Toxicity", "type": "Class Variable"}, "parentDataset": {"href": "/mdr/sendig/3-1/datasets/LB", "title": "Laboratory", "type": "SDTM Dataset"}, "parentProduct": {"href": "/mdr/sendig/3-1", "title": "Standard for Exchange of Nonclinical Data Implementation Guide: Nonclinical Studies Version 3.1 (Final)", "type": "Implementation Guide"}, "priorVersion": {"href": "/mdr/sendig/3-0/datasets/LB/variables/LBTOX", "title": "Toxicity", "type": "SDTM Dataset Variable"}, "rootItem": {"href": "/mdr/root/sendig/datasets/LB/variables/LBTOX", "title": "Version-agnostic anchor resource for SENDIG variable LB.LBTOX", "type": "Root Data Element"}, "self": {"href": "/mdr/sendig/3-1/datasets/LB/variables/LBTOX", "title": "Toxicity", "type": "SDTM Dataset Variable"}}, "core": "Perm", "description": "Description of toxicity quantified by LBTOXGR. The sponsor is expected to provide the name and version of the scale used to map the terms, utilizing the data definition file external codelist attributes.", "label": "Toxicity", "name": "LBTOX", "ordinal": "39", "role": "Variable Qualifier", "simpleDatatype": "Char"}, {"_links": {"modelClassVariable": {"href": "/mdr/sdtm/1-5/classes/Findings/variables/--TOXGR", "title": "Toxicity Grade", "type": "Class Variable"}, "parentDataset": {"href": "/mdr/sendig/3-1/datasets/LB", "title": "Laboratory", "type": "SDTM Dataset"}, "parentProduct": {"href": "/mdr/sendig/3-1", "title": "Standard for Exchange of Nonclinical Data Implementation Guide: Nonclinical Studies Version 3.1 (Final)", "type": "Implementation Guide"}, "priorVersion": {"href": "/mdr/sendig/3-0/datasets/LB/variables/LBTOXGR", "title": "Standard Toxicity Grade", "type": "SDTM Dataset Variable"}, "rootItem": {"href": "/mdr/root/sendig/datasets/LB/variables/LBTOXGR", "title": "Version-agnostic anchor resource for SENDIG variable LB.LBTOXGR", "type": "Root Data Element"}, "self": {"href": "/mdr/sendig/3-1/datasets/LB/variables/LBTOXGR", "title": "Standard Toxicity Grade", "type": "SDTM Dataset Variable"}}, "core": "Perm", "description": "Records toxicity grade value using a standard toxicity scale (such as the NCI CTCAE). If value is from a numeric scale, represent only the number (e.g., \"2\" and not \"Grade 2\"). The sponsor is expected to provide the name of the scale and version used to map the terms, utilizing the data definition file external codelist attributes.", "label": "Standard Toxicity Grade", "name": "LBTOXGR", "ordinal": "40", "role": "Record Qualifier", "simpleDatatype": "Char"}, {"_links": {"codelist": [{"href": "/mdr/root/ct/sendct/codelists/C66742", "title": "Version-agnostic anchor resource for codelist C66742", "type": "Root Value Domain"}], "modelClassVariable": {"href": "/mdr/sdtm/1-5/classes/Findings/variables/--EXCLFL", "title": "Exclude from Statistics", "type": "Class Variable"}, "parentDataset": {"href": "/mdr/sendig/3-1/datasets/LB", "title": "Laboratory", "type": "SDTM Dataset"}, "parentProduct": {"href": "/mdr/sendig/3-1", "title": "Standard for Exchange of Nonclinical Data Implementation Guide: Nonclinical Studies Version 3.1 (Final)", "type": "Implementation Guide"}, "priorVersion": {"href": "/mdr/sendig/3-0/datasets/LB/variables/LBEXCLFL", "title": "Exclusion Flag", "type": "SDTM Dataset Variable"}, "rootItem": {"href": "/mdr/root/sendig/datasets/LB/variables/LBEXCLFL", "title": "Version-agnostic anchor resource for SENDIG variable LB.LBEXCLFL", "type": "Root Data Element"}, "self": {"href": "/mdr/sendig/3-1/datasets/LB/variables/LBEXCLFL", "title": "Exclusion Flag", "type": "SDTM Dataset Variable"}}, "core": "Perm", "description": "\"Y\" if the result should be excluded from all calculations, otherwise null.", "label": "Exclusion Flag", "name": "LBEXCLFL", "ordinal": "41", "role": "Record Qualifier", "simpleDatatype": "Char"}, {"_links": {"modelClassVariable": {"href": "/mdr/sdtm/1-5/classes/Findings/variables/--REASEX", "title": "Reason for Exclusion from Statistics", "type": "Class Variable"}, "parentDataset": {"href": "/mdr/sendig/3-1/datasets/LB", "title": "Laboratory", "type": "SDTM Dataset"}, "parentProduct": {"href": "/mdr/sendig/3-1", "title": "Standard for Exchange of Nonclinical Data Implementation Guide: Nonclinical Studies Version 3.1 (Final)", "type": "Implementation Guide"}, "priorVersion": {"href": "/mdr/sendig/3-0/datasets/LB/variables/LBREASEX", "title": "Reason for Exclusion", "type": "SDTM Dataset Variable"}, "rootItem": {"href": "/mdr/root/sendig/datasets/LB/variables/LBREASEX", "title": "Version-agnostic anchor resource for SENDIG variable LB.LBREASEX", "type": "Root Data Element"}, "self": {"href": "/mdr/sendig/3-1/datasets/LB/variables/LBREASEX", "title": "Reason for Exclusion", "type": "SDTM Dataset Variable"}}, "core": "Perm", "description": "The reason the result should be excluded from all calculations. Used only when LBEXCLFL is \"Y\".", "label": "Reason for Exclusion", "name": "LBREASEX", "ordinal": "42", "role": "Record Qualifier", "simpleDatatype": "Char"}, {"_links": {"codelist": [{"href": "/mdr/root/ct/sendct/codelists/C66742", "title": "Version-agnostic anchor resource for codelist C66742", "type": "Root Value Domain"}], "modelClassVariable": {"href": "/mdr/sdtm/1-5/classes/Findings/variables/--USCHFL", "title": "Unscheduled Flag", "type": "Class Variable"}, "parentDataset": {"href": "/mdr/sendig/3-1/datasets/LB", "title": "Laboratory", "type": "SDTM Dataset"}, "parentProduct": {"href": "/mdr/sendig/3-1", "title": "Standard for Exchange of Nonclinical Data Implementation Guide: Nonclinical Studies Version 3.1 (Final)", "type": "Implementation Guide"}, "rootItem": {"href": "/mdr/root/sendig/datasets/LB/variables/LBUSCHFL", "title": "Version-agnostic anchor resource for SENDIG variable LB.LBUSCHFL", "type": "Root Data Element"}, "self": {"href": "/mdr/sendig/3-1/datasets/LB/variables/LBUSCHFL", "title": "Unscheduled Flag", "type": "SDTM Dataset Variable"}}, "core": "Exp", "description": "Indicates whether the timing of the specimen collection was unscheduled. If a specimen collection was performed based upon a schedule defined in the protocol, this flag should be null. Expected values are \"Y\" or null.", "label": "Unscheduled Flag", "name": "LBUSCHFL", "ordinal": "43", "role": "Record Qualifier", "simpleDatatype": "Char"}, {"_links": {"modelClassVariable": {"href": "/mdr/sdtm/1-5/classes/GeneralObservations/variables/VISITDY", "title": "Planned Study Day of Visit", "type": "Class Variable"}, "parentDataset": {"href": "/mdr/sendig/3-1/datasets/LB", "title": "Laboratory", "type": "SDTM Dataset"}, "parentProduct": {"href": "/mdr/sendig/3-1", "title": "Standard for Exchange of Nonclinical Data Implementation Guide: Nonclinical Studies Version 3.1 (Final)", "type": "Implementation Guide"}, "priorVersion": {"href": "/mdr/sendig/3-0/datasets/LB/variables/VISITDY", "title": "Planned Study Day of Collection", "type": "SDTM Dataset Variable"}, "rootItem": {"href": "/mdr/root/sendig/datasets/LB/variables/VISITDY", "title": "Version-agnostic anchor resource for SENDIG variable LB.VISITDY", "type": "Root Data Element"}, "self": {"href": "/mdr/sendig/3-1/datasets/LB/variables/VISITDY", "title": "Planned Study Day of Collection", "type": "SDTM Dataset Variable"}}, "core": "Perm", "description": "Planned study day of specimen collection. Should be an integer.", "label": "Planned Study Day of Collection", "name": "VISITDY", "ordinal": "44", "role": "Timing", "simpleDatatype": "Num"}, {"_links": {"modelClassVariable": {"href": "/mdr/sdtm/1-5/classes/GeneralObservations/variables/--DTC", "title": "Date/Time of Collection", "type": "Class Variable"}, "parentDataset": {"href": "/mdr/sendig/3-1/datasets/LB", "title": "Laboratory", "type": "SDTM Dataset"}, "parentProduct": {"href": "/mdr/sendig/3-1", "title": "Standard for Exchange of Nonclinical Data Implementation Guide: Nonclinical Studies Version 3.1 (Final)", "type": "Implementation Guide"}, "priorVersion": {"href": "/mdr/sendig/3-0/datasets/LB/variables/LBDTC", "title": "Date/Time of Specimen Collection", "type": "SDTM Dataset Variable"}, "rootItem": {"href": "/mdr/root/sendig/datasets/LB/variables/LBDTC", "title": "Version-agnostic anchor resource for SENDIG variable LB.LBDTC", "type": "Root Data Element"}, "self": {"href": "/mdr/sendig/3-1/datasets/LB/variables/LBDTC", "title": "Date/Time of Specimen Collection", "type": "SDTM Dataset Variable"}}, "core": "Exp", "describedValueDomain": "ISO 8601", "description": "Date/Time of specimen collection, in IS0 8601 format.", "label": "Date/Time of Specimen Collection", "name": "LBDTC", "ordinal": "45", "role": "Timing", "simpleDatatype": "Char"}, {"_links": {"modelClassVariable": {"href": "/mdr/sdtm/1-5/classes/GeneralObservations/variables/--ENDTC", "title": "End Date/Time of Observation", "type": "Class Variable"}, "parentDataset": {"href": "/mdr/sendig/3-1/datasets/LB", "title": "Laboratory", "type": "SDTM Dataset"}, "parentProduct": {"href": "/mdr/sendig/3-1", "title": "Standard for Exchange of Nonclinical Data Implementation Guide: Nonclinical Studies Version 3.1 (Final)", "type": "Implementation Guide"}, "priorVersion": {"href": "/mdr/sendig/3-0/datasets/LB/variables/LBENDTC", "title": "End Date/Time of Specimen Collection", "type": "SDTM Dataset Variable"}, "rootItem": {"href": "/mdr/root/sendig/datasets/LB/variables/LBENDTC", "title": "Version-agnostic anchor resource for SENDIG variable LB.LBENDTC", "type": "Root Data Element"}, "self": {"href": "/mdr/sendig/3-1/datasets/LB/variables/LBENDTC", "title": "End Date/Time of Specimen Collection", "type": "SDTM Dataset Variable"}}, "core": "Perm", "describedValueDomain": "ISO 8601", "description": "Date/Time of the end of specimen collection in ISO 8601 format. Should be populated only for continuous sample collection.", "label": "End Date/Time of Specimen Collection", "name": "LBENDTC", "ordinal": "46", "role": "Timing", "simpleDatatype": "Char"}, {"_links": {"modelClassVariable": {"href": "/mdr/sdtm/1-5/classes/GeneralObservations/variables/--DY", "title": "Study Day of Visit/Collection/Exam", "type": "Class Variable"}, "parentDataset": {"href": "/mdr/sendig/3-1/datasets/LB", "title": "Laboratory", "type": "SDTM Dataset"}, "parentProduct": {"href": "/mdr/sendig/3-1", "title": "Standard for Exchange of Nonclinical Data Implementation Guide: Nonclinical Studies Version 3.1 (Final)", "type": "Implementation Guide"}, "priorVersion": {"href": "/mdr/sendig/3-0/datasets/LB/variables/LBDY", "title": "Study Day of Specimen Collection", "type": "SDTM Dataset Variable"}, "rootItem": {"href": "/mdr/root/sendig/datasets/LB/variables/LBDY", "title": "Version-agnostic anchor resource for SENDIG variable LB.LBDY", "type": "Root Data Element"}, "self": {"href": "/mdr/sendig/3-1/datasets/LB/variables/LBDY", "title": "Study Day of Specimen Collection", "type": "SDTM Dataset Variable"}}, "core": "Perm", "description": "Study day of specimen collection, in integer days. The algorithm for calculations must be relative to the sponsor-defined RFSTDTC variable in the Demographics (DM) domain.", "label": "Study Day of Specimen Collection", "name": "LBDY", "ordinal": "47", "role": "Timing", "simpleDatatype": "Num"}, {"_links": {"modelClassVariable": {"href": "/mdr/sdtm/1-5/classes/GeneralObservations/variables/--ENDY", "title": "Study Day of End of Observation", "type": "Class Variable"}, "parentDataset": {"href": "/mdr/sendig/3-1/datasets/LB", "title": "Laboratory", "type": "SDTM Dataset"}, "parentProduct": {"href": "/mdr/sendig/3-1", "title": "Standard for Exchange of Nonclinical Data Implementation Guide: Nonclinical Studies Version 3.1 (Final)", "type": "Implementation Guide"}, "priorVersion": {"href": "/mdr/sendig/3-0/datasets/LB/variables/LBENDY", "title": "Study Day of End of Specimen Collection", "type": "SDTM Dataset Variable"}, "rootItem": {"href": "/mdr/root/sendig/datasets/LB/variables/LBENDY", "title": "Version-agnostic anchor resource for SENDIG variable LB.LBENDY", "type": "Root Data Element"}, "self": {"href": "/mdr/sendig/3-1/datasets/LB/variables/LBENDY", "title": "Study Day of End of Specimen Collection", "type": "SDTM Dataset Variable"}}, "core": "Perm", "description": "Study day of the end of specimen collection, in integer days. The algorithm for calculations must be relative to the sponsor-defined RFSTDTC variable in the Demographics (DM) domain.", "label": "Study Day of End of Specimen Collection", "name": "LBENDY", "ordinal": "48", "role": "Timing", "simpleDatatype": "Num"}, {"_links": {"modelClassVariable": {"href": "/mdr/sdtm/1-5/classes/GeneralObservations/variables/--NOMDY", "title": "Nominal Study Day for Tabulations", "type": "Class Variable"}, "parentDataset": {"href": "/mdr/sendig/3-1/datasets/LB", "title": "Laboratory", "type": "SDTM Dataset"}, "parentProduct": {"href": "/mdr/sendig/3-1", "title": "Standard for Exchange of Nonclinical Data Implementation Guide: Nonclinical Studies Version 3.1 (Final)", "type": "Implementation Guide"}, "rootItem": {"href": "/mdr/root/sendig/datasets/LB/variables/LBNOMDY", "title": "Version-agnostic anchor resource for SENDIG variable LB.LBNOMDY", "type": "Root Data Element"}, "self": {"href": "/mdr/sendig/3-1/datasets/LB/variables/LBNOMDY", "title": "Nominal Study Day for Tabulations", "type": "SDTM Dataset Variable"}}, "core": "Exp", "description": "Nominal study day used for grouping records for specimen collections that may occur on different days into a single reported study day. Should be an integer.", "label": "Nominal Study Day for Tabulations", "name": "LBNOMDY", "ordinal": "49", "role": "Timing", "simpleDatatype": "Num"}, {"_links": {"modelClassVariable": {"href": "/mdr/sdtm/1-5/classes/GeneralObservations/variables/--NOMLBL", "title": "Label for Nominal Study Day", "type": "Class Variable"}, "parentDataset": {"href": "/mdr/sendig/3-1/datasets/LB", "title": "Laboratory", "type": "SDTM Dataset"}, "parentProduct": {"href": "/mdr/sendig/3-1", "title": "Standard for Exchange of Nonclinical Data Implementation Guide: Nonclinical Studies Version 3.1 (Final)", "type": "Implementation Guide"}, "rootItem": {"href": "/mdr/root/sendig/datasets/LB/variables/LBNOMLBL", "title": "Version-agnostic anchor resource for SENDIG variable LB.LBNOMLBL", "type": "Root Data Element"}, "self": {"href": "/mdr/sendig/3-1/datasets/LB/variables/LBNOMLBL", "title": "Label for Nominal Study Day", "type": "SDTM Dataset Variable"}}, "core": "Perm", "description": "A label for a given value of LBNOMDY as presented in the study report. Examples: Week 4, Day 28, Terminal Sac.", "label": "Label for Nominal Study Day", "name": "LBNOMLBL", "ordinal": "50", "role": "Timing", "simpleDatatype": "Char"}, {"_links": {"modelClassVariable": {"href": "/mdr/sdtm/1-5/classes/GeneralObservations/variables/--TPT", "title": "Planned Time Point Name", "type": "Class Variable"}, "parentDataset": {"href": "/mdr/sendig/3-1/datasets/LB", "title": "Laboratory", "type": "SDTM Dataset"}, "parentProduct": {"href": "/mdr/sendig/3-1", "title": "Standard for Exchange of Nonclinical Data Implementation Guide: Nonclinical Studies Version 3.1 (Final)", "type": "Implementation Guide"}, "priorVersion": {"href": "/mdr/sendig/3-0/datasets/LB/variables/LBTPT", "title": "Planned Time Point Name", "type": "SDTM Dataset Variable"}, "rootItem": {"href": "/mdr/root/sendig/datasets/LB/variables/LBTPT", "title": "Version-agnostic anchor resource for SENDIG variable LB.LBTPT", "type": "Root Data Element"}, "self": {"href": "/mdr/sendig/3-1/datasets/LB/variables/LBTPT", "title": "Planned Time Point Name", "type": "SDTM Dataset Variable"}}, "core": "Perm", "description": "Text Description of time when specimen should be taken. This may be represented as an elapsed time relative to a fixed reference point, such as time of last dose. See LBTPTNUM and LBTPTREF. Examples: Start, 5 min post.", "label": "Planned Time Point Name", "name": "LBTPT", "ordinal": "51", "role": "Timing", "simpleDatatype": "Char"}, {"_links": {"modelClassVariable": {"href": "/mdr/sdtm/1-5/classes/GeneralObservations/variables/--TPTNUM", "title": "Planned Time Point Number", "type": "Class Variable"}, "parentDataset": {"href": "/mdr/sendig/3-1/datasets/LB", "title": "Laboratory", "type": "SDTM Dataset"}, "parentProduct": {"href": "/mdr/sendig/3-1", "title": "Standard for Exchange of Nonclinical Data Implementation Guide: Nonclinical Studies Version 3.1 (Final)", "type": "Implementation Guide"}, "priorVersion": {"href": "/mdr/sendig/3-0/datasets/LB/variables/LBTPTNUM", "title": "Planned Time Point Number", "type": "SDTM Dataset Variable"}, "rootItem": {"href": "/mdr/root/sendig/datasets/LB/variables/LBTPTNUM", "title": "Version-agnostic anchor resource for SENDIG variable LB.LBTPTNUM", "type": "Root Data Element"}, "self": {"href": "/mdr/sendig/3-1/datasets/LB/variables/LBTPTNUM", "title": "Planned Time Point Number", "type": "SDTM Dataset Variable"}}, "core": "Perm", "description": "Numerical version of LBTPT to aid in sorting.", "label": "Planned Time Point Number", "name": "LBTPTNUM", "ordinal": "52", "role": "Timing", "simpleDatatype": "Num"}, {"_links": {"modelClassVariable": {"href": "/mdr/sdtm/1-5/classes/GeneralObservations/variables/--ELTM", "title": "Planned Elapsed Time from Time Point Ref", "type": "Class Variable"}, "parentDataset": {"href": "/mdr/sendig/3-1/datasets/LB", "title": "Laboratory", "type": "SDTM Dataset"}, "parentProduct": {"href": "/mdr/sendig/3-1", "title": "Standard for Exchange of Nonclinical Data Implementation Guide: Nonclinical Studies Version 3.1 (Final)", "type": "Implementation Guide"}, "priorVersion": {"href": "/mdr/sendig/3-0/datasets/LB/variables/LBELTM", "title": "Planned Elapsed Time from Time Point Ref", "type": "SDTM Dataset Variable"}, "rootItem": {"href": "/mdr/root/sendig/datasets/LB/variables/LBELTM", "title": "Version-agnostic anchor resource for SENDIG variable LB.LBELTM", "type": "Root Data Element"}, "self": {"href": "/mdr/sendig/3-1/datasets/LB/variables/LBELTM", "title": "Planned Elapsed Time from Time Point Ref", "type": "SDTM Dataset Variable"}}, "core": "Perm", "describedValueDomain": "ISO 8601", "description": "Elapsed time (in ISO 8601 format) relative to a planned fixed reference (LBTPTREF). This variable is useful where there are repetitive measures. Not a clock time or a date time variable. Represented as an ISO 8601 duration. Examples: \"- P15M\" to represent the period of 15 minutes prior to the reference point indicated by LBTPTREF, or \"P8H\" to represent the period of 8 hours after the reference point indicated by LBTPTREF.", "label": "Planned Elapsed Time from Time Point Ref", "name": "LBELTM", "ordinal": "53", "role": "Timing", "simpleDatatype": "Char"}, {"_links": {"modelClassVariable": {"href": "/mdr/sdtm/1-5/classes/GeneralObservations/variables/--TPTREF", "title": "Time Point Reference", "type": "Class Variable"}, "parentDataset": {"href": "/mdr/sendig/3-1/datasets/LB", "title": "Laboratory", "type": "SDTM Dataset"}, "parentProduct": {"href": "/mdr/sendig/3-1", "title": "Standard for Exchange of Nonclinical Data Implementation Guide: Nonclinical Studies Version 3.1 (Final)", "type": "Implementation Guide"}, "priorVersion": {"href": "/mdr/sendig/3-0/datasets/LB/variables/LBTPTREF", "title": "Time Point Reference", "type": "SDTM Dataset Variable"}, "rootItem": {"href": "/mdr/root/sendig/datasets/LB/variables/LBTPTREF", "title": "Version-agnostic anchor resource for SENDIG variable LB.LBTPTREF", "type": "Root Data Element"}, "self": {"href": "/mdr/sendig/3-1/datasets/LB/variables/LBTPTREF", "title": "Time Point Reference", "type": "SDTM Dataset Variable"}}, "core": "Perm", "description": "Name of the fixed reference point referred to by LBELTM, if used for LBTPTNUM, and LBTPT. It is recommended that LBTPTREF be as descriptive as possible so the reference time point can be inferred without looking at other variables. Examples: PREVIOUS DOSE, PREVIOUS MEAL.", "label": "Time Point Reference", "name": "LBTPTREF", "ordinal": "54", "role": "Timing", "simpleDatatype": "Char"}, {"_links": {"modelClassVariable": {"href": "/mdr/sdtm/1-5/classes/GeneralObservations/variables/--RFTDTC", "title": "Date/Time of Reference Time Point", "type": "Class Variable"}, "parentDataset": {"href": "/mdr/sendig/3-1/datasets/LB", "title": "Laboratory", "type": "SDTM Dataset"}, "parentProduct": {"href": "/mdr/sendig/3-1", "title": "Standard for Exchange of Nonclinical Data Implementation Guide: Nonclinical Studies Version 3.1 (Final)", "type": "Implementation Guide"}, "priorVersion": {"href": "/mdr/sendig/3-0/datasets/LB/variables/LBRFTDTC", "title": "Date/Time of Reference Time Point", "type": "SDTM Dataset Variable"}, "rootItem": {"href": "/mdr/root/sendig/datasets/LB/variables/LBRFTDTC", "title": "Version-agnostic anchor resource for SENDIG variable LB.LBRFTDTC", "type": "Root Data Element"}, "self": {"href": "/mdr/sendig/3-1/datasets/LB/variables/LBRFTDTC", "title": "Date/Time of Reference Time Point", "type": "SDTM Dataset Variable"}}, "core": "Perm", "describedValueDomain": "ISO 8601", "description": "Date/Time of the reference time point, LBTPTREF", "label": "Date/Time of Reference Time Point", "name": "LBRFTDTC", "ordinal": "55", "role": "Timing", "simpleDatatype": "Char"}], "description": "A findings domain that contains laboratory test data such as hematology, clinical chemistry and urinalysis. This domain does not include microbiology or pharmacokinetic data, which are stored in separate domains. (Source: CDISC Controlled Terminology, SDOMAIN, C49592, 2018-06-29)", "label": "Laboratory", "name": "LB", "ordinal": "11"}
