{"_links": {"parentClass": {"href": "/mdr/sendig/3-1/classes/Findings", "title": "Findings Observation Class", "type": "Class"}, "parentProduct": {"href": "/mdr/sendig/3-1", "title": "Standard for Exchange of Nonclinical Data Implementation Guide: Nonclinical Studies Version 3.1 (Final)", "type": "Implementation Guide"}, "self": {"href": "/mdr/sendig/3-1/datasets/RE", "title": "Respiratory", "type": "SDTM Dataset"}}, "datasetStructure": "One record per test per observation time or evaluation interval per subject", "datasetVariables": [{"_links": {"modelClassVariable": {"href": "/mdr/sdtm/1-5/classes/GeneralObservations/variables/STUDYID", "title": "Study Identifier", "type": "Class Variable"}, "parentDataset": {"href": "/mdr/sendig/3-1/datasets/RE", "title": "Respiratory", "type": "SDTM Dataset"}, "parentProduct": {"href": "/mdr/sendig/3-1", "title": "Standard for Exchange of Nonclinical Data Implementation Guide: Nonclinical Studies Version 3.1 (Final)", "type": "Implementation Guide"}, "rootItem": {"href": "/mdr/root/sendig/datasets/RE/variables/STUDYID", "title": "Version-agnostic anchor resource for SENDIG variable RE.STUDYID", "type": "Root Data Element"}, "self": {"href": "/mdr/sendig/3-1/datasets/RE/variables/STUDYID", "title": "Study Identifier", "type": "SDTM Dataset Variable"}}, "core": "Req", "description": "Unique identifier for a study.", "label": "Study Identifier", "name": "STUDYID", "ordinal": "1", "role": "Identifier", "simpleDatatype": "Char"}, {"_links": {"modelClassVariable": {"href": "/mdr/sdtm/1-5/classes/GeneralObservations/variables/DOMAIN", "title": "Domain Abbreviation", "type": "Class Variable"}, "parentDataset": {"href": "/mdr/sendig/3-1/datasets/RE", "title": "Respiratory", "type": "SDTM Dataset"}, "parentProduct": {"href": "/mdr/sendig/3-1", "title": "Standard for Exchange of Nonclinical Data Implementation Guide: Nonclinical Studies Version 3.1 (Final)", "type": "Implementation Guide"}, "rootItem": {"href": "/mdr/root/sendig/datasets/RE/variables/DOMAIN", "title": "Version-agnostic anchor resource for SENDIG variable RE.DOMAIN", "type": "Root Data Element"}, "self": {"href": "/mdr/sendig/3-1/datasets/RE/variables/DOMAIN", "title": "Domain Abbreviation", "type": "SDTM Dataset Variable"}}, "core": "Req", "description": "Two-character abbreviation for the domain.", "label": "Domain Abbreviation", "name": "DOMAIN", "ordinal": "2", "role": "Identifier", "simpleDatatype": "Char", "valueList": ["RE"]}, {"_links": {"modelClassVariable": {"href": "/mdr/sdtm/1-5/classes/GeneralObservations/variables/USUBJID", "title": "Unique Subject Identifier", "type": "Class Variable"}, "parentDataset": {"href": "/mdr/sendig/3-1/datasets/RE", "title": "Respiratory", "type": "SDTM Dataset"}, "parentProduct": {"href": "/mdr/sendig/3-1", "title": "Standard for Exchange of Nonclinical Data Implementation Guide: Nonclinical Studies Version 3.1 (Final)", "type": "Implementation Guide"}, "rootItem": {"href": "/mdr/root/sendig/datasets/RE/variables/USUBJID", "title": "Version-agnostic anchor resource for SENDIG variable RE.USUBJID", "type": "Root Data Element"}, "self": {"href": "/mdr/sendig/3-1/datasets/RE/variables/USUBJID", "title": "Unique Subject Identifier", "type": "SDTM Dataset Variable"}}, "core": "Req", "description": "Identifier used to uniquely identify a subject across all studies for all application or submissions involving the product.", "label": "Unique Subject Identifier", "name": "USUBJID", "ordinal": "3", "role": "Identifier", "simpleDatatype": "Char"}, {"_links": {"modelClassVariable": {"href": "/mdr/sdtm/1-5/classes/GeneralObservations/variables/--SEQ", "title": "Sequence Number", "type": "Class Variable"}, "parentDataset": {"href": "/mdr/sendig/3-1/datasets/RE", "title": "Respiratory", "type": "SDTM Dataset"}, "parentProduct": {"href": "/mdr/sendig/3-1", "title": "Standard for Exchange of Nonclinical Data Implementation Guide: Nonclinical Studies Version 3.1 (Final)", "type": "Implementation Guide"}, "rootItem": {"href": "/mdr/root/sendig/datasets/RE/variables/RESEQ", "title": "Version-agnostic anchor resource for SENDIG variable RE.RESEQ", "type": "Root Data Element"}, "self": {"href": "/mdr/sendig/3-1/datasets/RE/variables/RESEQ", "title": "Sequence Number", "type": "SDTM Dataset Variable"}}, "core": "Req", "description": "Sequence number given to ensure uniqueness of subject records within a domain. May be any valid number.", "label": "Sequence Number", "name": "RESEQ", "ordinal": "4", "role": "Identifier", "simpleDatatype": "Num"}, {"_links": {"modelClassVariable": {"href": "/mdr/sdtm/1-5/classes/GeneralObservations/variables/--GRPID", "title": "Group ID", "type": "Class Variable"}, "parentDataset": {"href": "/mdr/sendig/3-1/datasets/RE", "title": "Respiratory", "type": "SDTM Dataset"}, "parentProduct": {"href": "/mdr/sendig/3-1", "title": "Standard for Exchange of Nonclinical Data Implementation Guide: Nonclinical Studies Version 3.1 (Final)", "type": "Implementation Guide"}, "rootItem": {"href": "/mdr/root/sendig/datasets/RE/variables/REGRPID", "title": "Version-agnostic anchor resource for SENDIG variable RE.REGRPID", "type": "Root Data Element"}, "self": {"href": "/mdr/sendig/3-1/datasets/RE/variables/REGRPID", "title": "Group Identifier", "type": "SDTM Dataset Variable"}}, "core": "Perm", "description": "Used to tie together a block of related records in a single domain for a subject and can be used to support relationships within the domain and between domains using RELREC. This is not the treatment group number.", "label": "Group Identifier", "name": "REGRPID", "ordinal": "5", "role": "Identifier", "simpleDatatype": "Char"}, {"_links": {"modelClassVariable": {"href": "/mdr/sdtm/1-5/classes/GeneralObservations/variables/--SPID", "title": "Sponsor-Defined Identifier", "type": "Class Variable"}, "parentDataset": {"href": "/mdr/sendig/3-1/datasets/RE", "title": "Respiratory", "type": "SDTM Dataset"}, "parentProduct": {"href": "/mdr/sendig/3-1", "title": "Standard for Exchange of Nonclinical Data Implementation Guide: Nonclinical Studies Version 3.1 (Final)", "type": "Implementation Guide"}, "rootItem": {"href": "/mdr/root/sendig/datasets/RE/variables/RESPID", "title": "Version-agnostic anchor resource for SENDIG variable RE.RESPID", "type": "Root Data Element"}, "self": {"href": "/mdr/sendig/3-1/datasets/RE/variables/RESPID", "title": "Sponsor-Defined Identifier", "type": "SDTM Dataset Variable"}}, "core": "Perm", "description": "Sponsor-defined reference identifier.", "label": "Sponsor-Defined Identifier", "name": "RESPID", "ordinal": "6", "role": "Identifier", "simpleDatatype": "Char"}, {"_links": {"codelist": [{"href": "/mdr/root/ct/sendct/codelists/C120534", "title": "Version-agnostic anchor resource for codelist C120534", "type": "Root Value Domain"}], "modelClassVariable": {"href": "/mdr/sdtm/1-5/classes/Findings/variables/--TESTCD", "title": "Short Name of Measurement, Test or Examination", "type": "Class Variable"}, "parentDataset": {"href": "/mdr/sendig/3-1/datasets/RE", "title": "Respiratory", "type": "SDTM Dataset"}, "parentProduct": {"href": "/mdr/sendig/3-1", "title": "Standard for Exchange of Nonclinical Data Implementation Guide: Nonclinical Studies Version 3.1 (Final)", "type": "Implementation Guide"}, "rootItem": {"href": "/mdr/root/sendig/datasets/RE/variables/RETESTCD", "title": "Version-agnostic anchor resource for SENDIG variable RE.RETESTCD", "type": "Root Data Element"}, "self": {"href": "/mdr/sendig/3-1/datasets/RE/variables/RETESTCD", "title": "Test Short Name", "type": "SDTM Dataset Variable"}}, "core": "Req", "description": "Short name of the measurement, test, or examination described in RETEST. It can be used as a column name when converting a dataset from a vertical to a horizontal format. The value in RETESTCD cannot be longer than 8 characters, nor can it start with a number (e.g., \"1TEST\" is not valid). RETESTCD cannot contain characters other than letters, numbers, or underscores. Examples: RESPRATE, TIDALVOL, MV.", "label": "Test Short Name", "name": "RETESTCD", "ordinal": "7", "role": "Topic", "simpleDatatype": "Char"}, {"_links": {"codelist": [{"href": "/mdr/root/ct/sendct/codelists/C120535", "title": "Version-agnostic anchor resource for codelist C120535", "type": "Root Value Domain"}], "modelClassVariable": {"href": "/mdr/sdtm/1-5/classes/Findings/variables/--TEST", "title": "Name of Measurement, Test or Examination", "type": "Class Variable"}, "parentDataset": {"href": "/mdr/sendig/3-1/datasets/RE", "title": "Respiratory", "type": "SDTM Dataset"}, "parentProduct": {"href": "/mdr/sendig/3-1", "title": "Standard for Exchange of Nonclinical Data Implementation Guide: Nonclinical Studies Version 3.1 (Final)", "type": "Implementation Guide"}, "rootItem": {"href": "/mdr/root/sendig/datasets/RE/variables/RETEST", "title": "Version-agnostic anchor resource for SENDIG variable RE.RETEST", "type": "Root Data Element"}, "self": {"href": "/mdr/sendig/3-1/datasets/RE/variables/RETEST", "title": "Test Name", "type": "SDTM Dataset Variable"}}, "core": "Req", "description": "Long name for RETESTCD. The value in RETEST cannot be longer than 40 characters. Examples: Respiratory Rate, Tidal Volume, Minute Volume.", "label": "Test Name", "name": "RETEST", "ordinal": "8", "role": "Synonym Qualifier", "simpleDatatype": "Char"}, {"_links": {"codelist": [{"href": "/mdr/root/ct/sendct/codelists/C71148", "title": "Version-agnostic anchor resource for codelist C71148", "type": "Root Value Domain"}], "modelClassVariable": {"href": "/mdr/sdtm/1-5/classes/Findings/variables/--POS", "title": "Position of Subject During Observation", "type": "Class Variable"}, "parentDataset": {"href": "/mdr/sendig/3-1/datasets/RE", "title": "Respiratory", "type": "SDTM Dataset"}, "parentProduct": {"href": "/mdr/sendig/3-1", "title": "Standard for Exchange of Nonclinical Data Implementation Guide: Nonclinical Studies Version 3.1 (Final)", "type": "Implementation Guide"}, "rootItem": {"href": "/mdr/root/sendig/datasets/RE/variables/REPOS", "title": "Version-agnostic anchor resource for SENDIG variable RE.REPOS", "type": "Root Data Element"}, "self": {"href": "/mdr/sendig/3-1/datasets/RE/variables/REPOS", "title": "Position of Subject During Test", "type": "SDTM Dataset Variable"}}, "core": "Exp", "description": "Position of the subject during the measurement or examination, If the subject is restrained, populate with the position (example SITTING or STANDING); otherwise, populate with UNCONSTRAINED.", "label": "Position of Subject During Test", "name": "REPOS", "ordinal": "9", "role": "Record Qualifier", "simpleDatatype": "Char"}, {"_links": {"modelClassVariable": {"href": "/mdr/sdtm/1-5/classes/Findings/variables/--ORRES", "title": "Result or Finding in Original Units", "type": "Class Variable"}, "parentDataset": {"href": "/mdr/sendig/3-1/datasets/RE", "title": "Respiratory", "type": "SDTM Dataset"}, "parentProduct": {"href": "/mdr/sendig/3-1", "title": "Standard for Exchange of Nonclinical Data Implementation Guide: Nonclinical Studies Version 3.1 (Final)", "type": "Implementation Guide"}, "rootItem": {"href": "/mdr/root/sendig/datasets/RE/variables/REORRES", "title": "Version-agnostic anchor resource for SENDIG variable RE.REORRES", "type": "Root Data Element"}, "self": {"href": "/mdr/sendig/3-1/datasets/RE/variables/REORRES", "title": "Result or Findings as Collected", "type": "SDTM Dataset Variable"}}, "core": "Exp", "description": "Result of the measurement or finding as originally received or collected.", "label": "Result or Findings as Collected", "name": "REORRES", "ordinal": "10", "role": "Result Qualifier", "simpleDatatype": "Char"}, {"_links": {"codelist": [{"href": "/mdr/root/ct/sendct/codelists/C71620", "title": "Version-agnostic anchor resource for codelist C71620", "type": "Root Value Domain"}], "modelClassVariable": {"href": "/mdr/sdtm/1-5/classes/Findings/variables/--ORRESU", "title": "Original Units", "type": "Class Variable"}, "parentDataset": {"href": "/mdr/sendig/3-1/datasets/RE", "title": "Respiratory", "type": "SDTM Dataset"}, "parentProduct": {"href": "/mdr/sendig/3-1", "title": "Standard for Exchange of Nonclinical Data Implementation Guide: Nonclinical Studies Version 3.1 (Final)", "type": "Implementation Guide"}, "rootItem": {"href": "/mdr/root/sendig/datasets/RE/variables/REORRESU", "title": "Version-agnostic anchor resource for SENDIG variable RE.REORRESU", "type": "Root Data Element"}, "self": {"href": "/mdr/sendig/3-1/datasets/RE/variables/REORRESU", "title": "Unit of the Original Result", "type": "SDTM Dataset Variable"}}, "core": "Exp", "description": "The unit for the original result. The unit of the original result should be mapped to a synonymous unit on the Controlled Terminology (http://www.cdisc.org/terminology) list.", "label": "Unit of the Original Result", "name": "REORRESU", "ordinal": "11", "role": "Variable Qualifier", "simpleDatatype": "Char"}, {"_links": {"modelClassVariable": {"href": "/mdr/sdtm/1-5/classes/Findings/variables/--STRESC", "title": "Result or Finding in Standard Format", "type": "Class Variable"}, "parentDataset": {"href": "/mdr/sendig/3-1/datasets/RE", "title": "Respiratory", "type": "SDTM Dataset"}, "parentProduct": {"href": "/mdr/sendig/3-1", "title": "Standard for Exchange of Nonclinical Data Implementation Guide: Nonclinical Studies Version 3.1 (Final)", "type": "Implementation Guide"}, "rootItem": {"href": "/mdr/root/sendig/datasets/RE/variables/RESTRESC", "title": "Version-agnostic anchor resource for SENDIG variable RE.RESTRESC", "type": "Root Data Element"}, "self": {"href": "/mdr/sendig/3-1/datasets/RE/variables/RESTRESC", "title": "Standardized Result in Character Format", "type": "SDTM Dataset Variable"}}, "core": "Exp", "description": "Contains the result value for all findings, copied or derived from REORRES in a standard format or standard units. RESTRESC should store all results or findings in character format; if results are numeric, they should also be stored in numeric format in RESTRESN.", "label": "Standardized Result in Character Format", "name": "RESTRESC", "ordinal": "12", "role": "Result Qualifier", "simpleDatatype": "Char"}, {"_links": {"modelClassVariable": {"href": "/mdr/sdtm/1-5/classes/Findings/variables/--STRESN", "title": "Numeric Result/Finding in Standard Units", "type": "Class Variable"}, "parentDataset": {"href": "/mdr/sendig/3-1/datasets/RE", "title": "Respiratory", "type": "SDTM Dataset"}, "parentProduct": {"href": "/mdr/sendig/3-1", "title": "Standard for Exchange of Nonclinical Data Implementation Guide: Nonclinical Studies Version 3.1 (Final)", "type": "Implementation Guide"}, "rootItem": {"href": "/mdr/root/sendig/datasets/RE/variables/RESTRESN", "title": "Version-agnostic anchor resource for SENDIG variable RE.RESTRESN", "type": "Root Data Element"}, "self": {"href": "/mdr/sendig/3-1/datasets/RE/variables/RESTRESN", "title": "Standardized Result in Numeric Format", "type": "SDTM Dataset Variable"}}, "core": "Exp", "description": "Used for continuous or numeric results or findings in standard format; contains the numeric form of RESTRESC. RESTRESN should store all numeric test results or findings.", "label": "Standardized Result in Numeric Format", "name": "RESTRESN", "ordinal": "13", "role": "Result Qualifier", "simpleDatatype": "Num"}, {"_links": {"codelist": [{"href": "/mdr/root/ct/sendct/codelists/C71620", "title": "Version-agnostic anchor resource for codelist C71620", "type": "Root Value Domain"}], "modelClassVariable": {"href": "/mdr/sdtm/1-5/classes/Findings/variables/--STRESU", "title": "Standard Units", "type": "Class Variable"}, "parentDataset": {"href": "/mdr/sendig/3-1/datasets/RE", "title": "Respiratory", "type": "SDTM Dataset"}, "parentProduct": {"href": "/mdr/sendig/3-1", "title": "Standard for Exchange of Nonclinical Data Implementation Guide: Nonclinical Studies Version 3.1 (Final)", "type": "Implementation Guide"}, "rootItem": {"href": "/mdr/root/sendig/datasets/RE/variables/RESTRESU", "title": "Version-agnostic anchor resource for SENDIG variable RE.RESTRESU", "type": "Root Data Element"}, "self": {"href": "/mdr/sendig/3-1/datasets/RE/variables/RESTRESU", "title": "Unit of the Standardized Result", "type": "SDTM Dataset Variable"}}, "core": "Exp", "description": "Standardized unit used for RESTRESC and RESTRESN.", "label": "Unit of the Standardized Result", "name": "RESTRESU", "ordinal": "14", "role": "Variable Qualifier", "simpleDatatype": "Char"}, {"_links": {"codelist": [{"href": "/mdr/root/ct/sendct/codelists/C66789", "title": "Version-agnostic anchor resource for codelist C66789", "type": "Root Value Domain"}], "modelClassVariable": {"href": "/mdr/sdtm/1-5/classes/Findings/variables/--STAT", "title": "Completion Status", "type": "Class Variable"}, "parentDataset": {"href": "/mdr/sendig/3-1/datasets/RE", "title": "Respiratory", "type": "SDTM Dataset"}, "parentProduct": {"href": "/mdr/sendig/3-1", "title": "Standard for Exchange of Nonclinical Data Implementation Guide: Nonclinical Studies Version 3.1 (Final)", "type": "Implementation Guide"}, "rootItem": {"href": "/mdr/root/sendig/datasets/RE/variables/RESTAT", "title": "Version-agnostic anchor resource for SENDIG variable RE.RESTAT", "type": "Root Data Element"}, "self": {"href": "/mdr/sendig/3-1/datasets/RE/variables/RESTAT", "title": "Completion Status", "type": "SDTM Dataset Variable"}}, "core": "Perm", "description": "Used to indicate when a test is not done or result is missing. Should be null if a result exists in REORRES.", "label": "Completion Status", "name": "RESTAT", "ordinal": "15", "role": "Record Qualifier", "simpleDatatype": "Char"}, {"_links": {"modelClassVariable": {"href": "/mdr/sdtm/1-5/classes/Findings/variables/--REASND", "title": "Reason Not Done", "type": "Class Variable"}, "parentDataset": {"href": "/mdr/sendig/3-1/datasets/RE", "title": "Respiratory", "type": "SDTM Dataset"}, "parentProduct": {"href": "/mdr/sendig/3-1", "title": "Standard for Exchange of Nonclinical Data Implementation Guide: Nonclinical Studies Version 3.1 (Final)", "type": "Implementation Guide"}, "rootItem": {"href": "/mdr/root/sendig/datasets/RE/variables/REREASND", "title": "Version-agnostic anchor resource for SENDIG variable RE.REREASND", "type": "Root Data Element"}, "self": {"href": "/mdr/sendig/3-1/datasets/RE/variables/REREASND", "title": "Reason Not Done", "type": "SDTM Dataset Variable"}}, "core": "Perm", "description": "Describes why RESTAT is NOT DONE, such as BROKEN EQUIPMENT.", "label": "Reason Not Done", "name": "REREASND", "ordinal": "16", "role": "Record Qualifier", "simpleDatatype": "Char"}, {"_links": {"modelClassVariable": {"href": "/mdr/sdtm/1-5/classes/Findings/variables/--METHOD", "title": "Method of Test or Examination", "type": "Class Variable"}, "parentDataset": {"href": "/mdr/sendig/3-1/datasets/RE", "title": "Respiratory", "type": "SDTM Dataset"}, "parentProduct": {"href": "/mdr/sendig/3-1", "title": "Standard for Exchange of Nonclinical Data Implementation Guide: Nonclinical Studies Version 3.1 (Final)", "type": "Implementation Guide"}, "rootItem": {"href": "/mdr/root/sendig/datasets/RE/variables/REMETHOD", "title": "Version-agnostic anchor resource for SENDIG variable RE.REMETHOD", "type": "Root Data Element"}, "self": {"href": "/mdr/sendig/3-1/datasets/RE/variables/REMETHOD", "title": "Method of Test", "type": "SDTM Dataset Variable"}}, "core": "Exp", "description": "Method of the test or examination. Examples: Whole body plethysmograph, Head-out plethysmograph, Invasive.", "label": "Method of Test", "name": "REMETHOD", "ordinal": "17", "role": "Record Qualifier", "simpleDatatype": "Char"}, {"_links": {"codelist": [{"href": "/mdr/root/ct/sendct/codelists/C90018", "title": "Version-agnostic anchor resource for codelist C90018", "type": "Root Value Domain"}], "modelClassVariable": {"href": "/mdr/sdtm/1-5/classes/Findings/variables/--CSTATE", "title": "Consciousness State", "type": "Class Variable"}, "parentDataset": {"href": "/mdr/sendig/3-1/datasets/RE", "title": "Respiratory", "type": "SDTM Dataset"}, "parentProduct": {"href": "/mdr/sendig/3-1", "title": "Standard for Exchange of Nonclinical Data Implementation Guide: Nonclinical Studies Version 3.1 (Final)", "type": "Implementation Guide"}, "rootItem": {"href": "/mdr/root/sendig/datasets/RE/variables/RECSTATE", "title": "Version-agnostic anchor resource for SENDIG variable RE.RECSTATE", "type": "Root Data Element"}, "self": {"href": "/mdr/sendig/3-1/datasets/RE/variables/RECSTATE", "title": "Consciousness State", "type": "SDTM Dataset Variable"}}, "core": "Exp", "description": "Consciousness state of the subject at the time of measurement. Examples: CONSCIOUS, SEMI-CONSCIOUS, UNCONSCIOUS", "label": "Consciousness State", "name": "RECSTATE", "ordinal": "18", "role": "Record Qualifier", "simpleDatatype": "Char"}, {"_links": {"codelist": [{"href": "/mdr/root/ct/sendct/codelists/C66742", "title": "Version-agnostic anchor resource for codelist C66742", "type": "Root Value Domain"}], "modelClassVariable": {"href": "/mdr/sdtm/1-5/classes/Findings/variables/--BLFL", "title": "Baseline Flag", "type": "Class Variable"}, "parentDataset": {"href": "/mdr/sendig/3-1/datasets/RE", "title": "Respiratory", "type": "SDTM Dataset"}, "parentProduct": {"href": "/mdr/sendig/3-1", "title": "Standard for Exchange of Nonclinical Data Implementation Guide: Nonclinical Studies Version 3.1 (Final)", "type": "Implementation Guide"}, "rootItem": {"href": "/mdr/root/sendig/datasets/RE/variables/REBLFL", "title": "Version-agnostic anchor resource for SENDIG variable RE.REBLFL", "type": "Root Data Element"}, "self": {"href": "/mdr/sendig/3-1/datasets/RE/variables/REBLFL", "title": "Baseline Flag", "type": "SDTM Dataset Variable"}}, "core": "Exp", "description": "A baseline indicator may be used to calculate differences or changes from baseline. Value should be Y or null. The baseline flag is sponsor defined.", "label": "Baseline Flag", "name": "REBLFL", "ordinal": "19", "role": "Record Qualifier", "simpleDatatype": "Char"}, {"_links": {"codelist": [{"href": "/mdr/root/ct/sendct/codelists/C66742", "title": "Version-agnostic anchor resource for codelist C66742", "type": "Root Value Domain"}], "modelClassVariable": {"href": "/mdr/sdtm/1-5/classes/Findings/variables/--DRVFL", "title": "Derived Flag", "type": "Class Variable"}, "parentDataset": {"href": "/mdr/sendig/3-1/datasets/RE", "title": "Respiratory", "type": "SDTM Dataset"}, "parentProduct": {"href": "/mdr/sendig/3-1", "title": "Standard for Exchange of Nonclinical Data Implementation Guide: Nonclinical Studies Version 3.1 (Final)", "type": "Implementation Guide"}, "rootItem": {"href": "/mdr/root/sendig/datasets/RE/variables/REDRVFL", "title": "Version-agnostic anchor resource for SENDIG variable RE.REDRVFL", "type": "Root Data Element"}, "self": {"href": "/mdr/sendig/3-1/datasets/RE/variables/REDRVFL", "title": "Derived Flag", "type": "SDTM Dataset Variable"}}, "core": "Perm", "description": "Used to indicate a derived record. The value should be Y or null.", "label": "Derived Flag", "name": "REDRVFL", "ordinal": "20", "role": "Record Qualifier", "simpleDatatype": "Char"}, {"_links": {"codelist": [{"href": "/mdr/root/ct/sendct/codelists/C66742", "title": "Version-agnostic anchor resource for codelist C66742", "type": "Root Value Domain"}], "modelClassVariable": {"href": "/mdr/sdtm/1-5/classes/Findings/variables/--EXCLFL", "title": "Exclude from Statistics", "type": "Class Variable"}, "parentDataset": {"href": "/mdr/sendig/3-1/datasets/RE", "title": "Respiratory", "type": "SDTM Dataset"}, "parentProduct": {"href": "/mdr/sendig/3-1", "title": "Standard for Exchange of Nonclinical Data Implementation Guide: Nonclinical Studies Version 3.1 (Final)", "type": "Implementation Guide"}, "rootItem": {"href": "/mdr/root/sendig/datasets/RE/variables/REEXCLFL", "title": "Version-agnostic anchor resource for SENDIG variable RE.REEXCLFL", "type": "Root Data Element"}, "self": {"href": "/mdr/sendig/3-1/datasets/RE/variables/REEXCLFL", "title": "Exclusion Flag", "type": "SDTM Dataset Variable"}}, "core": "Perm", "description": "Y if the result should be excluded from all calculations, otherwise null.", "label": "Exclusion Flag", "name": "REEXCLFL", "ordinal": "21", "role": "Record Qualifier", "simpleDatatype": "Char"}, {"_links": {"modelClassVariable": {"href": "/mdr/sdtm/1-5/classes/Findings/variables/--REASEX", "title": "Reason for Exclusion from Statistics", "type": "Class Variable"}, "parentDataset": {"href": "/mdr/sendig/3-1/datasets/RE", "title": "Respiratory", "type": "SDTM Dataset"}, "parentProduct": {"href": "/mdr/sendig/3-1", "title": "Standard for Exchange of Nonclinical Data Implementation Guide: Nonclinical Studies Version 3.1 (Final)", "type": "Implementation Guide"}, "rootItem": {"href": "/mdr/root/sendig/datasets/RE/variables/REREASEX", "title": "Version-agnostic anchor resource for SENDIG variable RE.REREASEX", "type": "Root Data Element"}, "self": {"href": "/mdr/sendig/3-1/datasets/RE/variables/REREASEX", "title": "Reason for Exclusion", "type": "SDTM Dataset Variable"}}, "core": "Perm", "description": "The reason the result should be excluded from all calculations. Used only when REEXCLFL is Y.", "label": "Reason for Exclusion", "name": "REREASEX", "ordinal": "22", "role": "Record Qualifier", "simpleDatatype": "Char"}, {"_links": {"codelist": [{"href": "/mdr/root/ct/sendct/codelists/C66742", "title": "Version-agnostic anchor resource for codelist C66742", "type": "Root Value Domain"}], "modelClassVariable": {"href": "/mdr/sdtm/1-5/classes/Findings/variables/--USCHFL", "title": "Unscheduled Flag", "type": "Class Variable"}, "parentDataset": {"href": "/mdr/sendig/3-1/datasets/RE", "title": "Respiratory", "type": "SDTM Dataset"}, "parentProduct": {"href": "/mdr/sendig/3-1", "title": "Standard for Exchange of Nonclinical Data Implementation Guide: Nonclinical Studies Version 3.1 (Final)", "type": "Implementation Guide"}, "rootItem": {"href": "/mdr/root/sendig/datasets/RE/variables/REUSCHFL", "title": "Version-agnostic anchor resource for SENDIG variable RE.REUSCHFL", "type": "Root Data Element"}, "self": {"href": "/mdr/sendig/3-1/datasets/RE/variables/REUSCHFL", "title": "Unscheduled Flag", "type": "SDTM Dataset Variable"}}, "core": "Perm", "description": "Indicates whether the timing of the performed test or observation was unscheduled. If a test or observation was performed based upon a schedule defined in the protocol, this flag should be null. Expected values are Y or null.", "label": "Unscheduled Flag", "name": "REUSCHFL", "ordinal": "23", "role": "Record Qualifier", "simpleDatatype": "Char"}, {"_links": {"modelClassVariable": {"href": "/mdr/sdtm/1-5/classes/GeneralObservations/variables/--DTC", "title": "Date/Time of Collection", "type": "Class Variable"}, "parentDataset": {"href": "/mdr/sendig/3-1/datasets/RE", "title": "Respiratory", "type": "SDTM Dataset"}, "parentProduct": {"href": "/mdr/sendig/3-1", "title": "Standard for Exchange of Nonclinical Data Implementation Guide: Nonclinical Studies Version 3.1 (Final)", "type": "Implementation Guide"}, "rootItem": {"href": "/mdr/root/sendig/datasets/RE/variables/REDTC", "title": "Version-agnostic anchor resource for SENDIG variable RE.REDTC", "type": "Root Data Element"}, "self": {"href": "/mdr/sendig/3-1/datasets/RE/variables/REDTC", "title": "Date/Time of Respiratory Measurement", "type": "SDTM Dataset Variable"}}, "core": "Exp", "describedValueDomain": "ISO 8601", "description": "Date/Time of respiratory data collection, in ISO 8601 format. For measurements related to a continuous evaluation interval, REDTC should be used to indicate the start date/time of that interval.", "label": "Date/Time of Respiratory Measurement", "name": "REDTC", "ordinal": "24", "role": "Timing", "simpleDatatype": "Char"}, {"_links": {"modelClassVariable": {"href": "/mdr/sdtm/1-5/classes/GeneralObservations/variables/--ENDTC", "title": "End Date/Time of Observation", "type": "Class Variable"}, "parentDataset": {"href": "/mdr/sendig/3-1/datasets/RE", "title": "Respiratory", "type": "SDTM Dataset"}, "parentProduct": {"href": "/mdr/sendig/3-1", "title": "Standard for Exchange of Nonclinical Data Implementation Guide: Nonclinical Studies Version 3.1 (Final)", "type": "Implementation Guide"}, "rootItem": {"href": "/mdr/root/sendig/datasets/RE/variables/REENDTC", "title": "Version-agnostic anchor resource for SENDIG variable RE.REENDTC", "type": "Root Data Element"}, "self": {"href": "/mdr/sendig/3-1/datasets/RE/variables/REENDTC", "title": "End Date/Time of Respiratory Measurement", "type": "SDTM Dataset Variable"}}, "core": "Perm", "describedValueDomain": "ISO 8601", "description": "Date/Time of end of the respiratory evaluation interval, in ISO 8601 format. Should be populated when REDTC represents the start date/time of a continuous evaluation interval.", "label": "End Date/Time of Respiratory Measurement", "name": "REENDTC", "ordinal": "25", "role": "Timing", "simpleDatatype": "Char"}, {"_links": {"modelClassVariable": {"href": "/mdr/sdtm/1-5/classes/GeneralObservations/variables/--DY", "title": "Study Day of Visit/Collection/Exam", "type": "Class Variable"}, "parentDataset": {"href": "/mdr/sendig/3-1/datasets/RE", "title": "Respiratory", "type": "SDTM Dataset"}, "parentProduct": {"href": "/mdr/sendig/3-1", "title": "Standard for Exchange of Nonclinical Data Implementation Guide: Nonclinical Studies Version 3.1 (Final)", "type": "Implementation Guide"}, "rootItem": {"href": "/mdr/root/sendig/datasets/RE/variables/REDY", "title": "Version-agnostic anchor resource for SENDIG variable RE.REDY", "type": "Root Data Element"}, "self": {"href": "/mdr/sendig/3-1/datasets/RE/variables/REDY", "title": "Study Day of Respiratory Measurement", "type": "SDTM Dataset Variable"}}, "core": "Perm", "description": "Study day of respiratory data collection, in integer days. For measurements related to a continuous evaluation interval, REDY can be used to indicate start day of that interval. The algorithm for calculations must be relative to the sponsor-defined RFSTDTC variable in the Demographics (DM) domain.", "label": "Study Day of Respiratory Measurement", "name": "REDY", "ordinal": "26", "role": "Timing", "simpleDatatype": "Num"}, {"_links": {"modelClassVariable": {"href": "/mdr/sdtm/1-5/classes/GeneralObservations/variables/--ENDY", "title": "Study Day of End of Observation", "type": "Class Variable"}, "parentDataset": {"href": "/mdr/sendig/3-1/datasets/RE", "title": "Respiratory", "type": "SDTM Dataset"}, "parentProduct": {"href": "/mdr/sendig/3-1", "title": "Standard for Exchange of Nonclinical Data Implementation Guide: Nonclinical Studies Version 3.1 (Final)", "type": "Implementation Guide"}, "rootItem": {"href": "/mdr/root/sendig/datasets/RE/variables/REENDY", "title": "Version-agnostic anchor resource for SENDIG variable RE.REENDY", "type": "Root Data Element"}, "self": {"href": "/mdr/sendig/3-1/datasets/RE/variables/REENDY", "title": "End Study Day of Respiratory Measurement", "type": "SDTM Dataset Variable"}}, "core": "Perm", "description": "Study day of the respiratory data collection, in integer days. Can be populated when REDY represents the start day of a continuous evaluation interval. The algorithm for calculations must be relative to the sponsor-defined RFSTDTC variable in the Demographics (DM) domain.", "label": "End Study Day of Respiratory Measurement", "name": "REENDY", "ordinal": "27", "role": "Timing", "simpleDatatype": "Num"}, {"_links": {"modelClassVariable": {"href": "/mdr/sdtm/1-5/classes/GeneralObservations/variables/--NOMDY", "title": "Nominal Study Day for Tabulations", "type": "Class Variable"}, "parentDataset": {"href": "/mdr/sendig/3-1/datasets/RE", "title": "Respiratory", "type": "SDTM Dataset"}, "parentProduct": {"href": "/mdr/sendig/3-1", "title": "Standard for Exchange of Nonclinical Data Implementation Guide: Nonclinical Studies Version 3.1 (Final)", "type": "Implementation Guide"}, "rootItem": {"href": "/mdr/root/sendig/datasets/RE/variables/RENOMDY", "title": "Version-agnostic anchor resource for SENDIG variable RE.RENOMDY", "type": "Root Data Element"}, "self": {"href": "/mdr/sendig/3-1/datasets/RE/variables/RENOMDY", "title": "Nominal Study Day for Tabulations", "type": "SDTM Dataset Variable"}}, "core": "Exp", "description": "Nominal study day used for grouping records for observations that may occur on different days into a single reported study day. Should be an integer.", "label": "Nominal Study Day for Tabulations", "name": "RENOMDY", "ordinal": "28", "role": "Timing", "simpleDatatype": "Num"}, {"_links": {"modelClassVariable": {"href": "/mdr/sdtm/1-5/classes/GeneralObservations/variables/--NOMLBL", "title": "Label for Nominal Study Day", "type": "Class Variable"}, "parentDataset": {"href": "/mdr/sendig/3-1/datasets/RE", "title": "Respiratory", "type": "SDTM Dataset"}, "parentProduct": {"href": "/mdr/sendig/3-1", "title": "Standard for Exchange of Nonclinical Data Implementation Guide: Nonclinical Studies Version 3.1 (Final)", "type": "Implementation Guide"}, "rootItem": {"href": "/mdr/root/sendig/datasets/RE/variables/RENOMLBL", "title": "Version-agnostic anchor resource for SENDIG variable RE.RENOMLBL", "type": "Root Data Element"}, "self": {"href": "/mdr/sendig/3-1/datasets/RE/variables/RENOMLBL", "title": "Label for Nominal Study Day", "type": "SDTM Dataset Variable"}}, "core": "Perm", "description": "A label for a given value of RENOMDY as presented in the study report. Examples: Pretreatment, Week 4, Day 28.", "label": "Label for Nominal Study Day", "name": "RENOMLBL", "ordinal": "29", "role": "Timing", "simpleDatatype": "Char"}, {"_links": {"modelClassVariable": {"href": "/mdr/sdtm/1-5/classes/GeneralObservations/variables/--TPT", "title": "Planned Time Point Name", "type": "Class Variable"}, "parentDataset": {"href": "/mdr/sendig/3-1/datasets/RE", "title": "Respiratory", "type": "SDTM Dataset"}, "parentProduct": {"href": "/mdr/sendig/3-1", "title": "Standard for Exchange of Nonclinical Data Implementation Guide: Nonclinical Studies Version 3.1 (Final)", "type": "Implementation Guide"}, "rootItem": {"href": "/mdr/root/sendig/datasets/RE/variables/RETPT", "title": "Version-agnostic anchor resource for SENDIG variable RE.RETPT", "type": "Root Data Element"}, "self": {"href": "/mdr/sendig/3-1/datasets/RE/variables/RETPT", "title": "Planned Time Point Name", "type": "SDTM Dataset Variable"}}, "core": "Exp", "description": "Text description of time when respiratory data should be collected. This may be represented as an elapsed time relative to a fixed reference point, such as time of last dose. See RETPTNUM and RETPTREF. Examples: Predose, 1 Hour Postdose.", "label": "Planned Time Point Name", "name": "RETPT", "ordinal": "30", "role": "Timing", "simpleDatatype": "Char"}, {"_links": {"modelClassVariable": {"href": "/mdr/sdtm/1-5/classes/GeneralObservations/variables/--TPTNUM", "title": "Planned Time Point Number", "type": "Class Variable"}, "parentDataset": {"href": "/mdr/sendig/3-1/datasets/RE", "title": "Respiratory", "type": "SDTM Dataset"}, "parentProduct": {"href": "/mdr/sendig/3-1", "title": "Standard for Exchange of Nonclinical Data Implementation Guide: Nonclinical Studies Version 3.1 (Final)", "type": "Implementation Guide"}, "rootItem": {"href": "/mdr/root/sendig/datasets/RE/variables/RETPTNUM", "title": "Version-agnostic anchor resource for SENDIG variable RE.RETPTNUM", "type": "Root Data Element"}, "self": {"href": "/mdr/sendig/3-1/datasets/RE/variables/RETPTNUM", "title": "Planned Time Point Number", "type": "SDTM Dataset Variable"}}, "core": "Exp", "description": "Numerical version of RETPT to aid in sorting.", "label": "Planned Time Point Number", "name": "RETPTNUM", "ordinal": "31", "role": "Timing", "simpleDatatype": "Num"}, {"_links": {"modelClassVariable": {"href": "/mdr/sdtm/1-5/classes/GeneralObservations/variables/--ELTM", "title": "Planned Elapsed Time from Time Point Ref", "type": "Class Variable"}, "parentDataset": {"href": "/mdr/sendig/3-1/datasets/RE", "title": "Respiratory", "type": "SDTM Dataset"}, "parentProduct": {"href": "/mdr/sendig/3-1", "title": "Standard for Exchange of Nonclinical Data Implementation Guide: Nonclinical Studies Version 3.1 (Final)", "type": "Implementation Guide"}, "rootItem": {"href": "/mdr/root/sendig/datasets/RE/variables/REELTM", "title": "Version-agnostic anchor resource for SENDIG variable RE.REELTM", "type": "Root Data Element"}, "self": {"href": "/mdr/sendig/3-1/datasets/RE/variables/REELTM", "title": "Planned Elapsed Time from Time Point Ref", "type": "SDTM Dataset Variable"}}, "core": "Exp", "describedValueDomain": "ISO 8601", "description": "Planned elapsed time (in ISO 8601 format) relative to a fixed time point reference (RETPTREF). This variable is useful where there are repetitive measures. Not a clock time or a date time variable. Represented as an ISO 8601 duration. Examples: \"-PT15M\" to represent the period of 15 minutes prior to the reference point indicated by RETPTREF, or \"PT8H\" to represent the period of 8 hours after the reference point indicated by RETPTREF.", "label": "Planned Elapsed Time from Time Point Ref", "name": "REELTM", "ordinal": "32", "role": "Timing", "simpleDatatype": "Char"}, {"_links": {"modelClassVariable": {"href": "/mdr/sdtm/1-5/classes/GeneralObservations/variables/--TPTREF", "title": "Time Point Reference", "type": "Class Variable"}, "parentDataset": {"href": "/mdr/sendig/3-1/datasets/RE", "title": "Respiratory", "type": "SDTM Dataset"}, "parentProduct": {"href": "/mdr/sendig/3-1", "title": "Standard for Exchange of Nonclinical Data Implementation Guide: Nonclinical Studies Version 3.1 (Final)", "type": "Implementation Guide"}, "rootItem": {"href": "/mdr/root/sendig/datasets/RE/variables/RETPTREF", "title": "Version-agnostic anchor resource for SENDIG variable RE.RETPTREF", "type": "Root Data Element"}, "self": {"href": "/mdr/sendig/3-1/datasets/RE/variables/RETPTREF", "title": "Time Point Reference", "type": "SDTM Dataset Variable"}}, "core": "Exp", "description": "Name of the fixed reference point referred to by REELTM, if used for RETPTNUM, and RETPT. It is recommended that RETPTREF be as descriptive as possible so the reference time point can be inferred without looking at others variables. Example: DAY 1 FIRST DOSE.", "label": "Time Point Reference", "name": "RETPTREF", "ordinal": "33", "role": "Timing", "simpleDatatype": "Char"}, {"_links": {"modelClassVariable": {"href": "/mdr/sdtm/1-5/classes/GeneralObservations/variables/--RFTDTC", "title": "Date/Time of Reference Time Point", "type": "Class Variable"}, "parentDataset": {"href": "/mdr/sendig/3-1/datasets/RE", "title": "Respiratory", "type": "SDTM Dataset"}, "parentProduct": {"href": "/mdr/sendig/3-1", "title": "Standard for Exchange of Nonclinical Data Implementation Guide: Nonclinical Studies Version 3.1 (Final)", "type": "Implementation Guide"}, "rootItem": {"href": "/mdr/root/sendig/datasets/RE/variables/RERFTDTC", "title": "Version-agnostic anchor resource for SENDIG variable RE.RERFTDTC", "type": "Root Data Element"}, "self": {"href": "/mdr/sendig/3-1/datasets/RE/variables/RERFTDTC", "title": "Date/Time of Reference Time Point", "type": "SDTM Dataset Variable"}}, "core": "Perm", "describedValueDomain": "ISO 8601", "description": "Date/Time of the reference time point, RETPTREF.", "label": "Date/Time of Reference Time Point", "name": "RERFTDTC", "ordinal": "34", "role": "Timing", "simpleDatatype": "Char"}, {"_links": {"modelClassVariable": {"href": "/mdr/sdtm/1-5/classes/GeneralObservations/variables/--EVLINT", "title": "Evaluation Interval", "type": "Class Variable"}, "parentDataset": {"href": "/mdr/sendig/3-1/datasets/RE", "title": "Respiratory", "type": "SDTM Dataset"}, "parentProduct": {"href": "/mdr/sendig/3-1", "title": "Standard for Exchange of Nonclinical Data Implementation Guide: Nonclinical Studies Version 3.1 (Final)", "type": "Implementation Guide"}, "rootItem": {"href": "/mdr/root/sendig/datasets/RE/variables/REEVLINT", "title": "Version-agnostic anchor resource for SENDIG variable RE.REEVLINT", "type": "Root Data Element"}, "self": {"href": "/mdr/sendig/3-1/datasets/RE/variables/REEVLINT", "title": "Evaluation Interval", "type": "SDTM Dataset Variable"}}, "core": "Perm", "describedValueDomain": "ISO 8601", "description": "Length of evaluation interval in ISO 8601 duration format. Used in place of RESTINT and REENINT when RETPTREF is not available.", "label": "Evaluation Interval", "name": "REEVLINT", "ordinal": "35", "role": "Timing", "simpleDatatype": "Char"}, {"_links": {"modelClassVariable": {"href": "/mdr/sdtm/1-5/classes/GeneralObservations/variables/--STINT", "title": "Planned Start of Assessment Interval", "type": "Class Variable"}, "parentDataset": {"href": "/mdr/sendig/3-1/datasets/RE", "title": "Respiratory", "type": "SDTM Dataset"}, "parentProduct": {"href": "/mdr/sendig/3-1", "title": "Standard for Exchange of Nonclinical Data Implementation Guide: Nonclinical Studies Version 3.1 (Final)", "type": "Implementation Guide"}, "rootItem": {"href": "/mdr/root/sendig/datasets/RE/variables/RESTINT", "title": "Version-agnostic anchor resource for SENDIG variable RE.RESTINT", "type": "Root Data Element"}, "self": {"href": "/mdr/sendig/3-1/datasets/RE/variables/RESTINT", "title": "Planned Start of Assessment Interval", "type": "SDTM Dataset Variable"}}, "core": "Exp", "describedValueDomain": "ISO 8601", "description": "Planned start of an assessment interval relative to Time Point Reference (RETPTREF) in ISO 8601 duration format. Example: When the evaluation interval is from 1 to 2 hours after dosing, the value would be PT1H.", "label": "Planned Start of Assessment Interval", "name": "RESTINT", "ordinal": "36", "role": "Timing", "simpleDatatype": "Char"}, {"_links": {"modelClassVariable": {"href": "/mdr/sdtm/1-5/classes/GeneralObservations/variables/--ENINT", "title": "Planned End of Assessment Interval", "type": "Class Variable"}, "parentDataset": {"href": "/mdr/sendig/3-1/datasets/RE", "title": "Respiratory", "type": "SDTM Dataset"}, "parentProduct": {"href": "/mdr/sendig/3-1", "title": "Standard for Exchange of Nonclinical Data Implementation Guide: Nonclinical Studies Version 3.1 (Final)", "type": "Implementation Guide"}, "rootItem": {"href": "/mdr/root/sendig/datasets/RE/variables/REENINT", "title": "Version-agnostic anchor resource for SENDIG variable RE.REENINT", "type": "Root Data Element"}, "self": {"href": "/mdr/sendig/3-1/datasets/RE/variables/REENINT", "title": "Planned End of Assessment Interval", "type": "SDTM Dataset Variable"}}, "core": "Exp", "describedValueDomain": "ISO 8601", "description": "Planned end of an assessment interval relative to Time Point Reference (RETPTREF) in ISO 8601 duration format. Example: When the evaluation interval is from 1 to 2 hours after dosing, the value would be PT2H.", "label": "Planned End of Assessment Interval", "name": "REENINT", "ordinal": "37", "role": "Timing", "simpleDatatype": "Char"}], "description": "A findings domain that contains physiological and morphological findings related to the respiratory system, including the organs that are involved in breathing such as the nose, throat, larynx, trachea, bronchi and lungs. (Source: CDISC Controlled Terminology, SDOMAIN, C95098, 2018-06-29)", "label": "Respiratory", "name": "RE", "ordinal": "23"}
