{"_links": {"modelDataset": {"href": "/mdr/sdtm/1-5/datasets/RELREC", "title": "Related Records", "type": "SDTM Dataset"}, "parentClass": {"href": "/mdr/sendig/3-1/classes/Relationship", "title": "Relationship Datasets", "type": "Class"}, "parentProduct": {"href": "/mdr/sendig/3-1", "title": "Standard for Exchange of Nonclinical Data Implementation Guide: Nonclinical Studies Version 3.1 (Final)", "type": "Implementation Guide"}, "priorVersion": {"href": "/mdr/sendig/3-0/datasets/RELREC", "title": "Related Records", "type": "SDTM Dataset"}, "self": {"href": "/mdr/sendig/3-1/datasets/RELREC", "title": "Related Records", "type": "SDTM Dataset"}}, "datasetStructure": "One record per related record, related group of records, or related domain", "datasetVariables": [{"_links": {"modelDatasetVariable": {"href": "/mdr/sdtm/1-5/datasets/RELREC/variables/STUDYID", "title": "Study Identifier", "type": "SDTM Dataset Variable"}, "parentDataset": {"href": "/mdr/sendig/3-1/datasets/RELREC", "title": "Related Records", "type": "SDTM Dataset"}, "parentProduct": {"href": "/mdr/sendig/3-1", "title": "Standard for Exchange of Nonclinical Data Implementation Guide: Nonclinical Studies Version 3.1 (Final)", "type": "Implementation Guide"}, "priorVersion": {"href": "/mdr/sendig/3-0/datasets/RELREC/variables/STUDYID", "title": "Study Identifier", "type": "SDTM Dataset Variable"}, "rootItem": {"href": "/mdr/root/sendig/datasets/RELREC/variables/STUDYID", "title": "Version-agnostic anchor resource for SENDIG variable RELREC.STUDYID", "type": "Root Data Element"}, "self": {"href": "/mdr/sendig/3-1/datasets/RELREC/variables/STUDYID", "title": "Study Identifier", "type": "SDTM Dataset Variable"}}, "core": "Req", "description": "Unique identifier for a study.", "label": "Study Identifier", "name": "STUDYID", "ordinal": "1", "simpleDatatype": "Char"}, {"_links": {"modelDatasetVariable": {"href": "/mdr/sdtm/1-5/datasets/RELREC/variables/RDOMAIN", "title": "Related Domain Abbreviation", "type": "SDTM Dataset Variable"}, "parentDataset": {"href": "/mdr/sendig/3-1/datasets/RELREC", "title": "Related Records", "type": "SDTM Dataset"}, "parentProduct": {"href": "/mdr/sendig/3-1", "title": "Standard for Exchange of Nonclinical Data Implementation Guide: Nonclinical Studies Version 3.1 (Final)", "type": "Implementation Guide"}, "priorVersion": {"href": "/mdr/sendig/3-0/datasets/RELREC/variables/RDOMAIN", "title": "Related Domain Abbreviation", "type": "SDTM Dataset Variable"}, "rootItem": {"href": "/mdr/root/sendig/datasets/RELREC/variables/RDOMAIN", "title": "Version-agnostic anchor resource for SENDIG variable RELREC.RDOMAIN", "type": "Root Data Element"}, "self": {"href": "/mdr/sendig/3-1/datasets/RELREC/variables/RDOMAIN", "title": "Related Domain Abbreviation", "type": "SDTM Dataset Variable"}}, "core": "Req", "description": "Two-character abbreviation for the domain of the parent record(s).", "label": "Related Domain Abbreviation", "name": "RDOMAIN", "ordinal": "2", "simpleDatatype": "Char"}, {"_links": {"modelDatasetVariable": {"href": "/mdr/sdtm/1-5/datasets/RELREC/variables/USUBJID", "title": "Unique Subject Identifier", "type": "SDTM Dataset Variable"}, "parentDataset": {"href": "/mdr/sendig/3-1/datasets/RELREC", "title": "Related Records", "type": "SDTM Dataset"}, "parentProduct": {"href": "/mdr/sendig/3-1", "title": "Standard for Exchange of Nonclinical Data Implementation Guide: Nonclinical Studies Version 3.1 (Final)", "type": "Implementation Guide"}, "priorVersion": {"href": "/mdr/sendig/3-0/datasets/RELREC/variables/USUBJID", "title": "Unique Subject Identifier", "type": "SDTM Dataset Variable"}, "rootItem": {"href": "/mdr/root/sendig/datasets/RELREC/variables/USUBJID", "title": "Version-agnostic anchor resource for SENDIG variable RELREC.USUBJID", "type": "Root Data Element"}, "self": {"href": "/mdr/sendig/3-1/datasets/RELREC/variables/USUBJID", "title": "Unique Subject Identifier", "type": "SDTM Dataset Variable"}}, "core": "Exp", "description": "Unique Subject Identifier of the Parent record(s). Either USUBJID or POOLID must be populated, except for certain domain-to-domain relationships (see Section 8.2.3).", "label": "Unique Subject Identifier", "name": "USUBJID", "ordinal": "3", "simpleDatatype": "Char"}, {"_links": {"modelDatasetVariable": {"href": "/mdr/sdtm/1-5/datasets/RELREC/variables/POOLID", "title": "Pool Identifier", "type": "SDTM Dataset Variable"}, "parentDataset": {"href": "/mdr/sendig/3-1/datasets/RELREC", "title": "Related Records", "type": "SDTM Dataset"}, "parentProduct": {"href": "/mdr/sendig/3-1", "title": "Standard for Exchange of Nonclinical Data Implementation Guide: Nonclinical Studies Version 3.1 (Final)", "type": "Implementation Guide"}, "priorVersion": {"href": "/mdr/sendig/3-0/datasets/RELREC/variables/POOLID", "title": "Pool Identifier", "type": "SDTM Dataset Variable"}, "rootItem": {"href": "/mdr/root/sendig/datasets/RELREC/variables/POOLID", "title": "Version-agnostic anchor resource for SENDIG variable RELREC.POOLID", "type": "Root Data Element"}, "self": {"href": "/mdr/sendig/3-1/datasets/RELREC/variables/POOLID", "title": "Pool Identifier", "type": "SDTM Dataset Variable"}}, "core": "Perm", "description": "Pool Identifier of the Parent record(s). If POOLID is entered, POOLDEF records must exist for each subject and the USUBJID must be null. Either USUBJID or POOLID must be populated.", "label": "Pool Identifier", "name": "POOLID", "ordinal": "4", "simpleDatatype": "Char"}, {"_links": {"modelDatasetVariable": {"href": "/mdr/sdtm/1-5/datasets/RELREC/variables/IDVAR", "title": "Identifying Variable", "type": "SDTM Dataset Variable"}, "parentDataset": {"href": "/mdr/sendig/3-1/datasets/RELREC", "title": "Related Records", "type": "SDTM Dataset"}, "parentProduct": {"href": "/mdr/sendig/3-1", "title": "Standard for Exchange of Nonclinical Data Implementation Guide: Nonclinical Studies Version 3.1 (Final)", "type": "Implementation Guide"}, "priorVersion": {"href": "/mdr/sendig/3-0/datasets/RELREC/variables/IDVAR", "title": "Identifying Variable", "type": "SDTM Dataset Variable"}, "rootItem": {"href": "/mdr/root/sendig/datasets/RELREC/variables/IDVAR", "title": "Version-agnostic anchor resource for SENDIG variable RELREC.IDVAR", "type": "Root Data Element"}, "self": {"href": "/mdr/sendig/3-1/datasets/RELREC/variables/IDVAR", "title": "Identifying Variable", "type": "SDTM Dataset Variable"}}, "core": "Req", "description": "Name of the identifying variable in the general observation class domain that identifies the related record(s). Examples include BWSEQ and BWGRPID.", "label": "Identifying Variable", "name": "IDVAR", "ordinal": "5", "simpleDatatype": "Char"}, {"_links": {"modelDatasetVariable": {"href": "/mdr/sdtm/1-5/datasets/RELREC/variables/IDVARVAL", "title": "Identifying Variable Value", "type": "SDTM Dataset Variable"}, "parentDataset": {"href": "/mdr/sendig/3-1/datasets/RELREC", "title": "Related Records", "type": "SDTM Dataset"}, "parentProduct": {"href": "/mdr/sendig/3-1", "title": "Standard for Exchange of Nonclinical Data Implementation Guide: Nonclinical Studies Version 3.1 (Final)", "type": "Implementation Guide"}, "priorVersion": {"href": "/mdr/sendig/3-0/datasets/RELREC/variables/IDVARVAL", "title": "Identifying Variable Value", "type": "SDTM Dataset Variable"}, "rootItem": {"href": "/mdr/root/sendig/datasets/RELREC/variables/IDVARVAL", "title": "Version-agnostic anchor resource for SENDIG variable RELREC.IDVARVAL", "type": "Root Data Element"}, "self": {"href": "/mdr/sendig/3-1/datasets/RELREC/variables/IDVARVAL", "title": "Identifying Variable Value", "type": "SDTM Dataset Variable"}}, "core": "Exp", "description": "Value of identifying variable described in IDVAR. For example, if BWSEQ is the variable being used to describe this record, then the value of BWSEQ would be entered here.", "label": "Identifying Variable Value", "name": "IDVARVAL", "ordinal": "6", "simpleDatatype": "Char"}, {"_links": {"codelist": [{"href": "/mdr/root/ct/sendct/codelists/C78737", "title": "Version-agnostic anchor resource for codelist C78737", "type": "Root Value Domain"}], "modelDatasetVariable": {"href": "/mdr/sdtm/1-5/datasets/RELREC/variables/RELTYPE", "title": "Relationship Type", "type": "SDTM Dataset Variable"}, "parentDataset": {"href": "/mdr/sendig/3-1/datasets/RELREC", "title": "Related Records", "type": "SDTM Dataset"}, "parentProduct": {"href": "/mdr/sendig/3-1", "title": "Standard for Exchange of Nonclinical Data Implementation Guide: Nonclinical Studies Version 3.1 (Final)", "type": "Implementation Guide"}, "priorVersion": {"href": "/mdr/sendig/3-0/datasets/RELREC/variables/RELTYPE", "title": "Relationship Type", "type": "SDTM Dataset Variable"}, "rootItem": {"href": "/mdr/root/sendig/datasets/RELREC/variables/RELTYPE", "title": "Version-agnostic anchor resource for SENDIG variable RELREC.RELTYPE", "type": "Root Data Element"}, "self": {"href": "/mdr/sendig/3-1/datasets/RELREC/variables/RELTYPE", "title": "Relationship Type", "type": "SDTM Dataset Variable"}}, "core": "Perm", "description": "Identifies the hierarchical level of the records in the relationship. Values are only necessary when identifying a relationship between domains (as described in Section 8.4). Values should be either ONE or MANY.", "label": "Relationship Type", "name": "RELTYPE", "ordinal": "7", "simpleDatatype": "Char"}, {"_links": {"modelDatasetVariable": {"href": "/mdr/sdtm/1-5/datasets/RELREC/variables/RELID", "title": "Relationship Identifier", "type": "SDTM Dataset Variable"}, "parentDataset": {"href": "/mdr/sendig/3-1/datasets/RELREC", "title": "Related Records", "type": "SDTM Dataset"}, "parentProduct": {"href": "/mdr/sendig/3-1", "title": "Standard for Exchange of Nonclinical Data Implementation Guide: Nonclinical Studies Version 3.1 (Final)", "type": "Implementation Guide"}, "priorVersion": {"href": "/mdr/sendig/3-0/datasets/RELREC/variables/RELID", "title": "Relationship Identifier", "type": "SDTM Dataset Variable"}, "rootItem": {"href": "/mdr/root/sendig/datasets/RELREC/variables/RELID", "title": "Version-agnostic anchor resource for SENDIG variable RELREC.RELID", "type": "Root Data Element"}, "self": {"href": "/mdr/sendig/3-1/datasets/RELREC/variables/RELID", "title": "Relationship Identifier", "type": "SDTM Dataset Variable"}}, "core": "Req", "description": "Unique value within a study that identifies the relationship. RELID can be any value the sponsor chooses and is only meaningful within the df dataset to identify the related/associated domain records.", "label": "Relationship Identifier", "name": "RELID", "ordinal": "8", "simpleDatatype": "Char"}], "label": "Related Records", "name": "RELREC", "ordinal": "28"}
