{"_links": {"parentClass": {"href": "/mdr/sendig/3-1/classes/Findings", "title": "Findings Observation Class", "type": "Class"}, "parentProduct": {"href": "/mdr/sendig/3-1", "title": "Standard for Exchange of Nonclinical Data Implementation Guide: Nonclinical Studies Version 3.1 (Final)", "type": "Implementation Guide"}, "priorVersion": {"href": "/mdr/sendig/3-0/datasets/TF", "title": "Tumor Findings", "type": "SDTM Dataset"}, "self": {"href": "/mdr/sendig/3-1/datasets/TF", "title": "Tumor Findings", "type": "SDTM Dataset"}}, "datasetStructure": "One record per tumor per specimen per subject", "datasetVariables": [{"_links": {"modelClassVariable": {"href": "/mdr/sdtm/1-5/classes/GeneralObservations/variables/STUDYID", "title": "Study Identifier", "type": "Class Variable"}, "parentDataset": {"href": "/mdr/sendig/3-1/datasets/TF", "title": "Tumor Findings", "type": "SDTM Dataset"}, "parentProduct": {"href": "/mdr/sendig/3-1", "title": "Standard for Exchange of Nonclinical Data Implementation Guide: Nonclinical Studies Version 3.1 (Final)", "type": "Implementation Guide"}, "priorVersion": {"href": "/mdr/sendig/3-0/datasets/TF/variables/STUDYID", "title": "Study Identifier", "type": "SDTM Dataset Variable"}, "rootItem": {"href": "/mdr/root/sendig/datasets/TF/variables/STUDYID", "title": "Version-agnostic anchor resource for SENDIG variable TF.STUDYID", "type": "Root Data Element"}, "self": {"href": "/mdr/sendig/3-1/datasets/TF/variables/STUDYID", "title": "Study Identifier", "type": "SDTM Dataset Variable"}}, "core": "Req", "description": "Unique identifier for a study.", "label": "Study Identifier", "name": "STUDYID", "ordinal": "1", "role": "Identifier", "simpleDatatype": "Char"}, {"_links": {"modelClassVariable": {"href": "/mdr/sdtm/1-5/classes/GeneralObservations/variables/DOMAIN", "title": "Domain Abbreviation", "type": "Class Variable"}, "parentDataset": {"href": "/mdr/sendig/3-1/datasets/TF", "title": "Tumor Findings", "type": "SDTM Dataset"}, "parentProduct": {"href": "/mdr/sendig/3-1", "title": "Standard for Exchange of Nonclinical Data Implementation Guide: Nonclinical Studies Version 3.1 (Final)", "type": "Implementation Guide"}, "priorVersion": {"href": "/mdr/sendig/3-0/datasets/TF/variables/DOMAIN", "title": "Domain Abbreviation", "type": "SDTM Dataset Variable"}, "rootItem": {"href": "/mdr/root/sendig/datasets/TF/variables/DOMAIN", "title": "Version-agnostic anchor resource for SENDIG variable TF.DOMAIN", "type": "Root Data Element"}, "self": {"href": "/mdr/sendig/3-1/datasets/TF/variables/DOMAIN", "title": "Domain Abbreviation", "type": "SDTM Dataset Variable"}}, "core": "Req", "description": "Two-character abbreviation for the domain.", "label": "Domain Abbreviation", "name": "DOMAIN", "ordinal": "2", "role": "Identifier", "simpleDatatype": "Char", "valueList": ["TF"]}, {"_links": {"modelClassVariable": {"href": "/mdr/sdtm/1-5/classes/GeneralObservations/variables/USUBJID", "title": "Unique Subject Identifier", "type": "Class Variable"}, "parentDataset": {"href": "/mdr/sendig/3-1/datasets/TF", "title": "Tumor Findings", "type": "SDTM Dataset"}, "parentProduct": {"href": "/mdr/sendig/3-1", "title": "Standard for Exchange of Nonclinical Data Implementation Guide: Nonclinical Studies Version 3.1 (Final)", "type": "Implementation Guide"}, "priorVersion": {"href": "/mdr/sendig/3-0/datasets/TF/variables/USUBJID", "title": "Unique Subject Identifier", "type": "SDTM Dataset Variable"}, "rootItem": {"href": "/mdr/root/sendig/datasets/TF/variables/USUBJID", "title": "Version-agnostic anchor resource for SENDIG variable TF.USUBJID", "type": "Root Data Element"}, "self": {"href": "/mdr/sendig/3-1/datasets/TF/variables/USUBJID", "title": "Unique Subject Identifier", "type": "SDTM Dataset Variable"}}, "core": "Req", "description": "Identifier used to uniquely identify a subject across all studies for all applications or submissions involving the product within the submission", "label": "Unique Subject Identifier", "name": "USUBJID", "ordinal": "3", "role": "Identifier", "simpleDatatype": "Char"}, {"_links": {"modelClassVariable": {"href": "/mdr/sdtm/1-5/classes/GeneralObservations/variables/--SEQ", "title": "Sequence Number", "type": "Class Variable"}, "parentDataset": {"href": "/mdr/sendig/3-1/datasets/TF", "title": "Tumor Findings", "type": "SDTM Dataset"}, "parentProduct": {"href": "/mdr/sendig/3-1", "title": "Standard for Exchange of Nonclinical Data Implementation Guide: Nonclinical Studies Version 3.1 (Final)", "type": "Implementation Guide"}, "priorVersion": {"href": "/mdr/sendig/3-0/datasets/TF/variables/TFSEQ", "title": "Sequence Number", "type": "SDTM Dataset Variable"}, "rootItem": {"href": "/mdr/root/sendig/datasets/TF/variables/TFSEQ", "title": "Version-agnostic anchor resource for SENDIG variable TF.TFSEQ", "type": "Root Data Element"}, "self": {"href": "/mdr/sendig/3-1/datasets/TF/variables/TFSEQ", "title": "Sequence Number", "type": "SDTM Dataset Variable"}}, "core": "Req", "description": "Sequence number given to ensure uniqueness of subject records within a domain. May be any valid number.", "label": "Sequence Number", "name": "TFSEQ", "ordinal": "4", "role": "Identifier", "simpleDatatype": "Num"}, {"_links": {"modelClassVariable": {"href": "/mdr/sdtm/1-5/classes/GeneralObservations/variables/--GRPID", "title": "Group ID", "type": "Class Variable"}, "parentDataset": {"href": "/mdr/sendig/3-1/datasets/TF", "title": "Tumor Findings", "type": "SDTM Dataset"}, "parentProduct": {"href": "/mdr/sendig/3-1", "title": "Standard for Exchange of Nonclinical Data Implementation Guide: Nonclinical Studies Version 3.1 (Final)", "type": "Implementation Guide"}, "priorVersion": {"href": "/mdr/sendig/3-0/datasets/TF/variables/TFGRPID", "title": "Group Identifier", "type": "SDTM Dataset Variable"}, "rootItem": {"href": "/mdr/root/sendig/datasets/TF/variables/TFGRPID", "title": "Version-agnostic anchor resource for SENDIG variable TF.TFGRPID", "type": "Root Data Element"}, "self": {"href": "/mdr/sendig/3-1/datasets/TF/variables/TFGRPID", "title": "Group Identifier", "type": "SDTM Dataset Variable"}}, "core": "Perm", "description": "Used to tie together a block of related records in a single domain for a subject. This is not the treatment group number.", "label": "Group Identifier", "name": "TFGRPID", "ordinal": "5", "role": "Identifier", "simpleDatatype": "Char"}, {"_links": {"modelClassVariable": {"href": "/mdr/sdtm/1-5/classes/GeneralObservations/variables/--REFID", "title": "Reference ID", "type": "Class Variable"}, "parentDataset": {"href": "/mdr/sendig/3-1/datasets/TF", "title": "Tumor Findings", "type": "SDTM Dataset"}, "parentProduct": {"href": "/mdr/sendig/3-1", "title": "Standard for Exchange of Nonclinical Data Implementation Guide: Nonclinical Studies Version 3.1 (Final)", "type": "Implementation Guide"}, "priorVersion": {"href": "/mdr/sendig/3-0/datasets/TF/variables/TFREFID", "title": "Specimen Identifier", "type": "SDTM Dataset Variable"}, "rootItem": {"href": "/mdr/root/sendig/datasets/TF/variables/TFREFID", "title": "Version-agnostic anchor resource for SENDIG variable TF.TFREFID", "type": "Root Data Element"}, "self": {"href": "/mdr/sendig/3-1/datasets/TF/variables/TFREFID", "title": "Specimen Identifier", "type": "SDTM Dataset Variable"}}, "core": "Perm", "description": "Internal or external specimen identifier. Example: Specimen barcode number.", "label": "Specimen Identifier", "name": "TFREFID", "ordinal": "6", "role": "Identifier", "simpleDatatype": "Char"}, {"_links": {"modelClassVariable": {"href": "/mdr/sdtm/1-5/classes/GeneralObservations/variables/--SPID", "title": "Sponsor-Defined Identifier", "type": "Class Variable"}, "parentDataset": {"href": "/mdr/sendig/3-1/datasets/TF", "title": "Tumor Findings", "type": "SDTM Dataset"}, "parentProduct": {"href": "/mdr/sendig/3-1", "title": "Standard for Exchange of Nonclinical Data Implementation Guide: Nonclinical Studies Version 3.1 (Final)", "type": "Implementation Guide"}, "priorVersion": {"href": "/mdr/sendig/3-0/datasets/TF/variables/TFSPID", "title": "Mass Number", "type": "SDTM Dataset Variable"}, "rootItem": {"href": "/mdr/root/sendig/datasets/TF/variables/TFSPID", "title": "Version-agnostic anchor resource for SENDIG variable TF.TFSPID", "type": "Root Data Element"}, "self": {"href": "/mdr/sendig/3-1/datasets/TF/variables/TFSPID", "title": "Mass Identifier", "type": "SDTM Dataset Variable"}}, "core": "Exp", "description": "Mass identifier such as MASS 1 or MASS A. Used when the mass was discovered during the in-life phase or during pathology and was assigned a mass identifier. The mass identification should be unique within the subject, regardless of mass location.", "label": "Mass Identifier", "name": "TFSPID", "ordinal": "7", "role": "Identifier", "simpleDatatype": "Char"}, {"_links": {"codelist": [{"href": "/mdr/root/ct/sendct/codelists/C90006", "title": "Version-agnostic anchor resource for codelist C90006", "type": "Root Value Domain"}], "modelClassVariable": {"href": "/mdr/sdtm/1-5/classes/Findings/variables/--TESTCD", "title": "Short Name of Measurement, Test or Examination", "type": "Class Variable"}, "parentDataset": {"href": "/mdr/sendig/3-1/datasets/TF", "title": "Tumor Findings", "type": "SDTM Dataset"}, "parentProduct": {"href": "/mdr/sendig/3-1", "title": "Standard for Exchange of Nonclinical Data Implementation Guide: Nonclinical Studies Version 3.1 (Final)", "type": "Implementation Guide"}, "priorVersion": {"href": "/mdr/sendig/3-0/datasets/TF/variables/TFTESTCD", "title": "Tumor Examination Short Name", "type": "SDTM Dataset Variable"}, "rootItem": {"href": "/mdr/root/sendig/datasets/TF/variables/TFTESTCD", "title": "Version-agnostic anchor resource for SENDIG variable TF.TFTESTCD", "type": "Root Data Element"}, "self": {"href": "/mdr/sendig/3-1/datasets/TF/variables/TFTESTCD", "title": "Tumor Examination Short Name", "type": "SDTM Dataset Variable"}}, "core": "Req", "description": "Short name of the measurement, test, or examination described in TFTEST. It can be used as a column name when converting a dataset from a vertical to a horizontal format. The value in TFTESTCD cannot be longer than 8 characters, nor can it start with a number (e.g., \"1TEST\" is not valid). TFTESTCD cannot contain characters other than letters, numbers, or underscores. Example: TUMEX.", "label": "Tumor Examination Short Name", "name": "TFTESTCD", "ordinal": "8", "role": "Topic", "simpleDatatype": "Char"}, {"_links": {"codelist": [{"href": "/mdr/root/ct/sendct/codelists/C90005", "title": "Version-agnostic anchor resource for codelist C90005", "type": "Root Value Domain"}], "modelClassVariable": {"href": "/mdr/sdtm/1-5/classes/Findings/variables/--TEST", "title": "Name of Measurement, Test or Examination", "type": "Class Variable"}, "parentDataset": {"href": "/mdr/sendig/3-1/datasets/TF", "title": "Tumor Findings", "type": "SDTM Dataset"}, "parentProduct": {"href": "/mdr/sendig/3-1", "title": "Standard for Exchange of Nonclinical Data Implementation Guide: Nonclinical Studies Version 3.1 (Final)", "type": "Implementation Guide"}, "priorVersion": {"href": "/mdr/sendig/3-0/datasets/TF/variables/TFTEST", "title": "Tumor Examination", "type": "SDTM Dataset Variable"}, "rootItem": {"href": "/mdr/root/sendig/datasets/TF/variables/TFTEST", "title": "Version-agnostic anchor resource for SENDIG variable TF.TFTEST", "type": "Root Data Element"}, "self": {"href": "/mdr/sendig/3-1/datasets/TF/variables/TFTEST", "title": "Tumor Examination Name", "type": "SDTM Dataset Variable"}}, "core": "Req", "description": "Long name for TFTESTCD. The value in TFTEST cannot be longer than 40 characters. Example: Tumor Examination.", "label": "Tumor Examination Name", "name": "TFTEST", "ordinal": "9", "role": "Synonym Qualifier", "simpleDatatype": "Char"}, {"_links": {"modelClassVariable": {"href": "/mdr/sdtm/1-5/classes/Findings/variables/--ORRES", "title": "Result or Finding in Original Units", "type": "Class Variable"}, "parentDataset": {"href": "/mdr/sendig/3-1/datasets/TF", "title": "Tumor Findings", "type": "SDTM Dataset"}, "parentProduct": {"href": "/mdr/sendig/3-1", "title": "Standard for Exchange of Nonclinical Data Implementation Guide: Nonclinical Studies Version 3.1 (Final)", "type": "Implementation Guide"}, "priorVersion": {"href": "/mdr/sendig/3-0/datasets/TF/variables/TFORRES", "title": "Result or Findings as Collected", "type": "SDTM Dataset Variable"}, "rootItem": {"href": "/mdr/root/sendig/datasets/TF/variables/TFORRES", "title": "Version-agnostic anchor resource for SENDIG variable TF.TFORRES", "type": "Root Data Element"}, "self": {"href": "/mdr/sendig/3-1/datasets/TF/variables/TFORRES", "title": "Result or Findings as Collected", "type": "SDTM Dataset Variable"}}, "core": "Exp", "description": "Result of the histopathological examination as originally received or collected.", "label": "Result or Findings as Collected", "name": "TFORRES", "ordinal": "10", "role": "Result Qualifier", "simpleDatatype": "Char"}, {"_links": {"codelist": [{"href": "/mdr/root/ct/sendct/codelists/C88025", "title": "Version-agnostic anchor resource for codelist C88025", "type": "Root Value Domain"}], "modelClassVariable": {"href": "/mdr/sdtm/1-5/classes/Findings/variables/--STRESC", "title": "Result or Finding in Standard Format", "type": "Class Variable"}, "parentDataset": {"href": "/mdr/sendig/3-1/datasets/TF", "title": "Tumor Findings", "type": "SDTM Dataset"}, "parentProduct": {"href": "/mdr/sendig/3-1", "title": "Standard for Exchange of Nonclinical Data Implementation Guide: Nonclinical Studies Version 3.1 (Final)", "type": "Implementation Guide"}, "priorVersion": {"href": "/mdr/sendig/3-0/datasets/TF/variables/TFSTRESC", "title": "Standardized Result in Character Format", "type": "SDTM Dataset Variable"}, "rootItem": {"href": "/mdr/root/sendig/datasets/TF/variables/TFSTRESC", "title": "Version-agnostic anchor resource for SENDIG variable TF.TFSTRESC", "type": "Root Data Element"}, "self": {"href": "/mdr/sendig/3-1/datasets/TF/variables/TFSTRESC", "title": "Standardized Result in Character Format", "type": "SDTM Dataset Variable"}}, "core": "Exp", "description": "Contains the tumor name mapped from TFORRES into a standard format from the controlled terms list.", "label": "Standardized Result in Character Format", "name": "TFSTRESC", "ordinal": "11", "role": "Result Qualifier", "simpleDatatype": "Char"}, {"_links": {"codelist": [{"href": "/mdr/root/ct/sendct/codelists/C90004", "title": "Version-agnostic anchor resource for codelist C90004", "type": "Root Value Domain"}], "modelClassVariable": {"href": "/mdr/sdtm/1-5/classes/Findings/variables/--RESCAT", "title": "Result Category", "type": "Class Variable"}, "parentDataset": {"href": "/mdr/sendig/3-1/datasets/TF", "title": "Tumor Findings", "type": "SDTM Dataset"}, "parentProduct": {"href": "/mdr/sendig/3-1", "title": "Standard for Exchange of Nonclinical Data Implementation Guide: Nonclinical Studies Version 3.1 (Final)", "type": "Implementation Guide"}, "priorVersion": {"href": "/mdr/sendig/3-0/datasets/TF/variables/TFRESCAT", "title": "Tumor Malignancy Status", "type": "SDTM Dataset Variable"}, "rootItem": {"href": "/mdr/root/sendig/datasets/TF/variables/TFRESCAT", "title": "Version-agnostic anchor resource for SENDIG variable TF.TFRESCAT", "type": "Root Data Element"}, "self": {"href": "/mdr/sendig/3-1/datasets/TF/variables/TFRESCAT", "title": "Tumor Malignancy Status", "type": "SDTM Dataset Variable"}}, "core": "Req", "description": "Used to record the malignancy of the tumor as determined by the pathologist. It may be copied or derived from a description in TFORRES. Examples: BENIGN, MALIGNANT, METASTATIC, and UNDETERMINED.", "label": "Tumor Malignancy Status", "name": "TFRESCAT", "ordinal": "12", "role": "Variable Qualifier", "simpleDatatype": "Char"}, {"_links": {"modelClassVariable": {"href": "/mdr/sdtm/1-5/classes/Findings/variables/--NAM", "title": "Laboratory/Vendor Name", "type": "Class Variable"}, "parentDataset": {"href": "/mdr/sendig/3-1/datasets/TF", "title": "Tumor Findings", "type": "SDTM Dataset"}, "parentProduct": {"href": "/mdr/sendig/3-1", "title": "Standard for Exchange of Nonclinical Data Implementation Guide: Nonclinical Studies Version 3.1 (Final)", "type": "Implementation Guide"}, "priorVersion": {"href": "/mdr/sendig/3-0/datasets/TF/variables/TFNAM", "title": "Laboratory Name", "type": "SDTM Dataset Variable"}, "rootItem": {"href": "/mdr/root/sendig/datasets/TF/variables/TFNAM", "title": "Version-agnostic anchor resource for SENDIG variable TF.TFNAM", "type": "Root Data Element"}, "self": {"href": "/mdr/sendig/3-1/datasets/TF/variables/TFNAM", "title": "Laboratory Name", "type": "SDTM Dataset Variable"}}, "core": "Perm", "description": "Name or identifier of the laboratory or vendor that provided the test results.", "label": "Laboratory Name", "name": "TFNAM", "ordinal": "13", "role": "Record Qualifier", "simpleDatatype": "Char"}, {"_links": {"codelist": [{"href": "/mdr/root/ct/sendct/codelists/C77529", "title": "Version-agnostic anchor resource for codelist C77529", "type": "Root Value Domain"}], "modelClassVariable": {"href": "/mdr/sdtm/1-5/classes/Findings/variables/--SPEC", "title": "Specimen Material Type", "type": "Class Variable"}, "parentDataset": {"href": "/mdr/sendig/3-1/datasets/TF", "title": "Tumor Findings", "type": "SDTM Dataset"}, "parentProduct": {"href": "/mdr/sendig/3-1", "title": "Standard for Exchange of Nonclinical Data Implementation Guide: Nonclinical Studies Version 3.1 (Final)", "type": "Implementation Guide"}, "priorVersion": {"href": "/mdr/sendig/3-0/datasets/TF/variables/TFSPEC", "title": "Specimen Material Type", "type": "SDTM Dataset Variable"}, "rootItem": {"href": "/mdr/root/sendig/datasets/TF/variables/TFSPEC", "title": "Version-agnostic anchor resource for SENDIG variable TF.TFSPEC", "type": "Root Data Element"}, "self": {"href": "/mdr/sendig/3-1/datasets/TF/variables/TFSPEC", "title": "Specimen Material Type", "type": "SDTM Dataset Variable"}}, "core": "Req", "description": "Defines the type of tissue, organ, or fluid specimen examined. Examples: LIVER, HEART.", "label": "Specimen Material Type", "name": "TFSPEC", "ordinal": "14", "role": "Record Qualifier", "simpleDatatype": "Char"}, {"_links": {"modelClassVariable": {"href": "/mdr/sdtm/1-5/classes/Findings/variables/--ANTREG", "title": "Anatomical Region", "type": "Class Variable"}, "parentDataset": {"href": "/mdr/sendig/3-1/datasets/TF", "title": "Tumor Findings", "type": "SDTM Dataset"}, "parentProduct": {"href": "/mdr/sendig/3-1", "title": "Standard for Exchange of Nonclinical Data Implementation Guide: Nonclinical Studies Version 3.1 (Final)", "type": "Implementation Guide"}, "priorVersion": {"href": "/mdr/sendig/3-0/datasets/TF/variables/TFANTREG", "title": "Anatomical Region of Specimen", "type": "SDTM Dataset Variable"}, "rootItem": {"href": "/mdr/root/sendig/datasets/TF/variables/TFANTREG", "title": "Version-agnostic anchor resource for SENDIG variable TF.TFANTREG", "type": "Root Data Element"}, "self": {"href": "/mdr/sendig/3-1/datasets/TF/variables/TFANTREG", "title": "Anatomical Region of Specimen", "type": "SDTM Dataset Variable"}}, "core": "Perm", "description": "Defines the specific anatomical or biological region of a tissue, organ specimen, or the region from which the specimen was obtained, such as a section or part of what is defined in the TFSPEC variable. If the anatomical region is not included in the specimen description TFSPEC, it may be included in this variable. This field can be a combination of terms where needed. This field can be null if not applicable. Examples: CORTEX, MEDULLA, MUCOSA, SEROSA, ISLET, ZONA FASICULATA, ZONA RETICULARIS, CRANIAL, MEDIAN, ACCESSORY, SPINAL, LUMBAR, FRONTAL.", "label": "Anatomical Region of Specimen", "name": "TFANTREG", "ordinal": "15", "role": "Variable Qualifier", "simpleDatatype": "Char"}, {"_links": {"modelClassVariable": {"href": "/mdr/sdtm/1-5/classes/Findings/variables/--SPCCND", "title": "Specimen Condition", "type": "Class Variable"}, "parentDataset": {"href": "/mdr/sendig/3-1/datasets/TF", "title": "Tumor Findings", "type": "SDTM Dataset"}, "parentProduct": {"href": "/mdr/sendig/3-1", "title": "Standard for Exchange of Nonclinical Data Implementation Guide: Nonclinical Studies Version 3.1 (Final)", "type": "Implementation Guide"}, "priorVersion": {"href": "/mdr/sendig/3-0/datasets/TF/variables/TFSPCCND", "title": "Specimen Condition", "type": "SDTM Dataset Variable"}, "rootItem": {"href": "/mdr/root/sendig/datasets/TF/variables/TFSPCCND", "title": "Version-agnostic anchor resource for SENDIG variable TF.TFSPCCND", "type": "Root Data Element"}, "self": {"href": "/mdr/sendig/3-1/datasets/TF/variables/TFSPCCND", "title": "Specimen Condition", "type": "SDTM Dataset Variable"}}, "core": "Perm", "description": "Free or standardized text describing the condition of the specimen. Example: AUTOLYZED.", "label": "Specimen Condition", "name": "TFSPCCND", "ordinal": "16", "role": "Record Qualifier", "simpleDatatype": "Char"}, {"_links": {"codelist": [{"href": "/mdr/root/ct/sendct/codelists/C99073", "title": "Version-agnostic anchor resource for codelist C99073", "type": "Root Value Domain"}], "modelClassVariable": {"href": "/mdr/sdtm/1-5/classes/Findings/variables/--LAT", "title": "Laterality", "type": "Class Variable"}, "parentDataset": {"href": "/mdr/sendig/3-1/datasets/TF", "title": "Tumor Findings", "type": "SDTM Dataset"}, "parentProduct": {"href": "/mdr/sendig/3-1", "title": "Standard for Exchange of Nonclinical Data Implementation Guide: Nonclinical Studies Version 3.1 (Final)", "type": "Implementation Guide"}, "priorVersion": {"href": "/mdr/sendig/3-0/datasets/TF/variables/TFLAT", "title": "Specimen Laterality within Subject", "type": "SDTM Dataset Variable"}, "rootItem": {"href": "/mdr/root/sendig/datasets/TF/variables/TFLAT", "title": "Version-agnostic anchor resource for SENDIG variable TF.TFLAT", "type": "Root Data Element"}, "self": {"href": "/mdr/sendig/3-1/datasets/TF/variables/TFLAT", "title": "Specimen Laterality within Subject", "type": "SDTM Dataset Variable"}}, "core": "Perm", "description": "Qualifier for laterality of the specimen within the subject for paired specimens. Examples: LEFT, RIGHT, BILATERAL.", "label": "Specimen Laterality within Subject", "name": "TFLAT", "ordinal": "17", "role": "Variable Qualifier", "simpleDatatype": "Char"}, {"_links": {"codelist": [{"href": "/mdr/root/ct/sendct/codelists/C99074", "title": "Version-agnostic anchor resource for codelist C99074", "type": "Root Value Domain"}], "modelClassVariable": {"href": "/mdr/sdtm/1-5/classes/Findings/variables/--DIR", "title": "Directionality", "type": "Class Variable"}, "parentDataset": {"href": "/mdr/sendig/3-1/datasets/TF", "title": "Tumor Findings", "type": "SDTM Dataset"}, "parentProduct": {"href": "/mdr/sendig/3-1", "title": "Standard for Exchange of Nonclinical Data Implementation Guide: Nonclinical Studies Version 3.1 (Final)", "type": "Implementation Guide"}, "priorVersion": {"href": "/mdr/sendig/3-0/datasets/TF/variables/TFDIR", "title": "Specimen Directionality within Subject", "type": "SDTM Dataset Variable"}, "rootItem": {"href": "/mdr/root/sendig/datasets/TF/variables/TFDIR", "title": "Version-agnostic anchor resource for SENDIG variable TF.TFDIR", "type": "Root Data Element"}, "self": {"href": "/mdr/sendig/3-1/datasets/TF/variables/TFDIR", "title": "Specimen Directionality within Subject", "type": "SDTM Dataset Variable"}}, "core": "Perm", "description": "Qualifier for directionality of the specimen within the subject. Examples: DORSAL, PROXIMAL.", "label": "Specimen Directionality within Subject", "name": "TFDIR", "ordinal": "18", "role": "Variable Qualifier", "simpleDatatype": "Char"}, {"_links": {"modelClassVariable": {"href": "/mdr/sdtm/1-5/classes/Findings/variables/--METHOD", "title": "Method of Test or Examination", "type": "Class Variable"}, "parentDataset": {"href": "/mdr/sendig/3-1/datasets/TF", "title": "Tumor Findings", "type": "SDTM Dataset"}, "parentProduct": {"href": "/mdr/sendig/3-1", "title": "Standard for Exchange of Nonclinical Data Implementation Guide: Nonclinical Studies Version 3.1 (Final)", "type": "Implementation Guide"}, "priorVersion": {"href": "/mdr/sendig/3-0/datasets/TF/variables/TFMETHOD", "title": "Method of Test or Examination", "type": "SDTM Dataset Variable"}, "rootItem": {"href": "/mdr/root/sendig/datasets/TF/variables/TFMETHOD", "title": "Version-agnostic anchor resource for SENDIG variable TF.TFMETHOD", "type": "Root Data Element"}, "self": {"href": "/mdr/sendig/3-1/datasets/TF/variables/TFMETHOD", "title": "Method of Test or Examination", "type": "SDTM Dataset Variable"}}, "core": "Perm", "description": "Method of the test or examination. This could be different types of staining used for the slides. Example: H&E.", "label": "Method of Test or Examination", "name": "TFMETHOD", "ordinal": "19", "role": "Record Qualifier", "simpleDatatype": "Char"}, {"_links": {"modelClassVariable": {"href": "/mdr/sdtm/1-5/classes/Findings/variables/--EVAL", "title": "Evaluator", "type": "Class Variable"}, "parentDataset": {"href": "/mdr/sendig/3-1/datasets/TF", "title": "Tumor Findings", "type": "SDTM Dataset"}, "parentProduct": {"href": "/mdr/sendig/3-1", "title": "Standard for Exchange of Nonclinical Data Implementation Guide: Nonclinical Studies Version 3.1 (Final)", "type": "Implementation Guide"}, "priorVersion": {"href": "/mdr/sendig/3-0/datasets/TF/variables/TFEVAL", "title": "Evaluator", "type": "SDTM Dataset Variable"}, "rootItem": {"href": "/mdr/root/sendig/datasets/TF/variables/TFEVAL", "title": "Version-agnostic anchor resource for SENDIG variable TF.TFEVAL", "type": "Root Data Element"}, "self": {"href": "/mdr/sendig/3-1/datasets/TF/variables/TFEVAL", "title": "Evaluator", "type": "SDTM Dataset Variable"}}, "core": "Perm", "description": "Role of the person who provided the evaluation. Example: TOX PATHOLOGIST, PEER REVIEW, SPONSOR PATHOLOGIST.", "label": "Evaluator", "name": "TFEVAL", "ordinal": "20", "role": "Record Qualifier", "simpleDatatype": "Char"}, {"_links": {"codelist": [{"href": "/mdr/root/ct/sendct/codelists/C66742", "title": "Version-agnostic anchor resource for codelist C66742", "type": "Root Value Domain"}], "modelClassVariable": {"href": "/mdr/sdtm/1-5/classes/Findings/variables/--DTHREL", "title": "Relationship to Death", "type": "Class Variable"}, "parentDataset": {"href": "/mdr/sendig/3-1/datasets/TF", "title": "Tumor Findings", "type": "SDTM Dataset"}, "parentProduct": {"href": "/mdr/sendig/3-1", "title": "Standard for Exchange of Nonclinical Data Implementation Guide: Nonclinical Studies Version 3.1 (Final)", "type": "Implementation Guide"}, "priorVersion": {"href": "/mdr/sendig/3-0/datasets/TF/variables/TFDTHREL", "title": "Relationship to Death", "type": "SDTM Dataset Variable"}, "rootItem": {"href": "/mdr/root/sendig/datasets/TF/variables/TFDTHREL", "title": "Version-agnostic anchor resource for SENDIG variable TF.TFDTHREL", "type": "Root Data Element"}, "self": {"href": "/mdr/sendig/3-1/datasets/TF/variables/TFDTHREL", "title": "Relationship to Death", "type": "SDTM Dataset Variable"}}, "core": "Req", "description": "Describes the relationship of a particular finding to the death of a subject. Example: Y if the tumor was the cause of death, N if the tumor was not the cause of death, or U for Unknown. Null cannot be used because the variable is required.", "label": "Relationship to Death", "name": "TFDTHREL", "ordinal": "21", "role": "Record Qualifier", "simpleDatatype": "Char"}, {"_links": {"modelClassVariable": {"href": "/mdr/sdtm/1-5/classes/GeneralObservations/variables/--DTC", "title": "Date/Time of Collection", "type": "Class Variable"}, "parentDataset": {"href": "/mdr/sendig/3-1/datasets/TF", "title": "Tumor Findings", "type": "SDTM Dataset"}, "parentProduct": {"href": "/mdr/sendig/3-1", "title": "Standard for Exchange of Nonclinical Data Implementation Guide: Nonclinical Studies Version 3.1 (Final)", "type": "Implementation Guide"}, "priorVersion": {"href": "/mdr/sendig/3-0/datasets/TF/variables/TFDTC", "title": "Date/Time of Collection", "type": "SDTM Dataset Variable"}, "rootItem": {"href": "/mdr/root/sendig/datasets/TF/variables/TFDTC", "title": "Version-agnostic anchor resource for SENDIG variable TF.TFDTC", "type": "Root Data Element"}, "self": {"href": "/mdr/sendig/3-1/datasets/TF/variables/TFDTC", "title": "Date/Time", "type": "SDTM Dataset Variable"}}, "core": "Perm", "describedValueDomain": "ISO 8601", "description": "For a specimen collected or observed post mortem, this is the date/time of subject disposition, in ISO 8601 format.", "label": "Date/Time", "name": "TFDTC", "ordinal": "22", "role": "Timing", "simpleDatatype": "Char"}, {"_links": {"modelClassVariable": {"href": "/mdr/sdtm/1-5/classes/GeneralObservations/variables/--DY", "title": "Study Day of Visit/Collection/Exam", "type": "Class Variable"}, "parentDataset": {"href": "/mdr/sendig/3-1/datasets/TF", "title": "Tumor Findings", "type": "SDTM Dataset"}, "parentProduct": {"href": "/mdr/sendig/3-1", "title": "Standard for Exchange of Nonclinical Data Implementation Guide: Nonclinical Studies Version 3.1 (Final)", "type": "Implementation Guide"}, "priorVersion": {"href": "/mdr/sendig/3-0/datasets/TF/variables/TFDY", "title": "Study Day of Collection", "type": "SDTM Dataset Variable"}, "rootItem": {"href": "/mdr/root/sendig/datasets/TF/variables/TFDY", "title": "Version-agnostic anchor resource for SENDIG variable TF.TFDY", "type": "Root Data Element"}, "self": {"href": "/mdr/sendig/3-1/datasets/TF/variables/TFDY", "title": "Study Day", "type": "SDTM Dataset Variable"}}, "core": "Perm", "description": "For a specimen collected or observed post mortem, this is the study day of subject disposition, in integer days. The algorithm for calculations must be relative to the sponsor-defined RFSTDTC variable in the Demographics (DM) domain.", "label": "Study Day", "name": "TFDY", "ordinal": "23", "role": "Timing", "simpleDatatype": "Num"}, {"_links": {"modelClassVariable": {"href": "/mdr/sdtm/1-5/classes/GeneralObservations/variables/--DETECT", "title": "Time in Days to Detection", "type": "Class Variable"}, "parentDataset": {"href": "/mdr/sendig/3-1/datasets/TF", "title": "Tumor Findings", "type": "SDTM Dataset"}, "parentProduct": {"href": "/mdr/sendig/3-1", "title": "Standard for Exchange of Nonclinical Data Implementation Guide: Nonclinical Studies Version 3.1 (Final)", "type": "Implementation Guide"}, "priorVersion": {"href": "/mdr/sendig/3-0/datasets/TF/variables/TFDETECT", "title": "Time in Days to Detection of Tumor", "type": "SDTM Dataset Variable"}, "rootItem": {"href": "/mdr/root/sendig/datasets/TF/variables/TFDETECT", "title": "Version-agnostic anchor resource for SENDIG variable TF.TFDETECT", "type": "Root Data Element"}, "self": {"href": "/mdr/sendig/3-1/datasets/TF/variables/TFDETECT", "title": "Time in Days to Detection of Tumor", "type": "SDTM Dataset Variable"}}, "core": "Req", "description": "The number of days from the start of dosing to the earliest detection of the tumor in the experimental phase. This variable must be populated for every tumor discovered during the experimental phase.", "label": "Time in Days to Detection of Tumor", "name": "TFDETECT", "ordinal": "24", "role": "Timing", "simpleDatatype": "Num"}], "description": "This domain captures the tumor findings of the nonclinical subject. (Source: CDISC Controlled Terminology, SDOMAIN, C95100, 2018-06-29)", "label": "Tumor Findings", "name": "TF", "ordinal": "19"}
