{
    "_links": {
        "parentProduct": {
            "href": "/mdr/sdtm/1-2",
            "title": "Study Data Tabulation Model Version 1.2",
            "type": "Foundational Model"
        },
        "self": {
            "href": "/mdr/sdtm/1-2/classes/Findings",
            "title": "Findings Observation Class",
            "type": "Class"
        }
    },
    "classVariables": [
        {
            "_links": {
                "parentClass": {
                    "href": "/mdr/sdtm/1-2/classes/Findings",
                    "title": "Findings Observation Class",
                    "type": "Class"
                },
                "parentProduct": {
                    "href": "/mdr/sdtm/1-2",
                    "title": "Study Data Tabulation Model Version 1.2",
                    "type": "Foundational Model"
                },
                "rootItem": {
                    "href": "/mdr/root/sdtm/classes/Findings/variables/--TESTCD",
                    "title": "Version-agnostic anchor resource for SDTM variable Findings.--TESTCD",
                    "type": "Root Data Element"
                },
                "self": {
                    "href": "/mdr/sdtm/1-2/classes/Findings/variables/--TESTCD",
                    "title": "Short Name of Measurement, Test or Examination",
                    "type": "Class Variable"
                }
            },
            "description": "Short character value for --TEST used as a column name when converting a dataset from a vertical format to a horizontal format. The short value can be up to 8 characters. Examples: PLAT, SYSBP, RRMIN, EYEEXAM.",
            "label": "Short Name of Measurement, Test or Examination",
            "name": "--TESTCD",
            "ordinal": "1",
            "role": "Topic",
            "roleDescription": "Topic",
            "simpleDatatype": "Char"
        },
        {
            "_links": {
                "parentClass": {
                    "href": "/mdr/sdtm/1-2/classes/Findings",
                    "title": "Findings Observation Class",
                    "type": "Class"
                },
                "parentProduct": {
                    "href": "/mdr/sdtm/1-2",
                    "title": "Study Data Tabulation Model Version 1.2",
                    "type": "Foundational Model"
                },
                "qualifiesVariables": [
                    {
                        "href": "/mdr/sdtm/1-2/classes/Findings/variables/--TESTCD",
                        "title": "Short Name of Measurement, Test or Examination",
                        "type": "Class Variable"
                    }
                ],
                "rootItem": {
                    "href": "/mdr/root/sdtm/classes/Findings/variables/--TEST",
                    "title": "Version-agnostic anchor resource for SDTM variable Findings.--TEST",
                    "type": "Root Data Element"
                },
                "self": {
                    "href": "/mdr/sdtm/1-2/classes/Findings/variables/--TEST",
                    "title": "Name of Measurement, Test or Examination",
                    "type": "Class Variable"
                }
            },
            "description": "Long name For --TESTCD. Examples: Platelet, Systolic Blood Pressure, Summary (Min) RR Duration, Eye Examination.",
            "label": "Name of Measurement, Test or Examination",
            "name": "--TEST",
            "ordinal": "2",
            "role": "Synonym Qualifier",
            "roleDescription": "Synonym Qualifier of --TESTCD",
            "simpleDatatype": "Char"
        },
        {
            "_links": {
                "parentClass": {
                    "href": "/mdr/sdtm/1-2/classes/Findings",
                    "title": "Findings Observation Class",
                    "type": "Class"
                },
                "parentProduct": {
                    "href": "/mdr/sdtm/1-2",
                    "title": "Study Data Tabulation Model Version 1.2",
                    "type": "Foundational Model"
                },
                "qualifiesVariables": [
                    {
                        "href": "/mdr/sdtm/1-2/classes/Findings/variables/--ORRES",
                        "title": "Result or Finding in Original Units",
                        "type": "Class Variable"
                    }
                ],
                "rootItem": {
                    "href": "/mdr/root/sdtm/classes/Findings/variables/--MODIFY",
                    "title": "Version-agnostic anchor resource for SDTM variable Findings.--MODIFY",
                    "type": "Root Data Element"
                },
                "self": {
                    "href": "/mdr/sdtm/1-2/classes/Findings/variables/--MODIFY",
                    "title": "Modified Term",
                    "type": "Class Variable"
                }
            },
            "description": "If the value of --ORRES is modified for coding purposes, then the modified text is placed here.",
            "label": "Modified Term",
            "name": "--MODIFY",
            "ordinal": "3",
            "role": "Synonym Qualifier",
            "roleDescription": "Synonym Qualifier of --ORRES",
            "simpleDatatype": "Char"
        },
        {
            "_links": {
                "parentClass": {
                    "href": "/mdr/sdtm/1-2/classes/Findings",
                    "title": "Findings Observation Class",
                    "type": "Class"
                },
                "parentProduct": {
                    "href": "/mdr/sdtm/1-2",
                    "title": "Study Data Tabulation Model Version 1.2",
                    "type": "Foundational Model"
                },
                "rootItem": {
                    "href": "/mdr/root/sdtm/classes/Findings/variables/--CAT",
                    "title": "Version-agnostic anchor resource for SDTM variable Findings.--CAT",
                    "type": "Root Data Element"
                },
                "self": {
                    "href": "/mdr/sdtm/1-2/classes/Findings/variables/--CAT",
                    "title": "Category",
                    "type": "Class Variable"
                }
            },
            "description": "Used to define a category of topic-variable values. Examples: HEMATOLOGY, URINALYSIS, CHEMISTRY, HAMILTON DEPRESSION SCALE, SF36.",
            "label": "Category",
            "name": "--CAT",
            "ordinal": "4",
            "role": "Grouping Qualifier",
            "roleDescription": "Grouping Qualifier",
            "simpleDatatype": "Char"
        },
        {
            "_links": {
                "parentClass": {
                    "href": "/mdr/sdtm/1-2/classes/Findings",
                    "title": "Findings Observation Class",
                    "type": "Class"
                },
                "parentProduct": {
                    "href": "/mdr/sdtm/1-2",
                    "title": "Study Data Tabulation Model Version 1.2",
                    "type": "Foundational Model"
                },
                "rootItem": {
                    "href": "/mdr/root/sdtm/classes/Findings/variables/--SCAT",
                    "title": "Version-agnostic anchor resource for SDTM variable Findings.--SCAT",
                    "type": "Root Data Element"
                },
                "self": {
                    "href": "/mdr/sdtm/1-2/classes/Findings/variables/--SCAT",
                    "title": "Subcategory",
                    "type": "Class Variable"
                }
            },
            "description": "Used to define a further categorization of --CAT values. Example: DIFFERENTIAL.",
            "label": "Subcategory",
            "name": "--SCAT",
            "ordinal": "5",
            "role": "Grouping Qualifier",
            "roleDescription": "Grouping Qualifier",
            "simpleDatatype": "Char"
        },
        {
            "_links": {
                "parentClass": {
                    "href": "/mdr/sdtm/1-2/classes/Findings",
                    "title": "Findings Observation Class",
                    "type": "Class"
                },
                "parentProduct": {
                    "href": "/mdr/sdtm/1-2",
                    "title": "Study Data Tabulation Model Version 1.2",
                    "type": "Foundational Model"
                },
                "rootItem": {
                    "href": "/mdr/root/sdtm/classes/Findings/variables/--POS",
                    "title": "Version-agnostic anchor resource for SDTM variable Findings.--POS",
                    "type": "Root Data Element"
                },
                "self": {
                    "href": "/mdr/sdtm/1-2/classes/Findings/variables/--POS",
                    "title": "Position of Subject During Observation",
                    "type": "Class Variable"
                }
            },
            "description": "Position of the subject during a measurement or examination. Examples: SUPINE, STANDING, SITTING.",
            "label": "Position of Subject During Observation",
            "name": "--POS",
            "ordinal": "6",
            "role": "Record Qualifier",
            "roleDescription": "Record Qualifier",
            "simpleDatatype": "Char"
        },
        {
            "_links": {
                "parentClass": {
                    "href": "/mdr/sdtm/1-2/classes/Findings",
                    "title": "Findings Observation Class",
                    "type": "Class"
                },
                "parentProduct": {
                    "href": "/mdr/sdtm/1-2",
                    "title": "Study Data Tabulation Model Version 1.2",
                    "type": "Foundational Model"
                },
                "rootItem": {
                    "href": "/mdr/root/sdtm/classes/Findings/variables/--BODSYS",
                    "title": "Version-agnostic anchor resource for SDTM variable Findings.--BODSYS",
                    "type": "Root Data Element"
                },
                "self": {
                    "href": "/mdr/sdtm/1-2/classes/Findings/variables/--BODSYS",
                    "title": "Body System or Organ Class",
                    "type": "Class Variable"
                }
            },
            "description": "Body System or Organ Class that is involved for a finding from the standard hierarchy for dictionary-coded results. Example: MedDRA SOC.",
            "label": "Body System or Organ Class",
            "name": "--BODSYS",
            "ordinal": "7",
            "role": "Record Qualifier",
            "roleDescription": "Record Qualifier",
            "simpleDatatype": "Char"
        },
        {
            "_links": {
                "parentClass": {
                    "href": "/mdr/sdtm/1-2/classes/Findings",
                    "title": "Findings Observation Class",
                    "type": "Class"
                },
                "parentProduct": {
                    "href": "/mdr/sdtm/1-2",
                    "title": "Study Data Tabulation Model Version 1.2",
                    "type": "Foundational Model"
                },
                "rootItem": {
                    "href": "/mdr/root/sdtm/classes/Findings/variables/--ORRES",
                    "title": "Version-agnostic anchor resource for SDTM variable Findings.--ORRES",
                    "type": "Root Data Element"
                },
                "self": {
                    "href": "/mdr/sdtm/1-2/classes/Findings/variables/--ORRES",
                    "title": "Result or Finding in Original Units",
                    "type": "Class Variable"
                }
            },
            "description": "Result of the measurement or finding as originally received or collected. Examples: 120, <1, POS.",
            "label": "Result or Finding in Original Units",
            "name": "--ORRES",
            "ordinal": "8",
            "role": "Result Qualifier",
            "roleDescription": "Result Qualifier",
            "simpleDatatype": "Char"
        },
        {
            "_links": {
                "parentClass": {
                    "href": "/mdr/sdtm/1-2/classes/Findings",
                    "title": "Findings Observation Class",
                    "type": "Class"
                },
                "parentProduct": {
                    "href": "/mdr/sdtm/1-2",
                    "title": "Study Data Tabulation Model Version 1.2",
                    "type": "Foundational Model"
                },
                "qualifiesVariables": [
                    {
                        "href": "/mdr/sdtm/1-2/classes/Findings/variables/--ORRES",
                        "title": "Result or Finding in Original Units",
                        "type": "Class Variable"
                    }
                ],
                "rootItem": {
                    "href": "/mdr/root/sdtm/classes/Findings/variables/--ORRESU",
                    "title": "Version-agnostic anchor resource for SDTM variable Findings.--ORRESU",
                    "type": "Root Data Element"
                },
                "self": {
                    "href": "/mdr/sdtm/1-2/classes/Findings/variables/--ORRESU",
                    "title": "Original Units",
                    "type": "Class Variable"
                }
            },
            "description": "Unit for --ORRES. Examples: IN, LB, kg/L.",
            "label": "Original Units",
            "name": "--ORRESU",
            "ordinal": "9",
            "role": "Variable Qualifier",
            "roleDescription": "Variable Qualifier of --ORRES",
            "simpleDatatype": "Char"
        },
        {
            "_links": {
                "parentClass": {
                    "href": "/mdr/sdtm/1-2/classes/Findings",
                    "title": "Findings Observation Class",
                    "type": "Class"
                },
                "parentProduct": {
                    "href": "/mdr/sdtm/1-2",
                    "title": "Study Data Tabulation Model Version 1.2",
                    "type": "Foundational Model"
                },
                "qualifiesVariables": [
                    {
                        "href": "/mdr/sdtm/1-2/classes/Findings/variables/--ORRES",
                        "title": "Result or Finding in Original Units",
                        "type": "Class Variable"
                    }
                ],
                "rootItem": {
                    "href": "/mdr/root/sdtm/classes/Findings/variables/--ORNRLO",
                    "title": "Version-agnostic anchor resource for SDTM variable Findings.--ORNRLO",
                    "type": "Root Data Element"
                },
                "self": {
                    "href": "/mdr/sdtm/1-2/classes/Findings/variables/--ORNRLO",
                    "title": "Normal Range Lower Limit-Original Units",
                    "type": "Class Variable"
                }
            },
            "description": "Lower end of normal range or reference range for results stored in --ORRES.",
            "label": "Normal Range Lower Limit-Original Units",
            "name": "--ORNRLO",
            "ordinal": "10",
            "role": "Variable Qualifier",
            "roleDescription": "Variable Qualifier of --ORRES",
            "simpleDatatype": "Char"
        },
        {
            "_links": {
                "parentClass": {
                    "href": "/mdr/sdtm/1-2/classes/Findings",
                    "title": "Findings Observation Class",
                    "type": "Class"
                },
                "parentProduct": {
                    "href": "/mdr/sdtm/1-2",
                    "title": "Study Data Tabulation Model Version 1.2",
                    "type": "Foundational Model"
                },
                "qualifiesVariables": [
                    {
                        "href": "/mdr/sdtm/1-2/classes/Findings/variables/--ORRES",
                        "title": "Result or Finding in Original Units",
                        "type": "Class Variable"
                    }
                ],
                "rootItem": {
                    "href": "/mdr/root/sdtm/classes/Findings/variables/--ORNRHI",
                    "title": "Version-agnostic anchor resource for SDTM variable Findings.--ORNRHI",
                    "type": "Root Data Element"
                },
                "self": {
                    "href": "/mdr/sdtm/1-2/classes/Findings/variables/--ORNRHI",
                    "title": "Normal Range Upper Limit-Original Units",
                    "type": "Class Variable"
                }
            },
            "description": "Upper end of normal range or reference range for results stored in --ORRES.",
            "label": "Normal Range Upper Limit-Original Units",
            "name": "--ORNRHI",
            "ordinal": "11",
            "role": "Variable Qualifier",
            "roleDescription": "Variable Qualifier of --ORRES",
            "simpleDatatype": "Char"
        },
        {
            "_links": {
                "parentClass": {
                    "href": "/mdr/sdtm/1-2/classes/Findings",
                    "title": "Findings Observation Class",
                    "type": "Class"
                },
                "parentProduct": {
                    "href": "/mdr/sdtm/1-2",
                    "title": "Study Data Tabulation Model Version 1.2",
                    "type": "Foundational Model"
                },
                "rootItem": {
                    "href": "/mdr/root/sdtm/classes/Findings/variables/--STRESC",
                    "title": "Version-agnostic anchor resource for SDTM variable Findings.--STRESC",
                    "type": "Root Data Element"
                },
                "self": {
                    "href": "/mdr/sdtm/1-2/classes/Findings/variables/--STRESC",
                    "title": "Result or Finding in Standard Format",
                    "type": "Class Variable"
                }
            },
            "description": "Contains the result value for all findings, copied or derived from --ORRES in a standard format or in standard units. --STRESC should store all results or findings in character format; if results are numeric, they should also be stored in numeric format in --STRESN. For example, if various tests have results \"NONE\", \"NEG\", and \"NEGATIVE\" in --ORRES and these results effectively have the same meaning, they could be represented in standard format in --STRESC as \"NEGATIVE\".",
            "label": "Result or Finding in Standard Format",
            "name": "--STRESC",
            "ordinal": "12",
            "role": "Result Qualifier",
            "roleDescription": "Result Qualifier",
            "simpleDatatype": "Char"
        },
        {
            "_links": {
                "parentClass": {
                    "href": "/mdr/sdtm/1-2/classes/Findings",
                    "title": "Findings Observation Class",
                    "type": "Class"
                },
                "parentProduct": {
                    "href": "/mdr/sdtm/1-2",
                    "title": "Study Data Tabulation Model Version 1.2",
                    "type": "Foundational Model"
                },
                "rootItem": {
                    "href": "/mdr/root/sdtm/classes/Findings/variables/--STRESN",
                    "title": "Version-agnostic anchor resource for SDTM variable Findings.--STRESN",
                    "type": "Root Data Element"
                },
                "self": {
                    "href": "/mdr/sdtm/1-2/classes/Findings/variables/--STRESN",
                    "title": "Numeric Result/Finding in Standard Units",
                    "type": "Class Variable"
                }
            },
            "description": "Used for continuous or numeric results or findings in standard format; copied in numeric format from --STRESC. --STRESN should store all numeric test results or findings.",
            "label": "Numeric Result/Finding in Standard Units",
            "name": "--STRESN",
            "ordinal": "13",
            "role": "Result Qualifier",
            "roleDescription": "Result Qualifier",
            "simpleDatatype": "Num"
        },
        {
            "_links": {
                "parentClass": {
                    "href": "/mdr/sdtm/1-2/classes/Findings",
                    "title": "Findings Observation Class",
                    "type": "Class"
                },
                "parentProduct": {
                    "href": "/mdr/sdtm/1-2",
                    "title": "Study Data Tabulation Model Version 1.2",
                    "type": "Foundational Model"
                },
                "qualifiesVariables": [
                    {
                        "href": "/mdr/sdtm/1-2/classes/Findings/variables/--STRESN",
                        "title": "Numeric Result/Finding in Standard Units",
                        "type": "Class Variable"
                    },
                    {
                        "href": "/mdr/sdtm/1-2/classes/Findings/variables/--STRESC",
                        "title": "Result or Finding in Standard Format",
                        "type": "Class Variable"
                    }
                ],
                "rootItem": {
                    "href": "/mdr/root/sdtm/classes/Findings/variables/--STRESU",
                    "title": "Version-agnostic anchor resource for SDTM variable Findings.--STRESU",
                    "type": "Root Data Element"
                },
                "self": {
                    "href": "/mdr/sdtm/1-2/classes/Findings/variables/--STRESU",
                    "title": "Standard Units",
                    "type": "Class Variable"
                }
            },
            "description": "Standardized units used for --STRESC and --STRESN. Example: mol/L.",
            "label": "Standard Units",
            "name": "--STRESU",
            "ordinal": "14",
            "role": "Variable Qualifier",
            "roleDescription": "Variable Qualifier of --STRESC and --STRESN",
            "simpleDatatype": "Char"
        },
        {
            "_links": {
                "parentClass": {
                    "href": "/mdr/sdtm/1-2/classes/Findings",
                    "title": "Findings Observation Class",
                    "type": "Class"
                },
                "parentProduct": {
                    "href": "/mdr/sdtm/1-2",
                    "title": "Study Data Tabulation Model Version 1.2",
                    "type": "Foundational Model"
                },
                "qualifiesVariables": [
                    {
                        "href": "/mdr/sdtm/1-2/classes/Findings/variables/--STRESN",
                        "title": "Numeric Result/Finding in Standard Units",
                        "type": "Class Variable"
                    },
                    {
                        "href": "/mdr/sdtm/1-2/classes/Findings/variables/--STRESC",
                        "title": "Result or Finding in Standard Format",
                        "type": "Class Variable"
                    }
                ],
                "rootItem": {
                    "href": "/mdr/root/sdtm/classes/Findings/variables/--STNRLO",
                    "title": "Version-agnostic anchor resource for SDTM variable Findings.--STNRLO",
                    "type": "Root Data Element"
                },
                "self": {
                    "href": "/mdr/sdtm/1-2/classes/Findings/variables/--STNRLO",
                    "title": "Normal Range Lower Limit-Standard Units",
                    "type": "Class Variable"
                }
            },
            "description": "Lower end of normal range or reference range for standardized results (e.g., --STRESC, --STRESN) represented in standardized units (--STRESU).",
            "label": "Normal Range Lower Limit-Standard Units",
            "name": "--STNRLO",
            "ordinal": "15",
            "role": "Variable Qualifier",
            "roleDescription": "Variable Qualifier of --STRESC and --STRESN",
            "simpleDatatype": "Num"
        },
        {
            "_links": {
                "parentClass": {
                    "href": "/mdr/sdtm/1-2/classes/Findings",
                    "title": "Findings Observation Class",
                    "type": "Class"
                },
                "parentProduct": {
                    "href": "/mdr/sdtm/1-2",
                    "title": "Study Data Tabulation Model Version 1.2",
                    "type": "Foundational Model"
                },
                "qualifiesVariables": [
                    {
                        "href": "/mdr/sdtm/1-2/classes/Findings/variables/--STRESN",
                        "title": "Numeric Result/Finding in Standard Units",
                        "type": "Class Variable"
                    },
                    {
                        "href": "/mdr/sdtm/1-2/classes/Findings/variables/--STRESC",
                        "title": "Result or Finding in Standard Format",
                        "type": "Class Variable"
                    }
                ],
                "rootItem": {
                    "href": "/mdr/root/sdtm/classes/Findings/variables/--STNRHI",
                    "title": "Version-agnostic anchor resource for SDTM variable Findings.--STNRHI",
                    "type": "Root Data Element"
                },
                "self": {
                    "href": "/mdr/sdtm/1-2/classes/Findings/variables/--STNRHI",
                    "title": "Normal Range Upper Limit-Standard Units",
                    "type": "Class Variable"
                }
            },
            "description": "Upper end of normal range or reference range for standardized results (e.g., --STRESC, --STRESN) represented in standardized units (--STRESU).",
            "label": "Normal Range Upper Limit-Standard Units",
            "name": "--STNRHI",
            "ordinal": "16",
            "role": "Variable Qualifier",
            "roleDescription": "Variable Qualifier of --STRESC and --STRESN",
            "simpleDatatype": "Num"
        },
        {
            "_links": {
                "parentClass": {
                    "href": "/mdr/sdtm/1-2/classes/Findings",
                    "title": "Findings Observation Class",
                    "type": "Class"
                },
                "parentProduct": {
                    "href": "/mdr/sdtm/1-2",
                    "title": "Study Data Tabulation Model Version 1.2",
                    "type": "Foundational Model"
                },
                "qualifiesVariables": [
                    {
                        "href": "/mdr/sdtm/1-2/classes/Findings/variables/--STRESC",
                        "title": "Result or Finding in Standard Format",
                        "type": "Class Variable"
                    }
                ],
                "rootItem": {
                    "href": "/mdr/root/sdtm/classes/Findings/variables/--STNRC",
                    "title": "Version-agnostic anchor resource for SDTM variable Findings.--STNRC",
                    "type": "Root Data Element"
                },
                "self": {
                    "href": "/mdr/sdtm/1-2/classes/Findings/variables/--STNRC",
                    "title": "Normal Range for Character Results",
                    "type": "Class Variable"
                }
            },
            "description": "Normal range or reference range for results stored in --STRESC that are character in ordinal or categorical scale. Example: Negative to Trace.",
            "label": "Normal Range for Character Results",
            "name": "--STNRC",
            "ordinal": "17",
            "role": "Variable Qualifier",
            "roleDescription": "Variable Qualifier of --STRESC",
            "simpleDatatype": "Char"
        },
        {
            "_links": {
                "parentClass": {
                    "href": "/mdr/sdtm/1-2/classes/Findings",
                    "title": "Findings Observation Class",
                    "type": "Class"
                },
                "parentProduct": {
                    "href": "/mdr/sdtm/1-2",
                    "title": "Study Data Tabulation Model Version 1.2",
                    "type": "Foundational Model"
                },
                "qualifiesVariables": [
                    {
                        "href": "/mdr/sdtm/1-2/classes/Findings/variables/--ORRES",
                        "title": "Result or Finding in Original Units",
                        "type": "Class Variable"
                    }
                ],
                "rootItem": {
                    "href": "/mdr/root/sdtm/classes/Findings/variables/--NRIND",
                    "title": "Version-agnostic anchor resource for SDTM variable Findings.--NRIND",
                    "type": "Root Data Element"
                },
                "self": {
                    "href": "/mdr/sdtm/1-2/classes/Findings/variables/--NRIND",
                    "title": "Normal/Reference Range Indicator",
                    "type": "Class Variable"
                }
            },
            "description": "Used to indicate the value is outside the normal range or reference range. May be defined by --ORNRLO and --ORNRHI or other objective criteria. Examples: Y, N; HIGH, LOW; NORMAL; ABNORMAL.",
            "label": "Normal/Reference Range Indicator",
            "name": "--NRIND",
            "ordinal": "18",
            "role": "Variable Qualifier",
            "roleDescription": "Variable Qualifier of --ORRES",
            "simpleDatatype": "Char"
        },
        {
            "_links": {
                "parentClass": {
                    "href": "/mdr/sdtm/1-2/classes/Findings",
                    "title": "Findings Observation Class",
                    "type": "Class"
                },
                "parentProduct": {
                    "href": "/mdr/sdtm/1-2",
                    "title": "Study Data Tabulation Model Version 1.2",
                    "type": "Foundational Model"
                },
                "qualifiesVariables": [
                    {
                        "href": "/mdr/sdtm/1-2/classes/Findings/variables/--ORRES",
                        "title": "Result or Finding in Original Units",
                        "type": "Class Variable"
                    }
                ],
                "rootItem": {
                    "href": "/mdr/root/sdtm/classes/Findings/variables/--RESCAT",
                    "title": "Version-agnostic anchor resource for SDTM variable Findings.--RESCAT",
                    "type": "Root Data Element"
                },
                "self": {
                    "href": "/mdr/sdtm/1-2/classes/Findings/variables/--RESCAT",
                    "title": "Result Category",
                    "type": "Class Variable"
                }
            },
            "description": "Used to categorize the result of a finding. Example: MALIGNANT or BENIGN for tumor findings.",
            "label": "Result Category",
            "name": "--RESCAT",
            "ordinal": "19",
            "role": "Variable Qualifier",
            "roleDescription": "Variable Qualifier of --ORRES",
            "simpleDatatype": "Char"
        },
        {
            "_links": {
                "parentClass": {
                    "href": "/mdr/sdtm/1-2/classes/Findings",
                    "title": "Findings Observation Class",
                    "type": "Class"
                },
                "parentProduct": {
                    "href": "/mdr/sdtm/1-2",
                    "title": "Study Data Tabulation Model Version 1.2",
                    "type": "Foundational Model"
                },
                "rootItem": {
                    "href": "/mdr/root/sdtm/classes/Findings/variables/--STAT",
                    "title": "Version-agnostic anchor resource for SDTM variable Findings.--STAT",
                    "type": "Root Data Element"
                },
                "self": {
                    "href": "/mdr/sdtm/1-2/classes/Findings/variables/--STAT",
                    "title": "Completion Status",
                    "type": "Class Variable"
                }
            },
            "description": "Used to indicate that a question was not asked or a test was not done, or a test was attempted but did not generate a result. Should be null or have a value of NOT DONE.",
            "label": "Completion Status",
            "name": "--STAT",
            "ordinal": "20",
            "role": "Record Qualifier",
            "roleDescription": "Record Qualifier",
            "simpleDatatype": "Char"
        },
        {
            "_links": {
                "parentClass": {
                    "href": "/mdr/sdtm/1-2/classes/Findings",
                    "title": "Findings Observation Class",
                    "type": "Class"
                },
                "parentProduct": {
                    "href": "/mdr/sdtm/1-2",
                    "title": "Study Data Tabulation Model Version 1.2",
                    "type": "Foundational Model"
                },
                "rootItem": {
                    "href": "/mdr/root/sdtm/classes/Findings/variables/--REASND",
                    "title": "Version-agnostic anchor resource for SDTM variable Findings.--REASND",
                    "type": "Root Data Element"
                },
                "self": {
                    "href": "/mdr/sdtm/1-2/classes/Findings/variables/--REASND",
                    "title": "Reason Not Done",
                    "type": "Class Variable"
                }
            },
            "description": "Reason not done. Used in conjunction with --STAT when value is NOT DONE.",
            "label": "Reason Not Done",
            "name": "--REASND",
            "ordinal": "21",
            "role": "Record Qualifier",
            "roleDescription": "Record Qualifier",
            "simpleDatatype": "Char"
        },
        {
            "_links": {
                "parentClass": {
                    "href": "/mdr/sdtm/1-2/classes/Findings",
                    "title": "Findings Observation Class",
                    "type": "Class"
                },
                "parentProduct": {
                    "href": "/mdr/sdtm/1-2",
                    "title": "Study Data Tabulation Model Version 1.2",
                    "type": "Foundational Model"
                },
                "rootItem": {
                    "href": "/mdr/root/sdtm/classes/Findings/variables/--XFN",
                    "title": "Version-agnostic anchor resource for SDTM variable Findings.--XFN",
                    "type": "Root Data Element"
                },
                "self": {
                    "href": "/mdr/sdtm/1-2/classes/Findings/variables/--XFN",
                    "title": "External Filename",
                    "type": "Class Variable"
                }
            },
            "description": "Filename for an external file, such as one for an ECG waveform or a medical image.",
            "label": "External Filename",
            "name": "--XFN",
            "ordinal": "22",
            "role": "Record Qualifier",
            "roleDescription": "Record Qualifier",
            "simpleDatatype": "Char"
        },
        {
            "_links": {
                "parentClass": {
                    "href": "/mdr/sdtm/1-2/classes/Findings",
                    "title": "Findings Observation Class",
                    "type": "Class"
                },
                "parentProduct": {
                    "href": "/mdr/sdtm/1-2",
                    "title": "Study Data Tabulation Model Version 1.2",
                    "type": "Foundational Model"
                },
                "rootItem": {
                    "href": "/mdr/root/sdtm/classes/Findings/variables/--NAM",
                    "title": "Version-agnostic anchor resource for SDTM variable Findings.--NAM",
                    "type": "Root Data Element"
                },
                "self": {
                    "href": "/mdr/sdtm/1-2/classes/Findings/variables/--NAM",
                    "title": "Laboratory/Vendor Name",
                    "type": "Class Variable"
                }
            },
            "description": "Name or identifier of the vendor (e.g., laboratory) that provided the test results.",
            "label": "Laboratory/Vendor Name",
            "name": "--NAM",
            "ordinal": "23",
            "role": "Record Qualifier",
            "roleDescription": "Record Qualifier",
            "simpleDatatype": "Char"
        },
        {
            "_links": {
                "parentClass": {
                    "href": "/mdr/sdtm/1-2/classes/Findings",
                    "title": "Findings Observation Class",
                    "type": "Class"
                },
                "parentProduct": {
                    "href": "/mdr/sdtm/1-2",
                    "title": "Study Data Tabulation Model Version 1.2",
                    "type": "Foundational Model"
                },
                "qualifiesVariables": [
                    {
                        "href": "/mdr/sdtm/1-2/classes/Findings/variables/--TESTCD",
                        "title": "Short Name of Measurement, Test or Examination",
                        "type": "Class Variable"
                    }
                ],
                "rootItem": {
                    "href": "/mdr/root/sdtm/classes/Findings/variables/--LOINC",
                    "title": "Version-agnostic anchor resource for SDTM variable Findings.--LOINC",
                    "type": "Root Data Element"
                },
                "self": {
                    "href": "/mdr/sdtm/1-2/classes/Findings/variables/--LOINC",
                    "title": "LOINC Code",
                    "type": "Class Variable"
                }
            },
            "description": "Logical Observation Identifiers Names and Codes (LOINC) code for the topic variable such as a lab test.",
            "label": "LOINC Code",
            "name": "--LOINC",
            "ordinal": "24",
            "role": "Synonym Qualifier",
            "roleDescription": "Synonym Qualifier of --TESTCD",
            "simpleDatatype": "Char"
        },
        {
            "_links": {
                "parentClass": {
                    "href": "/mdr/sdtm/1-2/classes/Findings",
                    "title": "Findings Observation Class",
                    "type": "Class"
                },
                "parentProduct": {
                    "href": "/mdr/sdtm/1-2",
                    "title": "Study Data Tabulation Model Version 1.2",
                    "type": "Foundational Model"
                },
                "rootItem": {
                    "href": "/mdr/root/sdtm/classes/Findings/variables/--SPEC",
                    "title": "Version-agnostic anchor resource for SDTM variable Findings.--SPEC",
                    "type": "Root Data Element"
                },
                "self": {
                    "href": "/mdr/sdtm/1-2/classes/Findings/variables/--SPEC",
                    "title": "Specimen Material Type",
                    "type": "Class Variable"
                }
            },
            "description": "Defines the type of specimen used for a measurement. Examples: SERUM, PLASMA, URINE.",
            "label": "Specimen Material Type",
            "name": "--SPEC",
            "ordinal": "25",
            "role": "Record Qualifier",
            "roleDescription": "Record Qualifier",
            "simpleDatatype": "Char"
        },
        {
            "_links": {
                "parentClass": {
                    "href": "/mdr/sdtm/1-2/classes/Findings",
                    "title": "Findings Observation Class",
                    "type": "Class"
                },
                "parentProduct": {
                    "href": "/mdr/sdtm/1-2",
                    "title": "Study Data Tabulation Model Version 1.2",
                    "type": "Foundational Model"
                },
                "rootItem": {
                    "href": "/mdr/root/sdtm/classes/Findings/variables/--SPCCND",
                    "title": "Version-agnostic anchor resource for SDTM variable Findings.--SPCCND",
                    "type": "Root Data Element"
                },
                "self": {
                    "href": "/mdr/sdtm/1-2/classes/Findings/variables/--SPCCND",
                    "title": "Specimen Condition",
                    "type": "Class Variable"
                }
            },
            "description": "Defines the condition of the specimen. Example: CLOUDY.",
            "label": "Specimen Condition",
            "name": "--SPCCND",
            "ordinal": "26",
            "role": "Record Qualifier",
            "roleDescription": "Record Qualifier",
            "simpleDatatype": "Char"
        },
        {
            "_links": {
                "parentClass": {
                    "href": "/mdr/sdtm/1-2/classes/Findings",
                    "title": "Findings Observation Class",
                    "type": "Class"
                },
                "parentProduct": {
                    "href": "/mdr/sdtm/1-2",
                    "title": "Study Data Tabulation Model Version 1.2",
                    "type": "Foundational Model"
                },
                "rootItem": {
                    "href": "/mdr/root/sdtm/classes/Findings/variables/--LOC",
                    "title": "Version-agnostic anchor resource for SDTM variable Findings.--LOC",
                    "type": "Root Data Element"
                },
                "self": {
                    "href": "/mdr/sdtm/1-2/classes/Findings/variables/--LOC",
                    "title": "Location Used for the Measurement",
                    "type": "Class Variable"
                }
            },
            "description": "Location relevant to the collection of the measurement. Example: RECTAL for temperature, LEFT ARM for blood pressure or V1 for an ECG lead.",
            "label": "Location Used for the Measurement",
            "name": "--LOC",
            "ordinal": "27",
            "role": "Record Qualifier",
            "roleDescription": "Record Qualifier",
            "simpleDatatype": "Char"
        },
        {
            "_links": {
                "parentClass": {
                    "href": "/mdr/sdtm/1-2/classes/Findings",
                    "title": "Findings Observation Class",
                    "type": "Class"
                },
                "parentProduct": {
                    "href": "/mdr/sdtm/1-2",
                    "title": "Study Data Tabulation Model Version 1.2",
                    "type": "Foundational Model"
                },
                "rootItem": {
                    "href": "/mdr/root/sdtm/classes/Findings/variables/--METHOD",
                    "title": "Version-agnostic anchor resource for SDTM variable Findings.--METHOD",
                    "type": "Root Data Element"
                },
                "self": {
                    "href": "/mdr/sdtm/1-2/classes/Findings/variables/--METHOD",
                    "title": "Method of Test or Examination",
                    "type": "Class Variable"
                }
            },
            "description": "Method of the test or examination. Examples: EIA (Enzyme Immunoassay), ELECTROPHORESIS, DIPSTICK.",
            "label": "Method of Test or Examination",
            "name": "--METHOD",
            "ordinal": "28",
            "role": "Record Qualifier",
            "roleDescription": "Record Qualifier",
            "simpleDatatype": "Char"
        },
        {
            "_links": {
                "parentClass": {
                    "href": "/mdr/sdtm/1-2/classes/Findings",
                    "title": "Findings Observation Class",
                    "type": "Class"
                },
                "parentProduct": {
                    "href": "/mdr/sdtm/1-2",
                    "title": "Study Data Tabulation Model Version 1.2",
                    "type": "Foundational Model"
                },
                "rootItem": {
                    "href": "/mdr/root/sdtm/classes/Findings/variables/--BLFL",
                    "title": "Version-agnostic anchor resource for SDTM variable Findings.--BLFL",
                    "type": "Root Data Element"
                },
                "self": {
                    "href": "/mdr/sdtm/1-2/classes/Findings/variables/--BLFL",
                    "title": "Baseline Flag",
                    "type": "Class Variable"
                }
            },
            "description": "Indicator used to identify a baseline value. Should be Y or null.",
            "label": "Baseline Flag",
            "name": "--BLFL",
            "ordinal": "29",
            "role": "Record Qualifier",
            "roleDescription": "Record Qualifier",
            "simpleDatatype": "Char"
        },
        {
            "_links": {
                "parentClass": {
                    "href": "/mdr/sdtm/1-2/classes/Findings",
                    "title": "Findings Observation Class",
                    "type": "Class"
                },
                "parentProduct": {
                    "href": "/mdr/sdtm/1-2",
                    "title": "Study Data Tabulation Model Version 1.2",
                    "type": "Foundational Model"
                },
                "rootItem": {
                    "href": "/mdr/root/sdtm/classes/Findings/variables/--FAST",
                    "title": "Version-agnostic anchor resource for SDTM variable Findings.--FAST",
                    "type": "Root Data Element"
                },
                "self": {
                    "href": "/mdr/sdtm/1-2/classes/Findings/variables/--FAST",
                    "title": "Fasting Status",
                    "type": "Class Variable"
                }
            },
            "description": "Indicator used to identify fasting status. Valid values include Y, N, U or null if not relevant.",
            "label": "Fasting Status",
            "name": "--FAST",
            "ordinal": "30",
            "role": "Record Qualifier",
            "roleDescription": "Record Qualifier",
            "simpleDatatype": "Char"
        },
        {
            "_links": {
                "parentClass": {
                    "href": "/mdr/sdtm/1-2/classes/Findings",
                    "title": "Findings Observation Class",
                    "type": "Class"
                },
                "parentProduct": {
                    "href": "/mdr/sdtm/1-2",
                    "title": "Study Data Tabulation Model Version 1.2",
                    "type": "Foundational Model"
                },
                "rootItem": {
                    "href": "/mdr/root/sdtm/classes/Findings/variables/--DRVFL",
                    "title": "Version-agnostic anchor resource for SDTM variable Findings.--DRVFL",
                    "type": "Root Data Element"
                },
                "self": {
                    "href": "/mdr/sdtm/1-2/classes/Findings/variables/--DRVFL",
                    "title": "Derived Flag",
                    "type": "Class Variable"
                }
            },
            "description": "Used to indicate a derived record (e.g., a record that represents the average of other records such as a computed baseline). Should be Y or null.",
            "label": "Derived Flag",
            "name": "--DRVFL",
            "ordinal": "31",
            "role": "Record Qualifier",
            "roleDescription": "Record Qualifier",
            "simpleDatatype": "Char"
        },
        {
            "_links": {
                "parentClass": {
                    "href": "/mdr/sdtm/1-2/classes/Findings",
                    "title": "Findings Observation Class",
                    "type": "Class"
                },
                "parentProduct": {
                    "href": "/mdr/sdtm/1-2",
                    "title": "Study Data Tabulation Model Version 1.2",
                    "type": "Foundational Model"
                },
                "rootItem": {
                    "href": "/mdr/root/sdtm/classes/Findings/variables/--EVAL",
                    "title": "Version-agnostic anchor resource for SDTM variable Findings.--EVAL",
                    "type": "Root Data Element"
                },
                "self": {
                    "href": "/mdr/sdtm/1-2/classes/Findings/variables/--EVAL",
                    "title": "Evaluator",
                    "type": "Class Variable"
                }
            },
            "description": "Role of the person who provided the evaluation. Used only for results that are subjective (e.g., assigned by a person or a group). Examples: ADJUDICATION COMMITTEE, VENDOR.",
            "label": "Evaluator",
            "name": "--EVAL",
            "ordinal": "32",
            "role": "Record Qualifier",
            "roleDescription": "Record Qualifier",
            "simpleDatatype": "Char"
        },
        {
            "_links": {
                "parentClass": {
                    "href": "/mdr/sdtm/1-2/classes/Findings",
                    "title": "Findings Observation Class",
                    "type": "Class"
                },
                "parentProduct": {
                    "href": "/mdr/sdtm/1-2",
                    "title": "Study Data Tabulation Model Version 1.2",
                    "type": "Foundational Model"
                },
                "qualifiesVariables": [
                    {
                        "href": "/mdr/sdtm/1-2/classes/Findings/variables/--TOXGR",
                        "title": "Toxicity Grade",
                        "type": "Class Variable"
                    }
                ],
                "rootItem": {
                    "href": "/mdr/root/sdtm/classes/Findings/variables/--TOX",
                    "title": "Version-agnostic anchor resource for SDTM variable Findings.--TOX",
                    "type": "Root Data Element"
                },
                "self": {
                    "href": "/mdr/sdtm/1-2/classes/Findings/variables/--TOX",
                    "title": "Toxicity",
                    "type": "Class Variable"
                }
            },
            "description": "Description of toxicity quantified by --TOXGR such as NCI CTCAE Short Name. Examples: HYPERCALCEMIA, HYPOCALCEMIA. Sponsor should specify which scale and version is used in the Sponsor Comments column of the Define.xml document.",
            "label": "Toxicity",
            "name": "--TOX",
            "ordinal": "33",
            "role": "Variable Qualifier",
            "roleDescription": "Variable Qualifier of --TOXGR",
            "simpleDatatype": "Char"
        },
        {
            "_links": {
                "parentClass": {
                    "href": "/mdr/sdtm/1-2/classes/Findings",
                    "title": "Findings Observation Class",
                    "type": "Class"
                },
                "parentProduct": {
                    "href": "/mdr/sdtm/1-2",
                    "title": "Study Data Tabulation Model Version 1.2",
                    "type": "Foundational Model"
                },
                "qualifiesVariables": [
                    {
                        "href": "/mdr/sdtm/1-2/classes/Findings/variables/--STRESC",
                        "title": "Result or Finding in Standard Format",
                        "type": "Class Variable"
                    }
                ],
                "rootItem": {
                    "href": "/mdr/root/sdtm/classes/Findings/variables/--TOXGR",
                    "title": "Version-agnostic anchor resource for SDTM variable Findings.--TOXGR",
                    "type": "Root Data Element"
                },
                "self": {
                    "href": "/mdr/sdtm/1-2/classes/Findings/variables/--TOXGR",
                    "title": "Toxicity Grade",
                    "type": "Class Variable"
                }
            },
            "description": "Records toxicity grade using a standard toxicity scale (such as the NCI CTCAE). Sponsor should specify which scale and version is used in the Sponsor Comments column of the Define data definition document. Example: 2.",
            "label": "Toxicity Grade",
            "name": "--TOXGR",
            "ordinal": "34",
            "role": "Variable Qualifier",
            "roleDescription": "Variable Qualifier of --STRESC",
            "simpleDatatype": "Char"
        },
        {
            "_links": {
                "parentClass": {
                    "href": "/mdr/sdtm/1-2/classes/Findings",
                    "title": "Findings Observation Class",
                    "type": "Class"
                },
                "parentProduct": {
                    "href": "/mdr/sdtm/1-2",
                    "title": "Study Data Tabulation Model Version 1.2",
                    "type": "Foundational Model"
                },
                "rootItem": {
                    "href": "/mdr/root/sdtm/classes/Findings/variables/--SEV",
                    "title": "Version-agnostic anchor resource for SDTM variable Findings.--SEV",
                    "type": "Root Data Element"
                },
                "self": {
                    "href": "/mdr/sdtm/1-2/classes/Findings/variables/--SEV",
                    "title": "Severity",
                    "type": "Class Variable"
                }
            },
            "description": "Describes the severity or intensity of a particular finding. Examples: MILD, MODERATE, SEVERE.",
            "label": "Severity",
            "name": "--SEV",
            "ordinal": "35",
            "role": "Record Qualifier",
            "roleDescription": "Record Qualifier",
            "simpleDatatype": "Char"
        },
        {
            "_links": {
                "parentClass": {
                    "href": "/mdr/sdtm/1-2/classes/Findings",
                    "title": "Findings Observation Class",
                    "type": "Class"
                },
                "parentProduct": {
                    "href": "/mdr/sdtm/1-2",
                    "title": "Study Data Tabulation Model Version 1.2",
                    "type": "Foundational Model"
                },
                "rootItem": {
                    "href": "/mdr/root/sdtm/classes/Findings/variables/--DTHREL",
                    "title": "Version-agnostic anchor resource for SDTM variable Findings.--DTHREL",
                    "type": "Root Data Element"
                },
                "self": {
                    "href": "/mdr/sdtm/1-2/classes/Findings/variables/--DTHREL",
                    "title": "Relationship to Death",
                    "type": "Class Variable"
                }
            },
            "description": "Describes the relationship of a particular finding to the death of a subject.",
            "label": "Relationship to Death",
            "name": "--DTHREL",
            "ordinal": "36",
            "role": "Record Qualifier",
            "roleDescription": "Record Qualifier",
            "simpleDatatype": "Char"
        },
        {
            "_links": {
                "parentClass": {
                    "href": "/mdr/sdtm/1-2/classes/Findings",
                    "title": "Findings Observation Class",
                    "type": "Class"
                },
                "parentProduct": {
                    "href": "/mdr/sdtm/1-2",
                    "title": "Study Data Tabulation Model Version 1.2",
                    "type": "Foundational Model"
                },
                "qualifiesVariables": [
                    {
                        "href": "/mdr/sdtm/1-2/classes/Findings/variables/--STRESN",
                        "title": "Numeric Result/Finding in Standard Units",
                        "type": "Class Variable"
                    }
                ],
                "rootItem": {
                    "href": "/mdr/root/sdtm/classes/Findings/variables/--LLOQ",
                    "title": "Version-agnostic anchor resource for SDTM variable Findings.--LLOQ",
                    "type": "Root Data Element"
                },
                "self": {
                    "href": "/mdr/sdtm/1-2/classes/Findings/variables/--LLOQ",
                    "title": "Lower Limit of Quantitation",
                    "type": "Class Variable"
                }
            },
            "description": "Indicates the lower limit of quantitation for an assay. Units will be those used for --STRESU.",
            "label": "Lower Limit of Quantitation",
            "name": "--LLOQ",
            "ordinal": "37",
            "role": "Variable Qualifier",
            "roleDescription": "Variable Qualifier of --STRESN",
            "simpleDatatype": "Num"
        }
    ],
    "description": "This SDTM class captures the observations resulting from planned evaluations to address specific tests or questions such as laboratory tests, ECG testing, and questions listed on questionnaires. (Source: CDISC Controlled Terminology, GNRLOBSC, C103373, 2018-06-29)",
    "label": "Findings Observation Class",
    "name": "Findings",
    "ordinal": "4"
}