{"_links": {"parentProduct": {"href": "/mdr/sdtm/1-2", "title": "Study Data Tabulation Model Version 1.2", "type": "Foundational Model"}, "self": {"href": "/mdr/sdtm/1-2/classes/TrialDesign", "title": "Trial Design Model", "type": "Class"}}, "datasets": [{"_links": {"parentClass": {"href": "/mdr/sdtm/1-2/classes/TrialDesign", "title": "Trial Design Model", "type": "Class"}, "parentProduct": {"href": "/mdr/sdtm/1-2", "title": "Study Data Tabulation Model Version 1.2", "type": "Foundational Model"}, "self": {"href": "/mdr/sdtm/1-2/datasets/TE", "title": "Trial Elements", "type": "SDTM Dataset"}}, "datasetStructure": "One Record per Trial Element", "datasetVariables": [{"_links": {"parentDataset": {"href": "/mdr/sdtm/1-2/datasets/TE", "title": "Trial Elements", "type": "SDTM Dataset"}, "parentProduct": {"href": "/mdr/sdtm/1-2", "title": "Study Data Tabulation Model Version 1.2", "type": "Foundational Model"}, "rootItem": {"href": "/mdr/root/sdtm/datasets/TE/variables/STUDYID", "title": "Version-agnostic anchor resource for SDTM variable TE.STUDYID", "type": "Root Data Element"}, "self": {"href": "/mdr/sdtm/1-2/datasets/TE/variables/STUDYID", "title": "Study Identifier", "type": "SDTM Dataset Variable"}}, "description": "Unique identifier for a study.", "label": "Study Identifier", "name": "STUDYID", "ordinal": "1", "simpleDatatype": "Char"}, {"_links": {"parentDataset": {"href": "/mdr/sdtm/1-2/datasets/TE", "title": "Trial Elements", "type": "SDTM Dataset"}, "parentProduct": {"href": "/mdr/sdtm/1-2", "title": "Study Data Tabulation Model Version 1.2", "type": "Foundational Model"}, "rootItem": {"href": "/mdr/root/sdtm/datasets/TE/variables/DOMAIN", "title": "Version-agnostic anchor resource for SDTM variable TE.DOMAIN", "type": "Root Data Element"}, "self": {"href": "/mdr/sdtm/1-2/datasets/TE/variables/DOMAIN", "title": "Domain Abbreviation", "type": "SDTM Dataset Variable"}}, "description": "Two-character abbreviation for the domain, which must be TE.", "label": "Domain Abbreviation", "name": "DOMAIN", "ordinal": "2", "simpleDatatype": "Char"}, {"_links": {"parentDataset": {"href": "/mdr/sdtm/1-2/datasets/TE", "title": "Trial Elements", "type": "SDTM Dataset"}, "parentProduct": {"href": "/mdr/sdtm/1-2", "title": "Study Data Tabulation Model Version 1.2", "type": "Foundational Model"}, "rootItem": {"href": "/mdr/root/sdtm/datasets/TE/variables/ETCD", "title": "Version-agnostic anchor resource for SDTM variable TE.ETCD", "type": "Root Data Element"}, "self": {"href": "/mdr/sdtm/1-2/datasets/TE/variables/ETCD", "title": "Element Code", "type": "SDTM Dataset Variable"}}, "description": "ETCD (the companion to ELEMENT) is limited to 8 characters and does not have special character restrictions. These values should be short for ease of use in programming, but it is not expected that ETCD will need to serve as a variable name.", "label": "Element Code", "name": "ETCD", "ordinal": "3", "simpleDatatype": "Char"}, {"_links": {"parentDataset": {"href": "/mdr/sdtm/1-2/datasets/TE", "title": "Trial Elements", "type": "SDTM Dataset"}, "parentProduct": {"href": "/mdr/sdtm/1-2", "title": "Study Data Tabulation Model Version 1.2", "type": "Foundational Model"}, "rootItem": {"href": "/mdr/root/sdtm/datasets/TE/variables/ELEMENT", "title": "Version-agnostic anchor resource for SDTM variable TE.ELEMENT", "type": "Root Data Element"}, "self": {"href": "/mdr/sdtm/1-2/datasets/TE/variables/ELEMENT", "title": "Description of Element", "type": "SDTM Dataset Variable"}}, "description": "The name of the Element.", "label": "Description of Element", "name": "ELEMENT", "ordinal": "4", "simpleDatatype": "Char"}, {"_links": {"parentDataset": {"href": "/mdr/sdtm/1-2/datasets/TE", "title": "Trial Elements", "type": "SDTM Dataset"}, "parentProduct": {"href": "/mdr/sdtm/1-2", "title": "Study Data Tabulation Model Version 1.2", "type": "Foundational Model"}, "rootItem": {"href": "/mdr/root/sdtm/datasets/TE/variables/TESTRL", "title": "Version-agnostic anchor resource for SDTM variable TE.TESTRL", "type": "Root Data Element"}, "self": {"href": "/mdr/sdtm/1-2/datasets/TE/variables/TESTRL", "title": "Rule for Start of Element", "type": "SDTM Dataset Variable"}}, "description": "Expresses rule for beginning the Element.", "label": "Rule for Start of Element", "name": "TESTRL", "ordinal": "5", "simpleDatatype": "Char"}, {"_links": {"parentDataset": {"href": "/mdr/sdtm/1-2/datasets/TE", "title": "Trial Elements", "type": "SDTM Dataset"}, "parentProduct": {"href": "/mdr/sdtm/1-2", "title": "Study Data Tabulation Model Version 1.2", "type": "Foundational Model"}, "rootItem": {"href": "/mdr/root/sdtm/datasets/TE/variables/TEENRL", "title": "Version-agnostic anchor resource for SDTM variable TE.TEENRL", "type": "Root Data Element"}, "self": {"href": "/mdr/sdtm/1-2/datasets/TE/variables/TEENRL", "title": "Rule for End of Element", "type": "SDTM Dataset Variable"}}, "description": "Expresses rule for ending the Element. Either TEENRL or TEDUR must be present for each Element.", "label": "Rule for End of Element", "name": "TEENRL", "ordinal": "6", "simpleDatatype": "Char"}, {"_links": {"parentDataset": {"href": "/mdr/sdtm/1-2/datasets/TE", "title": "Trial Elements", "type": "SDTM Dataset"}, "parentProduct": {"href": "/mdr/sdtm/1-2", "title": "Study Data Tabulation Model Version 1.2", "type": "Foundational Model"}, "rootItem": {"href": "/mdr/root/sdtm/datasets/TE/variables/TEDUR", "title": "Version-agnostic anchor resource for SDTM variable TE.TEDUR", "type": "Root Data Element"}, "self": {"href": "/mdr/sdtm/1-2/datasets/TE/variables/TEDUR", "title": "Planned Duration of Element", "type": "SDTM Dataset Variable"}}, "description": "Planned Duration of Element in ISO 8601 format. Used when the rule for ending the Element is applied after a fixed duration.", "label": "Planned Duration of Element", "name": "TEDUR", "ordinal": "7", "simpleDatatype": "Char"}], "description": "A trial design domain that contains the element code that is unique for each element, the element description, and the rules for starting and ending an element. (Source: CDISC Controlled Terminology, DOMAIN, C49619, 2018-06-29)", "label": "Trial Elements", "name": "TE", "ordinal": "5"}, {"_links": {"parentClass": {"href": "/mdr/sdtm/1-2/classes/TrialDesign", "title": "Trial Design Model", "type": "Class"}, "parentProduct": {"href": "/mdr/sdtm/1-2", "title": "Study Data Tabulation Model Version 1.2", "type": "Foundational Model"}, "self": {"href": "/mdr/sdtm/1-2/datasets/TA", "title": "Trial Arms", "type": "SDTM Dataset"}}, "datasetStructure": "One Record per Planned Element per Arm", "datasetVariables": [{"_links": {"parentDataset": {"href": "/mdr/sdtm/1-2/datasets/TA", "title": "Trial Arms", "type": "SDTM Dataset"}, "parentProduct": {"href": "/mdr/sdtm/1-2", "title": "Study Data Tabulation Model Version 1.2", "type": "Foundational Model"}, "rootItem": {"href": "/mdr/root/sdtm/datasets/TA/variables/STUDYID", "title": "Version-agnostic anchor resource for SDTM variable TA.STUDYID", "type": "Root Data Element"}, "self": {"href": "/mdr/sdtm/1-2/datasets/TA/variables/STUDYID", "title": "Study Identifier", "type": "SDTM Dataset Variable"}}, "description": "Unique identifier for a study.", "label": "Study Identifier", "name": "STUDYID", "ordinal": "1", "simpleDatatype": "Char"}, {"_links": {"parentDataset": {"href": "/mdr/sdtm/1-2/datasets/TA", "title": "Trial Arms", "type": "SDTM Dataset"}, "parentProduct": {"href": "/mdr/sdtm/1-2", "title": "Study Data Tabulation Model Version 1.2", "type": "Foundational Model"}, "rootItem": {"href": "/mdr/root/sdtm/datasets/TA/variables/DOMAIN", "title": "Version-agnostic anchor resource for SDTM variable TA.DOMAIN", "type": "Root Data Element"}, "self": {"href": "/mdr/sdtm/1-2/datasets/TA/variables/DOMAIN", "title": "Domain Abbreviation", "type": "SDTM Dataset Variable"}}, "description": "Two-character abbreviation for the domain, which must be TA.", "label": "Domain Abbreviation", "name": "DOMAIN", "ordinal": "2", "simpleDatatype": "Char"}, {"_links": {"parentDataset": {"href": "/mdr/sdtm/1-2/datasets/TA", "title": "Trial Arms", "type": "SDTM Dataset"}, "parentProduct": {"href": "/mdr/sdtm/1-2", "title": "Study Data Tabulation Model Version 1.2", "type": "Foundational Model"}, "rootItem": {"href": "/mdr/root/sdtm/datasets/TA/variables/ARMCD", "title": "Version-agnostic anchor resource for SDTM variable TA.ARMCD", "type": "Root Data Element"}, "self": {"href": "/mdr/sdtm/1-2/datasets/TA/variables/ARMCD", "title": "Planned Arm Code", "type": "SDTM Dataset Variable"}}, "description": "ARMCD is limited to 20 characters and does not have special character restrictions.", "label": "Planned Arm Code", "name": "ARMCD", "ordinal": "3", "simpleDatatype": "Char"}, {"_links": {"parentDataset": {"href": "/mdr/sdtm/1-2/datasets/TA", "title": "Trial Arms", "type": "SDTM Dataset"}, "parentProduct": {"href": "/mdr/sdtm/1-2", "title": "Study Data Tabulation Model Version 1.2", "type": "Foundational Model"}, "rootItem": {"href": "/mdr/root/sdtm/datasets/TA/variables/ARM", "title": "Version-agnostic anchor resource for SDTM variable TA.ARM", "type": "Root Data Element"}, "self": {"href": "/mdr/sdtm/1-2/datasets/TA/variables/ARM", "title": "Description of Planned Arm", "type": "SDTM Dataset Variable"}}, "description": "Name given to Arm or treatment group.", "label": "Description of Planned Arm", "name": "ARM", "ordinal": "4", "simpleDatatype": "Char"}, {"_links": {"parentDataset": {"href": "/mdr/sdtm/1-2/datasets/TA", "title": "Trial Arms", "type": "SDTM Dataset"}, "parentProduct": {"href": "/mdr/sdtm/1-2", "title": "Study Data Tabulation Model Version 1.2", "type": "Foundational Model"}, "rootItem": {"href": "/mdr/root/sdtm/datasets/TA/variables/TAETORD", "title": "Version-agnostic anchor resource for SDTM variable TA.TAETORD", "type": "Root Data Element"}, "self": {"href": "/mdr/sdtm/1-2/datasets/TA/variables/TAETORD", "title": "Order of Element within Arm", "type": "SDTM Dataset Variable"}}, "description": "Number that gives the order of the Element within the Arm.", "label": "Order of Element within Arm", "name": "TAETORD", "ordinal": "5", "simpleDatatype": "Num"}, {"_links": {"parentDataset": {"href": "/mdr/sdtm/1-2/datasets/TA", "title": "Trial Arms", "type": "SDTM Dataset"}, "parentProduct": {"href": "/mdr/sdtm/1-2", "title": "Study Data Tabulation Model Version 1.2", "type": "Foundational Model"}, "rootItem": {"href": "/mdr/root/sdtm/datasets/TA/variables/ETCD", "title": "Version-agnostic anchor resource for SDTM variable TA.ETCD", "type": "Root Data Element"}, "self": {"href": "/mdr/sdtm/1-2/datasets/TA/variables/ETCD", "title": "Element Code", "type": "SDTM Dataset Variable"}}, "description": "ETCD (the companion to ELEMENT) is limited to 8 characters and does not have special character restrictions. These values should be short for ease of use in programming, but it is not expected that ETCD will need to serve as a variable name.", "label": "Element Code", "name": "ETCD", "ordinal": "6", "simpleDatatype": "Char"}, {"_links": {"parentDataset": {"href": "/mdr/sdtm/1-2/datasets/TA", "title": "Trial Arms", "type": "SDTM Dataset"}, "parentProduct": {"href": "/mdr/sdtm/1-2", "title": "Study Data Tabulation Model Version 1.2", "type": "Foundational Model"}, "rootItem": {"href": "/mdr/root/sdtm/datasets/TA/variables/ELEMENT", "title": "Version-agnostic anchor resource for SDTM variable TA.ELEMENT", "type": "Root Data Element"}, "self": {"href": "/mdr/sdtm/1-2/datasets/TA/variables/ELEMENT", "title": "Description of Element", "type": "SDTM Dataset Variable"}}, "description": "The name of the Element.", "label": "Description of Element", "name": "ELEMENT", "ordinal": "7", "simpleDatatype": "Char"}, {"_links": {"parentDataset": {"href": "/mdr/sdtm/1-2/datasets/TA", "title": "Trial Arms", "type": "SDTM Dataset"}, "parentProduct": {"href": "/mdr/sdtm/1-2", "title": "Study Data Tabulation Model Version 1.2", "type": "Foundational Model"}, "rootItem": {"href": "/mdr/root/sdtm/datasets/TA/variables/TABRANCH", "title": "Version-agnostic anchor resource for SDTM variable TA.TABRANCH", "type": "Root Data Element"}, "self": {"href": "/mdr/sdtm/1-2/datasets/TA/variables/TABRANCH", "title": "Branch", "type": "SDTM Dataset Variable"}}, "description": "Condition subjects meet, at a \"branch\" in the Trial Design at the end of this Element, to be included in this Arm. Example: Randomization to DRUG X.", "label": "Branch", "name": "TABRANCH", "ordinal": "8", "simpleDatatype": "Char"}, {"_links": {"parentDataset": {"href": "/mdr/sdtm/1-2/datasets/TA", "title": "Trial Arms", "type": "SDTM Dataset"}, "parentProduct": {"href": "/mdr/sdtm/1-2", "title": "Study Data Tabulation Model Version 1.2", "type": "Foundational Model"}, "rootItem": {"href": "/mdr/root/sdtm/datasets/TA/variables/TATRANS", "title": "Version-agnostic anchor resource for SDTM variable TA.TATRANS", "type": "Root Data Element"}, "self": {"href": "/mdr/sdtm/1-2/datasets/TA/variables/TATRANS", "title": "Transition Rule", "type": "SDTM Dataset Variable"}}, "description": "If the trial design allows a subject to transition to an Element other than the next Element in sequence, then the conditions for transitioning to those other Elements, and the alternative Element sequences, are specified in this rule (e.g., Responders go to washout).", "label": "Transition Rule", "name": "TATRANS", "ordinal": "9", "simpleDatatype": "Char"}, {"_links": {"parentDataset": {"href": "/mdr/sdtm/1-2/datasets/TA", "title": "Trial Arms", "type": "SDTM Dataset"}, "parentProduct": {"href": "/mdr/sdtm/1-2", "title": "Study Data Tabulation Model Version 1.2", "type": "Foundational Model"}, "rootItem": {"href": "/mdr/root/sdtm/datasets/TA/variables/EPOCH", "title": "Version-agnostic anchor resource for SDTM variable TA.EPOCH", "type": "Root Data Element"}, "self": {"href": "/mdr/sdtm/1-2/datasets/TA/variables/EPOCH", "title": "Epoch", "type": "SDTM Dataset Variable"}}, "description": "Name of the Trial Epoch with which this Element of the Arm is associated.", "label": "Epoch", "name": "EPOCH", "ordinal": "10", "simpleDatatype": "Char"}], "description": "A trial design domain that contains each planned arm in the trial. (Source: CDISC Controlled Terminology, DOMAIN, C49618, 2018-06-29)", "label": "Trial Arms", "name": "TA", "ordinal": "6"}, {"_links": {"parentClass": {"href": "/mdr/sdtm/1-2/classes/TrialDesign", "title": "Trial Design Model", "type": "Class"}, "parentProduct": {"href": "/mdr/sdtm/1-2", "title": "Study Data Tabulation Model Version 1.2", "type": "Foundational Model"}, "self": {"href": "/mdr/sdtm/1-2/datasets/TV", "title": "Trial Visits", "type": "SDTM Dataset"}}, "datasetStructure": "One Record per Planned Trial Visit", "datasetVariables": [{"_links": {"parentDataset": {"href": "/mdr/sdtm/1-2/datasets/TV", "title": "Trial Visits", "type": "SDTM Dataset"}, "parentProduct": {"href": "/mdr/sdtm/1-2", "title": "Study Data Tabulation Model Version 1.2", "type": "Foundational Model"}, "rootItem": {"href": "/mdr/root/sdtm/datasets/TV/variables/STUDYID", "title": "Version-agnostic anchor resource for SDTM variable TV.STUDYID", "type": "Root Data Element"}, "self": {"href": "/mdr/sdtm/1-2/datasets/TV/variables/STUDYID", "title": "Study Identifier", "type": "SDTM Dataset Variable"}}, "description": "Unique identifier for a study.", "label": "Study Identifier", "name": "STUDYID", "ordinal": "1", "simpleDatatype": "Char"}, {"_links": {"parentDataset": {"href": "/mdr/sdtm/1-2/datasets/TV", "title": "Trial Visits", "type": "SDTM Dataset"}, "parentProduct": {"href": "/mdr/sdtm/1-2", "title": "Study Data Tabulation Model Version 1.2", "type": "Foundational Model"}, "rootItem": {"href": "/mdr/root/sdtm/datasets/TV/variables/DOMAIN", "title": "Version-agnostic anchor resource for SDTM variable TV.DOMAIN", "type": "Root Data Element"}, "self": {"href": "/mdr/sdtm/1-2/datasets/TV/variables/DOMAIN", "title": "Domain Abbreviation", "type": "SDTM Dataset Variable"}}, "description": "Two-character abbreviation for the domain, which must be TV.", "label": "Domain Abbreviation", "name": "DOMAIN", "ordinal": "2", "simpleDatatype": "Char"}, {"_links": {"parentDataset": {"href": "/mdr/sdtm/1-2/datasets/TV", "title": "Trial Visits", "type": "SDTM Dataset"}, "parentProduct": {"href": "/mdr/sdtm/1-2", "title": "Study Data Tabulation Model Version 1.2", "type": "Foundational Model"}, "rootItem": {"href": "/mdr/root/sdtm/datasets/TV/variables/VISITNUM", "title": "Version-agnostic anchor resource for SDTM variable TV.VISITNUM", "type": "Root Data Element"}, "self": {"href": "/mdr/sdtm/1-2/datasets/TV/variables/VISITNUM", "title": "Visit Sequence Number", "type": "SDTM Dataset Variable"}}, "description": "Clinical encounter number. Numeric version of VISIT, can be used for sorting.", "label": "Visit Sequence Number", "name": "VISITNUM", "ordinal": "3", "simpleDatatype": "Num"}, {"_links": {"parentDataset": {"href": "/mdr/sdtm/1-2/datasets/TV", "title": "Trial Visits", "type": "SDTM Dataset"}, "parentProduct": {"href": "/mdr/sdtm/1-2", "title": "Study Data Tabulation Model Version 1.2", "type": "Foundational Model"}, "rootItem": {"href": "/mdr/root/sdtm/datasets/TV/variables/VISIT", "title": "Version-agnostic anchor resource for SDTM variable TV.VISIT", "type": "Root Data Element"}, "self": {"href": "/mdr/sdtm/1-2/datasets/TV/variables/VISIT", "title": "Visit Name", "type": "SDTM Dataset Variable"}}, "description": "Protocol-defined description of the clinical encounter. May be used in addition to VISITNUM and/or VISITDY as a text description of the clinical encounter.", "label": "Visit Name", "name": "VISIT", "ordinal": "4", "simpleDatatype": "Char"}, {"_links": {"parentDataset": {"href": "/mdr/sdtm/1-2/datasets/TV", "title": "Trial Visits", "type": "SDTM Dataset"}, "parentProduct": {"href": "/mdr/sdtm/1-2", "title": "Study Data Tabulation Model Version 1.2", "type": "Foundational Model"}, "rootItem": {"href": "/mdr/root/sdtm/datasets/TV/variables/VISITDY", "title": "Version-agnostic anchor resource for SDTM variable TV.VISITDY", "type": "Root Data Element"}, "self": {"href": "/mdr/sdtm/1-2/datasets/TV/variables/VISITDY", "title": "Planned Study Day of Visit", "type": "SDTM Dataset Variable"}}, "description": "Planned study day of VISIT. Due to its sequential nature, can be used for sorting.", "label": "Planned Study Day of Visit", "name": "VISITDY", "ordinal": "5", "simpleDatatype": "Num"}, {"_links": {"parentDataset": {"href": "/mdr/sdtm/1-2/datasets/TV", "title": "Trial Visits", "type": "SDTM Dataset"}, "parentProduct": {"href": "/mdr/sdtm/1-2", "title": "Study Data Tabulation Model Version 1.2", "type": "Foundational Model"}, "rootItem": {"href": "/mdr/root/sdtm/datasets/TV/variables/ARMCD", "title": "Version-agnostic anchor resource for SDTM variable TV.ARMCD", "type": "Root Data Element"}, "self": {"href": "/mdr/sdtm/1-2/datasets/TV/variables/ARMCD", "title": "Planned Arm Code", "type": "SDTM Dataset Variable"}}, "description": "ARMCD is limited to 20 characters and does not have special character restrictions. If the timing of visits for a trial does not depend on which ARM a subject is in, then ARMCD should be null.", "label": "Planned Arm Code", "name": "ARMCD", "ordinal": "6", "simpleDatatype": "Char"}, {"_links": {"parentDataset": {"href": "/mdr/sdtm/1-2/datasets/TV", "title": "Trial Visits", "type": "SDTM Dataset"}, "parentProduct": {"href": "/mdr/sdtm/1-2", "title": "Study Data Tabulation Model Version 1.2", "type": "Foundational Model"}, "rootItem": {"href": "/mdr/root/sdtm/datasets/TV/variables/ARM", "title": "Version-agnostic anchor resource for SDTM variable TV.ARM", "type": "Root Data Element"}, "self": {"href": "/mdr/sdtm/1-2/datasets/TV/variables/ARM", "title": "Description of Planned Arm", "type": "SDTM Dataset Variable"}}, "description": "Name given to Arm or treatment group.", "label": "Description of Planned Arm", "name": "ARM", "ordinal": "7", "simpleDatatype": "Char"}, {"_links": {"parentDataset": {"href": "/mdr/sdtm/1-2/datasets/TV", "title": "Trial Visits", "type": "SDTM Dataset"}, "parentProduct": {"href": "/mdr/sdtm/1-2", "title": "Study Data Tabulation Model Version 1.2", "type": "Foundational Model"}, "rootItem": {"href": "/mdr/root/sdtm/datasets/TV/variables/TVSTRL", "title": "Version-agnostic anchor resource for SDTM variable TV.TVSTRL", "type": "Root Data Element"}, "self": {"href": "/mdr/sdtm/1-2/datasets/TV/variables/TVSTRL", "title": "Visit Start Rule", "type": "SDTM Dataset Variable"}}, "description": "Rule describing when the visit starts, in relation to the sequence of Elements.", "label": "Visit Start Rule", "name": "TVSTRL", "ordinal": "8", "simpleDatatype": "Char"}, {"_links": {"parentDataset": {"href": "/mdr/sdtm/1-2/datasets/TV", "title": "Trial Visits", "type": "SDTM Dataset"}, "parentProduct": {"href": "/mdr/sdtm/1-2", "title": "Study Data Tabulation Model Version 1.2", "type": "Foundational Model"}, "rootItem": {"href": "/mdr/root/sdtm/datasets/TV/variables/TVENRL", "title": "Version-agnostic anchor resource for SDTM variable TV.TVENRL", "type": "Root Data Element"}, "self": {"href": "/mdr/sdtm/1-2/datasets/TV/variables/TVENRL", "title": "Visit End Rule", "type": "SDTM Dataset Variable"}}, "description": "Rule describing when the visit ends, in relation to the sequence of Elements.", "label": "Visit End Rule", "name": "TVENRL", "ordinal": "9", "simpleDatatype": "Char"}], "description": "A trial design domain that contains the planned order and number of visits in the study within each arm. (Source: CDISC Controlled Terminology, DOMAIN, C49621, 2018-06-29)", "label": "Trial Visits", "name": "TV", "ordinal": "7"}, {"_links": {"parentClass": {"href": "/mdr/sdtm/1-2/classes/TrialDesign", "title": "Trial Design Model", "type": "Class"}, "parentProduct": {"href": "/mdr/sdtm/1-2", "title": "Study Data Tabulation Model Version 1.2", "type": "Foundational Model"}, "self": {"href": "/mdr/sdtm/1-2/datasets/TI", "title": "Trial Inclusion/Exclusion", "type": "SDTM Dataset"}}, "datasetStructure": "One Record per Trial Inclusion or Exclusion Criterion", "datasetVariables": [{"_links": {"parentDataset": {"href": "/mdr/sdtm/1-2/datasets/TI", "title": "Trial Inclusion/Exclusion", "type": "SDTM Dataset"}, "parentProduct": {"href": "/mdr/sdtm/1-2", "title": "Study Data Tabulation Model Version 1.2", "type": "Foundational Model"}, "rootItem": {"href": "/mdr/root/sdtm/datasets/TI/variables/STUDYID", "title": "Version-agnostic anchor resource for SDTM variable TI.STUDYID", "type": "Root Data Element"}, "self": {"href": "/mdr/sdtm/1-2/datasets/TI/variables/STUDYID", "title": "Study Identifier", "type": "SDTM Dataset Variable"}}, "description": "Unique identifier for a study.", "label": "Study Identifier", "name": "STUDYID", "ordinal": "1", "simpleDatatype": "Char"}, {"_links": {"parentDataset": {"href": "/mdr/sdtm/1-2/datasets/TI", "title": "Trial Inclusion/Exclusion", "type": "SDTM Dataset"}, "parentProduct": {"href": "/mdr/sdtm/1-2", "title": "Study Data Tabulation Model Version 1.2", "type": "Foundational Model"}, "rootItem": {"href": "/mdr/root/sdtm/datasets/TI/variables/DOMAIN", "title": "Version-agnostic anchor resource for SDTM variable TI.DOMAIN", "type": "Root Data Element"}, "self": {"href": "/mdr/sdtm/1-2/datasets/TI/variables/DOMAIN", "title": "Domain Abbreviation", "type": "SDTM Dataset Variable"}}, "description": "Two-character abbreviation for the domain, which must be TI.", "label": "Domain Abbreviation", "name": "DOMAIN", "ordinal": "2", "simpleDatatype": "Char"}, {"_links": {"parentDataset": {"href": "/mdr/sdtm/1-2/datasets/TI", "title": "Trial Inclusion/Exclusion", "type": "SDTM Dataset"}, "parentProduct": {"href": "/mdr/sdtm/1-2", "title": "Study Data Tabulation Model Version 1.2", "type": "Foundational Model"}, "rootItem": {"href": "/mdr/root/sdtm/datasets/TI/variables/IETESTCD", "title": "Version-agnostic anchor resource for SDTM variable TI.IETESTCD", "type": "Root Data Element"}, "self": {"href": "/mdr/sdtm/1-2/datasets/TI/variables/IETESTCD", "title": "Inclusion/Exclusion Criterion Short Name", "type": "SDTM Dataset Variable"}}, "description": "Short name IETEST. It can be used as a column name when converting a dataset from a vertical to a horizontal format. The value in IETESTCD cannot be longer than 8 characters, nor can it start with a number (e.g., \"1TEST\"). IETESTCD cannot contain characters other than letters, numbers, or underscores. The name \"IE\" prefix is used to ensure consistency with the IE domain", "label": "Inclusion/Exclusion Criterion Short Name", "name": "IETESTCD", "ordinal": "3", "simpleDatatype": "Char"}, {"_links": {"parentDataset": {"href": "/mdr/sdtm/1-2/datasets/TI", "title": "Trial Inclusion/Exclusion", "type": "SDTM Dataset"}, "parentProduct": {"href": "/mdr/sdtm/1-2", "title": "Study Data Tabulation Model Version 1.2", "type": "Foundational Model"}, "rootItem": {"href": "/mdr/root/sdtm/datasets/TI/variables/IETEST", "title": "Version-agnostic anchor resource for SDTM variable TI.IETEST", "type": "Root Data Element"}, "self": {"href": "/mdr/sdtm/1-2/datasets/TI/variables/IETEST", "title": "Inclusion/Exclusion Criterion", "type": "SDTM Dataset Variable"}}, "description": "Full text of the inclusion or exclusion criterion. The prefix \"IE\" is used to ensure consistency with the IE domain.", "label": "Inclusion/Exclusion Criterion", "name": "IETEST", "ordinal": "4", "simpleDatatype": "Char"}, {"_links": {"parentDataset": {"href": "/mdr/sdtm/1-2/datasets/TI", "title": "Trial Inclusion/Exclusion", "type": "SDTM Dataset"}, "parentProduct": {"href": "/mdr/sdtm/1-2", "title": "Study Data Tabulation Model Version 1.2", "type": "Foundational Model"}, "rootItem": {"href": "/mdr/root/sdtm/datasets/TI/variables/IECAT", "title": "Version-agnostic anchor resource for SDTM variable TI.IECAT", "type": "Root Data Element"}, "self": {"href": "/mdr/sdtm/1-2/datasets/TI/variables/IECAT", "title": "Inclusion/Exclusion Category", "type": "SDTM Dataset Variable"}}, "description": "Used for categorization of the Inclusion/Exclusion Criterion: INCLUSION, EXCLUSION.", "label": "Inclusion/Exclusion Category", "name": "IECAT", "ordinal": "5", "simpleDatatype": "Char"}, {"_links": {"parentDataset": {"href": "/mdr/sdtm/1-2/datasets/TI", "title": "Trial Inclusion/Exclusion", "type": "SDTM Dataset"}, "parentProduct": {"href": "/mdr/sdtm/1-2", "title": "Study Data Tabulation Model Version 1.2", "type": "Foundational Model"}, "rootItem": {"href": "/mdr/root/sdtm/datasets/TI/variables/IESCAT", "title": "Version-agnostic anchor resource for SDTM variable TI.IESCAT", "type": "Root Data Element"}, "self": {"href": "/mdr/sdtm/1-2/datasets/TI/variables/IESCAT", "title": "Inclusion/Exclusion Subcategory", "type": "SDTM Dataset Variable"}}, "description": "A further categorization of the exception criterion. Can be used to distinguish criteria for a sub-study or for to categorize as a major or minor exceptions. Examples: MAJOR, MINOR.", "label": "Inclusion/Exclusion Subcategory", "name": "IESCAT", "ordinal": "6", "simpleDatatype": "Char"}, {"_links": {"parentDataset": {"href": "/mdr/sdtm/1-2/datasets/TI", "title": "Trial Inclusion/Exclusion", "type": "SDTM Dataset"}, "parentProduct": {"href": "/mdr/sdtm/1-2", "title": "Study Data Tabulation Model Version 1.2", "type": "Foundational Model"}, "rootItem": {"href": "/mdr/root/sdtm/datasets/TI/variables/TIRL", "title": "Version-agnostic anchor resource for SDTM variable TI.TIRL", "type": "Root Data Element"}, "self": {"href": "/mdr/sdtm/1-2/datasets/TI/variables/TIRL", "title": "Inclusion/Exclusion Criterion Rule", "type": "SDTM Dataset Variable"}}, "description": "Rule that expresses the inclusion/exclusion criterion.", "label": "Inclusion/Exclusion Criterion Rule", "name": "TIRL", "ordinal": "7", "simpleDatatype": "Char"}, {"_links": {"parentDataset": {"href": "/mdr/sdtm/1-2/datasets/TI", "title": "Trial Inclusion/Exclusion", "type": "SDTM Dataset"}, "parentProduct": {"href": "/mdr/sdtm/1-2", "title": "Study Data Tabulation Model Version 1.2", "type": "Foundational Model"}, "rootItem": {"href": "/mdr/root/sdtm/datasets/TI/variables/TIVERS", "title": "Version-agnostic anchor resource for SDTM variable TI.TIVERS", "type": "Root Data Element"}, "self": {"href": "/mdr/sdtm/1-2/datasets/TI/variables/TIVERS", "title": "Protocol Criteria Versions", "type": "SDTM Dataset Variable"}}, "description": "The number of this version of the Inclusion/Exclusion criteria. May be omitted if there is only one version.", "label": "Protocol Criteria Versions", "name": "TIVERS", "ordinal": "8", "simpleDatatype": "Char"}], "description": "A trial design domain that contains one record for each of the inclusion and exclusion criteria for the trial. This domain is not subject oriented. (Source: CDISC Controlled Terminology, DOMAIN, C49620, 2018-06-29)", "label": "Trial Inclusion/Exclusion", "name": "TI", "ordinal": "8"}, {"_links": {"parentClass": {"href": "/mdr/sdtm/1-2/classes/TrialDesign", "title": "Trial Design Model", "type": "Class"}, "parentProduct": {"href": "/mdr/sdtm/1-2", "title": "Study Data Tabulation Model Version 1.2", "type": "Foundational Model"}, "self": {"href": "/mdr/sdtm/1-2/datasets/TS", "title": "Trial Summary", "type": "SDTM Dataset"}}, "datasetStructure": "One Record per Trial Summary Parameter", "datasetVariables": [{"_links": {"parentDataset": {"href": "/mdr/sdtm/1-2/datasets/TS", "title": "Trial Summary", "type": "SDTM Dataset"}, "parentProduct": {"href": "/mdr/sdtm/1-2", "title": "Study Data Tabulation Model Version 1.2", "type": "Foundational Model"}, "rootItem": {"href": "/mdr/root/sdtm/datasets/TS/variables/STUDYID", "title": "Version-agnostic anchor resource for SDTM variable TS.STUDYID", "type": "Root Data Element"}, "self": {"href": "/mdr/sdtm/1-2/datasets/TS/variables/STUDYID", "title": "Study Identifier", "type": "SDTM Dataset Variable"}}, "description": "Unique identifier for a study.", "label": "Study Identifier", "name": "STUDYID", "ordinal": "1", "simpleDatatype": "Char"}, {"_links": {"parentDataset": {"href": "/mdr/sdtm/1-2/datasets/TS", "title": "Trial Summary", "type": "SDTM Dataset"}, "parentProduct": {"href": "/mdr/sdtm/1-2", "title": "Study Data Tabulation Model Version 1.2", "type": "Foundational Model"}, "rootItem": {"href": "/mdr/root/sdtm/datasets/TS/variables/DOMAIN", "title": "Version-agnostic anchor resource for SDTM variable TS.DOMAIN", "type": "Root Data Element"}, "self": {"href": "/mdr/sdtm/1-2/datasets/TS/variables/DOMAIN", "title": "Domain Abbreviation", "type": "SDTM Dataset Variable"}}, "description": "Two-character abbreviation for the domain, which must be TS.", "label": "Domain Abbreviation", "name": "DOMAIN", "ordinal": "2", "simpleDatatype": "Char"}, {"_links": {"parentDataset": {"href": "/mdr/sdtm/1-2/datasets/TS", "title": "Trial Summary", "type": "SDTM Dataset"}, "parentProduct": {"href": "/mdr/sdtm/1-2", "title": "Study Data Tabulation Model Version 1.2", "type": "Foundational Model"}, "rootItem": {"href": "/mdr/root/sdtm/datasets/TS/variables/TSSEQ", "title": "Version-agnostic anchor resource for SDTM variable TS.TSSEQ", "type": "Root Data Element"}, "self": {"href": "/mdr/sdtm/1-2/datasets/TS/variables/TSSEQ", "title": "Sequence Number", "type": "SDTM Dataset Variable"}}, "description": "Sequence number to ensure uniqueness within the dataset.", "label": "Sequence Number", "name": "TSSEQ", "ordinal": "3", "simpleDatatype": "Num"}, {"_links": {"parentDataset": {"href": "/mdr/sdtm/1-2/datasets/TS", "title": "Trial Summary", "type": "SDTM Dataset"}, "parentProduct": {"href": "/mdr/sdtm/1-2", "title": "Study Data Tabulation Model Version 1.2", "type": "Foundational Model"}, "rootItem": {"href": "/mdr/root/sdtm/datasets/TS/variables/TSGRPID", "title": "Version-agnostic anchor resource for SDTM variable TS.TSGRPID", "type": "Root Data Element"}, "self": {"href": "/mdr/sdtm/1-2/datasets/TS/variables/TSGRPID", "title": "Group ID", "type": "SDTM Dataset Variable"}}, "description": "Used to tie together a group of related records.", "label": "Group ID", "name": "TSGRPID", "ordinal": "4", "simpleDatatype": "Char"}, {"_links": {"parentDataset": {"href": "/mdr/sdtm/1-2/datasets/TS", "title": "Trial Summary", "type": "SDTM Dataset"}, "parentProduct": {"href": "/mdr/sdtm/1-2", "title": "Study Data Tabulation Model Version 1.2", "type": "Foundational Model"}, "rootItem": {"href": "/mdr/root/sdtm/datasets/TS/variables/TSPARMCD", "title": "Version-agnostic anchor resource for SDTM variable TS.TSPARMCD", "type": "Root Data Element"}, "self": {"href": "/mdr/sdtm/1-2/datasets/TS/variables/TSPARMCD", "title": "Trial Summary Parameter Short Name", "type": "SDTM Dataset Variable"}}, "description": "TSPARMCD (the companion to TSPARM) is limited to 8 characters and does not have special character restrictions. These values should be short for ease of use in programming, but it is not expected that TSPARMCD will need to serve as variable names. Examples: AGEMIN, AGEMAX", "label": "Trial Summary Parameter Short Name", "name": "TSPARMCD", "ordinal": "5", "simpleDatatype": "Char"}, {"_links": {"parentDataset": {"href": "/mdr/sdtm/1-2/datasets/TS", "title": "Trial Summary", "type": "SDTM Dataset"}, "parentProduct": {"href": "/mdr/sdtm/1-2", "title": "Study Data Tabulation Model Version 1.2", "type": "Foundational Model"}, "rootItem": {"href": "/mdr/root/sdtm/datasets/TS/variables/TSPARM", "title": "Version-agnostic anchor resource for SDTM variable TS.TSPARM", "type": "Root Data Element"}, "self": {"href": "/mdr/sdtm/1-2/datasets/TS/variables/TSPARM", "title": "Trial Summary Parameter", "type": "SDTM Dataset Variable"}}, "description": "Term for the Trial Summary Parameter. The value in TSPARM cannot be longer than 40 characters. Examples Planned Minimum Age of Subjects, Planned Maximum Age of Subjects", "label": "Trial Summary Parameter", "name": "TSPARM", "ordinal": "6", "simpleDatatype": "Char"}, {"_links": {"parentDataset": {"href": "/mdr/sdtm/1-2/datasets/TS", "title": "Trial Summary", "type": "SDTM Dataset"}, "parentProduct": {"href": "/mdr/sdtm/1-2", "title": "Study Data Tabulation Model Version 1.2", "type": "Foundational Model"}, "rootItem": {"href": "/mdr/root/sdtm/datasets/TS/variables/TSVAL", "title": "Version-agnostic anchor resource for SDTM variable TS.TSVAL", "type": "Root Data Element"}, "self": {"href": "/mdr/sdtm/1-2/datasets/TS/variables/TSVAL", "title": "Parameter Value", "type": "SDTM Dataset Variable"}}, "description": "Value of TSPARM. Example: \"ASTHMA\" when TSPARM value is \"Trial Indications\". TSVAL cannot be null; a value is required for the record to be valid. Text over 200 characters can be added to additional columns TSVAL1-TSVALn.", "label": "Parameter Value", "name": "TSVAL", "ordinal": "7", "simpleDatatype": "Char"}], "description": "A trial design domain that contains one record for each trial summary characteristic. This domain is not subject oriented. (Source: CDISC Controlled Terminology, DOMAIN, C53483, 2018-06-29)", "label": "Trial Summary", "name": "TS", "ordinal": "9"}], "description": "This SDTM class describes the plan for the procedures to be followed in a clinical trial, including planned and actual timing of events, control group, method of allocating treatments, blinding methods, assignment of epochs that subjects pass through in the course of a trial. (Source: CDISC Controlled Terminology, GNRLOBSC, C103379, 2018-06-29)", "label": "Trial Design Model", "name": "Trial Design", "ordinal": "7"}
