{"_links": {"parentClass": {"href": "/mdr/cdashig/2-0/classes/Findings", "title": "Findings Observation Class", "type": "Class"}, "parentProduct": {"href": "/mdr/cdashig/2-0", "title": "Clinical Data Acquisition Standards Harmonization Implementation Guide for Human Clinical Trials Version 2.0", "type": "Implementation Guide"}, "priorVersion": {"href": "/mdr/cdashig/1-1-1/domains/DA", "title": "Drug Accountability", "type": "CDASH Domain"}, "scenarios": [{"href": "/mdr/cdashig/2-0/scenarios/DA.Denormalized", "title": "DA - Denormalized - Implementation Options: Horizontal-Example", "type": "CDASH Scenario"}, {"href": "/mdr/cdashig/2-0/scenarios/DA.HorizontalGeneric", "title": "DA - Implementation Options: Horizontal-Generic", "type": "CDASH Scenario"}], "self": {"href": "/mdr/cdashig/2-0/domains/DA", "title": "Drug Accountability", "type": "CDASH Domain"}}, "fields": [{"_links": {"implements": {"href": "/mdr/cdash/1-0/classes/Identifiers/fields/STUDYID", "title": "Study Identifier", "type": "Class Variable"}, "parentDomain": {"href": "/mdr/cdashig/2-0/domains/DA", "title": "Drug Accountability", "type": "CDASH Domain"}, "parentProduct": {"href": "/mdr/cdashig/2-0", "title": "Clinical Data Acquisition Standards Harmonization Implementation Guide for Human Clinical Trials Version 2.0", "type": "Implementation Guide"}, "priorVersion": {"href": "/mdr/cdashig/1-1-1/domains/DA/fields/STUDYID", "type": "Data Collection Field"}, "rootItem": {"href": "/mdr/root/cdashig/domains/DA/fields/STUDYID", "title": "Version-agnostic anchor element for field DA.STUDYID", "type": "Root Data Element"}, "sdtmigDatasetMappingTargets": [{"href": "/mdr/sdtmig/3-2/datasets/DA/variables/STUDYID", "title": "Study Identifier", "type": "SDTM Dataset Variable"}], "self": {"href": "/mdr/cdashig/2-0/domains/DA/fields/STUDYID", "title": "Study Identifier", "type": "Data Collection Field"}}, "core": "HR", "definition": "A unique identifier for a study.", "implementationNotes": "While this field is not typically captured on a CRF, it should be displayed clearly on the CRF and/or the EDC system. This field can be included into the database or populated during SDTM-based dataset creation before submission.", "label": "Study Identifier", "mappingInstructions": "Maps directly to the SDTMIG variable listed in the column with the heading \"SDTMIG Target\".", "name": "STUDYID", "ordinal": "1", "prompt": "[Protocol/Study]", "questionText": "What is the study identifier?", "simpleDatatype": "Char"}, {"_links": {"implements": {"href": "/mdr/cdash/1-0/domains/DM/fields/SITEID", "title": "Study Site Identifier", "type": "Data Collection Field"}, "parentDomain": {"href": "/mdr/cdashig/2-0/domains/DA", "title": "Drug Accountability", "type": "CDASH Domain"}, "parentProduct": {"href": "/mdr/cdashig/2-0", "title": "Clinical Data Acquisition Standards Harmonization Implementation Guide for Human Clinical Trials Version 2.0", "type": "Implementation Guide"}, "priorVersion": {"href": "/mdr/cdashig/1-1-1/domains/DA/fields/SITEID", "type": "Data Collection Field"}, "rootItem": {"href": "/mdr/root/cdashig/domains/DA/fields/SITEID", "title": "Version-agnostic anchor element for field DA.SITEID", "type": "Root Data Element"}, "sdtmigDatasetMappingTargets": [{"href": "/mdr/sdtmig/3-2/datasets/DM/variables/SITEID", "title": "Study Site Identifier", "type": "SDTM Dataset Variable"}], "self": {"href": "/mdr/cdashig/2-0/domains/DA/fields/SITEID", "title": "Study Site Identifier", "type": "Data Collection Field"}}, "core": "HR", "definition": "A unique identifier for a site within a study.", "implementationNotes": "Paper: This is typically preprinted in the header of each CRF page for single site studies. For studies with multiple sites, this field may be left blank so that the number can be recorded by the site, or it may be preprinted for the CRFs that are shipped to each site. EDC: This should be prepopulated.", "label": "Study Site Identifier", "mappingInstructions": "Maps directly to the SDTMIG variable listed in the column with the heading \"SDTMIG Target\".", "name": "SITEID", "ordinal": "2", "prompt": "Site (Identifier)", "questionText": "What is the site identifier?", "simpleDatatype": "Char"}, {"_links": {"implements": {"href": "/mdr/cdash/1-0/classes/Identifiers/fields/SUBJID", "title": "Subject Identifier for the Study", "type": "Class Variable"}, "parentDomain": {"href": "/mdr/cdashig/2-0/domains/DA", "title": "Drug Accountability", "type": "CDASH Domain"}, "parentProduct": {"href": "/mdr/cdashig/2-0", "title": "Clinical Data Acquisition Standards Harmonization Implementation Guide for Human Clinical Trials Version 2.0", "type": "Implementation Guide"}, "priorVersion": {"href": "/mdr/cdashig/1-1-1/domains/DA/fields/SUBJID", "type": "Data Collection Field"}, "rootItem": {"href": "/mdr/root/cdashig/domains/DA/fields/SUBJID", "title": "Version-agnostic anchor element for field DA.SUBJID", "type": "Root Data Element"}, "sdtmigDatasetMappingTargets": [{"href": "/mdr/sdtmig/3-2/datasets/DM/variables/SUBJID", "title": "Subject Identifier for the Study", "type": "SDTM Dataset Variable"}], "self": {"href": "/mdr/cdashig/2-0/domains/DA/fields/SUBJID", "title": "Subject Identifier for the Study", "type": "Data Collection Field"}}, "completionInstructions": "Record the identifier for the subject.", "core": "HR", "definition": "A unique subject identifier within a site and a study.", "implementationNotes": "Paper: This is typically recorded in the header of each CRF page. EDC: The subject identifiers may be provided to the site using a pre-populated list in the system. This CDASH variable is typically collected in all CDASH domains. However, this CDASH variable is populated only in the SDTMIG DM domain. For more information, refer to Study Data Tabulation Model.", "label": "Subject Identifier for the Study", "mappingInstructions": "Maps directly to the SDTMIG variable listed in the column with the heading \"SDTMIG Target\".", "name": "SUBJID", "ordinal": "3", "prompt": "Subject", "questionText": "What is the subject identifier?", "simpleDatatype": "Char"}, {"_links": {"implements": {"href": "/mdr/cdash/1-0/classes/Timing/fields/VISIT", "title": "Visit Name", "type": "Class Variable"}, "parentDomain": {"href": "/mdr/cdashig/2-0/domains/DA", "title": "Drug Accountability", "type": "CDASH Domain"}, "parentProduct": {"href": "/mdr/cdashig/2-0", "title": "Clinical Data Acquisition Standards Harmonization Implementation Guide for Human Clinical Trials Version 2.0", "type": "Implementation Guide"}, "priorVersion": {"href": "/mdr/cdashig/1-1-1/domains/DA/fields/VISIT", "type": "Data Collection Field"}, "rootItem": {"href": "/mdr/root/cdashig/domains/DA/fields/VISIT", "title": "Version-agnostic anchor element for field DA.VISIT", "type": "Root Data Element"}, "sdtmigDatasetMappingTargets": [{"href": "/mdr/sdtmig/3-2/datasets/DA/variables/VISIT", "title": "Visit Name", "type": "SDTM Dataset Variable"}], "self": {"href": "/mdr/cdashig/2-0/domains/DA/fields/VISIT", "title": "Visit Name", "type": "Data Collection Field"}}, "core": "R/C", "definition": "The name of a clinical encounter that encompasses planned and unplanned trial interventions, procedures, and assessments that may be performed on a subject.", "implementationNotes": "This CDASH variable is typically collected in all CDASH domains. However, this CDASH variable is represented only in the SDTMIG DM domain.. For more information, refer to Study Data Tabulation Model, Table 2.2.4.", "label": "Visit Name", "mappingInstructions": "Maps directly to the SDTMIG variable listed in the column with the heading \"SDTMIG Target\".", "name": "VISIT", "ordinal": "4", "prompt": "[Visit]", "questionText": "What is the visit name?", "simpleDatatype": "Char"}, {"_links": {"implements": {"href": "/mdr/cdash/1-0/classes/Timing/fields/VISDAT", "title": "Visit Date", "type": "Class Variable"}, "parentDomain": {"href": "/mdr/cdashig/2-0/domains/DA", "title": "Drug Accountability", "type": "CDASH Domain"}, "parentProduct": {"href": "/mdr/cdashig/2-0", "title": "Clinical Data Acquisition Standards Harmonization Implementation Guide for Human Clinical Trials Version 2.0", "type": "Implementation Guide"}, "priorVersion": {"href": "/mdr/cdashig/1-1-1/domains/DA/fields/VISDAT", "type": "Data Collection Field"}, "rootItem": {"href": "/mdr/root/cdashig/domains/DA/fields/VISDAT", "title": "Version-agnostic anchor element for field DA.VISDAT", "type": "Root Data Element"}, "self": {"href": "/mdr/cdashig/2-0/domains/DA/fields/VISDAT", "title": "Visit Date", "type": "Data Collection Field"}}, "completionInstructions": "Record the [date/start date] of the visit using DD-MON-YYYY format.", "core": "R/C", "definition": "Date the clinical encounter occurred (or started).", "implementationNotes": "The date the drug accountability assessments were collected can be determined from the Visit Date variable (VISDAT) and applying that date to all of the observations at that visit, or the collection date can be included on the Drug Accountability CRF using the date (DADAT) field.", "label": "Visit Date", "mappingInstructions": "This field is not an SDTM variable. The date of a measurement, test, observation can be determined from the date/time of visit (VISDAT/VISTIM) and then concatenating the CDASH VISDAT/VISTIM components and populating the SDTMIG variable DADTC in ISO 8601 format.", "name": "VISDAT", "ordinal": "5", "prompt": "Visit Date", "questionText": "What [is/was] the date of the visit?", "simpleDatatype": "Char"}, {"_links": {"codelist": [{"href": "/mdr/root/ct/sdtmct/codelists/C66742", "title": "Version-agnostic anchor resource for codelist C66742", "type": "Root Value Domain"}], "implements": {"href": "/mdr/cdash/1-0/classes/Findings/fields/--PERF", "title": "[Observation] Performed", "type": "Class Variable"}, "parentDomain": {"href": "/mdr/cdashig/2-0/domains/DA", "title": "Drug Accountability", "type": "CDASH Domain"}, "parentProduct": {"href": "/mdr/cdashig/2-0", "title": "Clinical Data Acquisition Standards Harmonization Implementation Guide for Human Clinical Trials Version 2.0", "type": "Implementation Guide"}, "priorVersion": {"href": "/mdr/cdashig/1-1-1/domains/DA/fields/DAPERF", "type": "Data Collection Field"}, "rootItem": {"href": "/mdr/root/cdashig/domains/DA/fields/DAPERF", "title": "Version-agnostic anchor element for field DA.DAPERF", "type": "Root Data Element"}, "sdtmigDatasetMappingTargets": [{"href": "/mdr/sdtmig/3-2/datasets/DA/variables/DASTAT", "title": "Completion Status", "type": "SDTM Dataset Variable"}], "self": {"href": "/mdr/cdashig/2-0/domains/DA/fields/DAPERF", "title": "Drug Accountability Performed", "type": "Data Collection Field"}}, "completionInstructions": "Indicate whether or not drug accountability was done performed.", "core": "O", "definition": "An indication whether or not a planned drug accountability assessment was performed.", "implementationNotes": "This may be implemented on a CRF page level on a visit-by-visit basis. General prompt question to be used as a data management tool to verify that missing results are confirmed missing.", "label": "Drug Accountability Performed", "mappingInstructions": "This does not map directly to an SDTMIG variable. May be used to derive a value into the SDTMIG variable DASTAT. If DAPERF = \"N\", the value of DASTAT will be \"NOT DONE\". If DAPERF = \"Y\", DASTAT should be null. A combination of SDTMIG variables ( e.g., DACAT and DASCAT, DATPT ) is used to indicate that multiple tests were not done. In this situation, the SDTMIG variable DATESTCD would be populated as DAALL and an appropriate test name (DATEST) provided. See SDTMIG Section 4.1.5.1.2.", "name": "DAPERF", "ordinal": "6", "prompt": "Drug Accountability Performed", "questionText": "Was drug accountability performed?", "simpleDatatype": "Char"}, {"_links": {"implements": {"href": "/mdr/cdash/1-0/classes/Findings/fields/--CAT", "title": "Category", "type": "Class Variable"}, "parentDomain": {"href": "/mdr/cdashig/2-0/domains/DA", "title": "Drug Accountability", "type": "CDASH Domain"}, "parentProduct": {"href": "/mdr/cdashig/2-0", "title": "Clinical Data Acquisition Standards Harmonization Implementation Guide for Human Clinical Trials Version 2.0", "type": "Implementation Guide"}, "priorVersion": {"href": "/mdr/cdashig/1-1-1/domains/DA/fields/DACAT", "type": "Data Collection Field"}, "rootItem": {"href": "/mdr/root/cdashig/domains/DA/fields/DACAT", "title": "Version-agnostic anchor element for field DA.DACAT", "type": "Root Data Element"}, "sdtmigDatasetMappingTargets": [{"href": "/mdr/sdtmig/3-2/datasets/DA/variables/DACAT", "title": "Category of Assessment", "type": "SDTM Dataset Variable"}], "self": {"href": "/mdr/cdashig/2-0/domains/DA/fields/DACAT", "title": "Category of Drug Accountability Assessment", "type": "Data Collection Field"}}, "completionInstructions": "Record the type of treatment dispensed/returned.", "core": "O", "definition": "A grouping of topic-variable values based on user defined characteristics.", "implementationNotes": "Sponsor-defined Controlled Terminology. This would most commonly be pre-printed on the CRF or screen and pre-populated in the data management system. This is not typically a question to which the site would provide an answer. If the protocol allows dispensing different types of treatment (e.g., study medication, rescue medication, run-in medication) the CRF can capture the type of treatment using DACAT. This may be pre-printed on the CRF. If DACAT is not collected (e.g., it is self-evident from the protocol design), it can be populated during the SDTM-based dataset creation process. See SDTMIG V3.2 DA domain for examples on populating DACAT and DASCAT.", "label": "Category of Drug Accountability Assessment", "mappingInstructions": "Maps directly to the SDTMIG variable listed in the column with the heading \"SDTMIG Target\".", "name": "DACAT", "ordinal": "7", "prompt": "[Treatment Type]; NULL", "questionText": "What was the type of treatment for which drug accountability was assessed?", "simpleDatatype": "Char"}, {"_links": {"implements": {"href": "/mdr/cdash/1-0/classes/Findings/fields/--SCAT", "title": "Subcategory", "type": "Class Variable"}, "parentDomain": {"href": "/mdr/cdashig/2-0/domains/DA", "title": "Drug Accountability", "type": "CDASH Domain"}, "parentProduct": {"href": "/mdr/cdashig/2-0", "title": "Clinical Data Acquisition Standards Harmonization Implementation Guide for Human Clinical Trials Version 2.0", "type": "Implementation Guide"}, "priorVersion": {"href": "/mdr/cdashig/1-1-1/domains/DA/fields/DASCAT", "type": "Data Collection Field"}, "rootItem": {"href": "/mdr/root/cdashig/domains/DA/fields/DASCAT", "title": "Version-agnostic anchor element for field DA.DASCAT", "type": "Root Data Element"}, "sdtmigDatasetMappingTargets": [{"href": "/mdr/sdtmig/3-2/datasets/DA/variables/DASCAT", "title": "Subcategory of Assessment", "type": "SDTM Dataset Variable"}], "self": {"href": "/mdr/cdashig/2-0/domains/DA/fields/DASCAT", "title": "Subcategory of Drug Accountability Assessment", "type": "Data Collection Field"}}, "completionInstructions": "Record the name of the study treatment dispensed/returned (e.g., Bottle A, Bottle B).", "core": "O", "definition": "A sub-division of the DACAT values based on user defined characteristics.", "implementationNotes": "Sponsor-defined Controlled Terminology. This would most commonly be pre-printed on the CRF or screen and pre-populated in the data management system. This is not typically a question to which the site would provide an answer. If it is known at the time of data collection, the treatment name may be collected in DASCAT (with appropriate, but different than DACAT, grouping values). See SDTMIG V3.2 DA domain for examples on populating DACAT and DASCAT. DASCAT can only be used if there is an DACAT and it must be a subcategorization of DACAT.", "label": "Subcategory of Drug Accountability Assessment", "mappingInstructions": "Maps directly to the SDTMIG variable listed in the column with the heading \"SDTMIG Target\".", "name": "DASCAT", "ordinal": "8", "prompt": "[Treatment Name]; NULL", "questionText": "What was the name of the treatment for which drug accountability was assessed?", "simpleDatatype": "Char"}, {"_links": {"implements": {"href": "/mdr/cdash/1-0/classes/Timing/fields/--DAT", "title": "Date of Collection", "type": "Class Variable"}, "parentDomain": {"href": "/mdr/cdashig/2-0/domains/DA", "title": "Drug Accountability", "type": "CDASH Domain"}, "parentProduct": {"href": "/mdr/cdashig/2-0", "title": "Clinical Data Acquisition Standards Harmonization Implementation Guide for Human Clinical Trials Version 2.0", "type": "Implementation Guide"}, "priorVersion": {"href": "/mdr/cdashig/1-1-1/domains/DA/fields/DADAT", "type": "Data Collection Field"}, "rootItem": {"href": "/mdr/root/cdashig/domains/DA/fields/DADAT", "title": "Version-agnostic anchor element for field DA.DADAT", "type": "Root Data Element"}, "sdtmigDatasetMappingTargets": [{"href": "/mdr/sdtmig/3-2/datasets/DA/variables/DADTC", "title": "Date/Time of Accountability Assessment", "type": "SDTM Dataset Variable"}], "self": {"href": "/mdr/cdashig/2-0/domains/DA/fields/DADAT", "title": "Drug Accountability", "type": "Data Collection Field"}}, "completionInstructions": "Record the exact date the study treatment was (dispensed or returned), using this format (DD-MON-YYYY).", "core": "R/C", "definition": "The date the study treatment was dispensed or returned represented in an unambiguous date format (e.g., DD-MON-YYYY).", "implementationNotes": "The date study treatment dispensed/returned should be recorded for each dispensation for a study with multiple periods or multiple products dispensed.", "label": "Drug Accountability", "mappingInstructions": "This does not map directly to an SDTMIG variable. For the SDTM submission dataset, concatenate all collected CDASH DATE and TIME components and populate the SDTMIG variable DADTC in ISO 8601 format.", "name": "DADAT", "ordinal": "9", "prompt": "Date", "questionText": "What was the date the drug accountability assessment was performed?", "simpleDatatype": "Char"}, {"_links": {"implements": {"href": "/mdr/cdash/1-0/classes/Identifiers/fields/--REFID", "title": "Reference ID", "type": "Class Variable"}, "parentDomain": {"href": "/mdr/cdashig/2-0/domains/DA", "title": "Drug Accountability", "type": "CDASH Domain"}, "parentProduct": {"href": "/mdr/cdashig/2-0", "title": "Clinical Data Acquisition Standards Harmonization Implementation Guide for Human Clinical Trials Version 2.0", "type": "Implementation Guide"}, "priorVersion": {"href": "/mdr/cdashig/1-1-1/domains/DA/fields/DAREFID", "type": "Data Collection Field"}, "rootItem": {"href": "/mdr/root/cdashig/domains/DA/fields/DAREFID", "title": "Version-agnostic anchor element for field DA.DAREFID", "type": "Root Data Element"}, "sdtmigDatasetMappingTargets": [{"href": "/mdr/sdtmig/3-2/datasets/DA/variables/DAREFID", "title": "Reference ID", "type": "SDTM Dataset Variable"}], "self": {"href": "/mdr/cdashig/2-0/domains/DA/fields/DAREFID", "title": "Drug Accountability Reference ID", "type": "Data Collection Field"}}, "completionInstructions": "Record treatment label identifier.", "core": "O", "definition": "An internal or external identifier such as treatment label identifier (e.g., kit number, bottle label, vial identifier).", "implementationNotes": "For the SDTM submission dataset, DAREFID should be used to tie together a block of related records and to link dispensed product to returned product. This packaging identifier (e.g., kit number, bottle label, vial identifier) may be collected in different ways (e.g., affixing label onto CRF or scanning a bar code). For some study dosing regimens, greater granularity for treatment identifiers may be needed. In this situation, sponsors may need to use additional identifier variables.", "label": "Drug Accountability Reference ID", "mappingInstructions": "Maps directly to the SDTMIG variable listed in the column with the heading \"SDTMIG Target\".", "name": "DAREFID", "ordinal": "10", "prompt": "Treatment Label Identifier", "questionText": "What was the treatment label identifier?", "simpleDatatype": "Char"}, {"_links": {"codelist": [{"href": "/mdr/root/ct/sdtmct/codelists/C78731", "title": "Version-agnostic anchor resource for codelist C78731", "type": "Root Value Domain"}], "implements": {"href": "/mdr/cdash/1-0/classes/Findings/fields/--TEST", "title": "Name of Measurement, Test or Examination", "type": "Class Variable"}, "parentDomain": {"href": "/mdr/cdashig/2-0/domains/DA", "title": "Drug Accountability", "type": "CDASH Domain"}, "parentProduct": {"href": "/mdr/cdashig/2-0", "title": "Clinical Data Acquisition Standards Harmonization Implementation Guide for Human Clinical Trials Version 2.0", "type": "Implementation Guide"}, "priorVersion": {"href": "/mdr/cdashig/1-1-1/domains/DA/fields/DATEST", "type": "Data Collection Field"}, "rootItem": {"href": "/mdr/root/cdashig/domains/DA/fields/DATEST", "title": "Version-agnostic anchor element for field DA.DATEST", "type": "Root Data Element"}, "sdtmigDatasetMappingTargets": [{"href": "/mdr/sdtmig/3-2/datasets/DA/variables/DATEST", "title": "Name of Accountability Assessment", "type": "SDTM Dataset Variable"}, {"href": "/mdr/sdtmig/3-2/datasets/DA/variables/DATESTCD", "title": "Short Name of Accountability Assessment", "type": "SDTM Dataset Variable"}], "self": {"href": "/mdr/cdashig/2-0/domains/DA/fields/DATEST", "title": "Name of Accountability Assessment", "type": "Data Collection Field"}}, "completionInstructions": "Record the name of the drug accountability assessment if not pre-specified on the CRF. If collected on the CRF, the sponsor may provide additional instructions to ensure the data is entered as intended.", "core": "HR", "definition": "Descriptive name of the measurement or finding (e.g., dispensed, returned).", "implementationNotes": "Required to identify which test the result is for. It is recommended that the test names be pre-printed on the CRF rather than collected in a field that requires the site to enter text. If the form is laid out as a grid, then words such as Test can be included as the column header. For a study with multiple periods or multiple products dispensed, drug accountability amounts should be assessed for each dispensation.", "label": "Name of Accountability Assessment", "mappingInstructions": "Maps directly to the SDTMIG variable listed in the column with the heading \"SDTMIG Target\". The SDTMIG variable DATESTCD may be determined from the value collected in the CDASH field DATEST. The SDTMIG variables DATESTCD and DATEST are required in the SDTM submission datasets. Use appropriate CDISC Controlled Terminology for the test and test code.", "name": "DATEST", "ordinal": "11", "prompt": "Drug Accountability [Test Name]", "questionText": "What was the drug accountability being assessed?", "simpleDatatype": "Char"}, {"_links": {"implements": {"href": "/mdr/cdash/1-0/classes/Findings/fields/--ORRES", "title": "Result of Finding in Original Unit", "type": "Class Variable"}, "parentDomain": {"href": "/mdr/cdashig/2-0/domains/DA", "title": "Drug Accountability", "type": "CDASH Domain"}, "parentProduct": {"href": "/mdr/cdashig/2-0", "title": "Clinical Data Acquisition Standards Harmonization Implementation Guide for Human Clinical Trials Version 2.0", "type": "Implementation Guide"}, "priorVersion": {"href": "/mdr/cdashig/1-1-1/domains/DA/fields/DAORRES", "type": "Data Collection Field"}, "rootItem": {"href": "/mdr/root/cdashig/domains/DA/fields/DAORRES", "title": "Version-agnostic anchor element for field DA.DAORRES", "type": "Root Data Element"}, "sdtmigDatasetMappingTargets": [{"href": "/mdr/sdtmig/3-2/datasets/DA/variables/DAORRES", "title": "Assessment Result in Original Units", "type": "SDTM Dataset Variable"}], "self": {"href": "/mdr/cdashig/2-0/domains/DA/fields/DAORRES", "title": "Drug Accountability Result", "type": "Data Collection Field"}}, "completionInstructions": "Record the actual amount of treatment dispensed or returned.", "core": "HR", "definition": "Result of the drug accountability assessment as originally dispensed or returned (e.g., actual amount).", "implementationNotes": "For a study with multiple periods or multiple products dispensed, drug accountability amounts should be assessed for each dispensation.", "label": "Drug Accountability Result", "mappingInstructions": "Maps directly to the SDTMIG variable listed in the column with the heading \"SDTMIG Target\".", "name": "DAORRES", "ordinal": "12", "prompt": "Amount", "questionText": "What is the result of the drug accountability assessment?", "simpleDatatype": "Char"}, {"_links": {"codelist": [{"href": "/mdr/root/ct/sdtmct/codelists/C71620", "title": "Version-agnostic anchor resource for codelist C71620", "type": "Root Value Domain"}, {"href": "/mdr/root/ct/cdashct/codelists/C78421", "title": "Version-agnostic anchor resource for codelist C78421", "type": "Root Value Domain"}], "implements": {"href": "/mdr/cdash/1-0/classes/Findings/fields/--ORRESU", "title": "Original Unit", "type": "Class Variable"}, "parentDomain": {"href": "/mdr/cdashig/2-0/domains/DA", "title": "Drug Accountability", "type": "CDASH Domain"}, "parentProduct": {"href": "/mdr/cdashig/2-0", "title": "Clinical Data Acquisition Standards Harmonization Implementation Guide for Human Clinical Trials Version 2.0", "type": "Implementation Guide"}, "priorVersion": {"href": "/mdr/cdashig/1-1-1/domains/DA/fields/DAORRESU", "type": "Data Collection Field"}, "rootItem": {"href": "/mdr/root/cdashig/domains/DA/fields/DAORRESU", "title": "Version-agnostic anchor element for field DA.DAORRESU", "type": "Root Data Element"}, "sdtmigDatasetMappingTargets": [{"href": "/mdr/sdtmig/3-2/datasets/DA/variables/DAORRESU", "title": "Original Units", "type": "SDTM Dataset Variable"}], "self": {"href": "/mdr/cdashig/2-0/domains/DA/fields/DAORRESU", "title": "Drug Accountability Result Unit", "type": "Data Collection Field"}}, "completionInstructions": "Record or select the original units in which these data were collected, if not pre-printed on CRF.", "core": "HR", "definition": "The unit of the result as originally received or collected.", "implementationNotes": "Should be pre-printed on the CRF with the associated test when possible, rather than collected in a field that requires the site to enter text.", "label": "Drug Accountability Result Unit", "mappingInstructions": "Maps directly to the SDTMIG variable listed in the column with the heading \"SDTMIG Target\".", "name": "DAORRESU", "ordinal": "13", "prompt": "Unit", "questionText": "What was the unit?", "simpleDatatype": "Char"}], "label": "Drug Accountability", "name": "DA", "ordinal": "14"}
