{"_links": {"parentClass": {"href": "/mdr/cdashig/2-0/classes/Findings", "title": "Findings Observation Class", "type": "Class"}, "parentProduct": {"href": "/mdr/cdashig/2-0", "title": "Clinical Data Acquisition Standards Harmonization Implementation Guide for Human Clinical Trials Version 2.0", "type": "Implementation Guide"}, "scenarios": [{"href": "/mdr/cdashig/2-0/scenarios/DD.Denormalized", "title": "DD - Denormalized - Implementation Options: Horizontal-Example", "type": "CDASH Scenario"}, {"href": "/mdr/cdashig/2-0/scenarios/DD.HorizontalGeneric", "title": "DD - Implementation Options: Horizontal-Generic", "type": "CDASH Scenario"}], "self": {"href": "/mdr/cdashig/2-0/domains/DD", "title": "Death Details", "type": "CDASH Domain"}}, "fields": [{"_links": {"implements": {"href": "/mdr/cdash/1-0/classes/Identifiers/fields/STUDYID", "title": "Study Identifier", "type": "Class Variable"}, "parentDomain": {"href": "/mdr/cdashig/2-0/domains/DD", "title": "Death Details", "type": "CDASH Domain"}, "parentProduct": {"href": "/mdr/cdashig/2-0", "title": "Clinical Data Acquisition Standards Harmonization Implementation Guide for Human Clinical Trials Version 2.0", "type": "Implementation Guide"}, "rootItem": {"href": "/mdr/root/cdashig/domains/DD/fields/STUDYID", "title": "Version-agnostic anchor element for field DD.STUDYID", "type": "Root Data Element"}, "sdtmigDatasetMappingTargets": [{"href": "/mdr/sdtmig/3-2/datasets/DD/variables/STUDYID", "title": "Study Identifier", "type": "SDTM Dataset Variable"}], "self": {"href": "/mdr/cdashig/2-0/domains/DD/fields/STUDYID", "title": "Study Identifier", "type": "Data Collection Field"}}, "core": "HR", "definition": "A unique identifier for a study.", "implementationNotes": "While this field is not typically captured on a CRF, it should be displayed clearly on the CRF and/or the EDC system. This field can be included into the database or populated during SDTM-based dataset creation before submission.", "label": "Study Identifier", "mappingInstructions": "Maps directly to the SDTMIG variable listed in the column with the heading \"SDTMIG Target\".", "name": "STUDYID", "ordinal": "1", "prompt": "[Protocol/Study]", "questionText": "What is the study identifier?", "simpleDatatype": "Char"}, {"_links": {"implements": {"href": "/mdr/cdash/1-0/domains/DM/fields/SITEID", "title": "Study Site Identifier", "type": "Data Collection Field"}, "parentDomain": {"href": "/mdr/cdashig/2-0/domains/DD", "title": "Death Details", "type": "CDASH Domain"}, "parentProduct": {"href": "/mdr/cdashig/2-0", "title": "Clinical Data Acquisition Standards Harmonization Implementation Guide for Human Clinical Trials Version 2.0", "type": "Implementation Guide"}, "rootItem": {"href": "/mdr/root/cdashig/domains/DD/fields/SITEID", "title": "Version-agnostic anchor element for field DD.SITEID", "type": "Root Data Element"}, "sdtmigDatasetMappingTargets": [{"href": "/mdr/sdtmig/3-2/datasets/DM/variables/SITEID", "title": "Study Site Identifier", "type": "SDTM Dataset Variable"}], "self": {"href": "/mdr/cdashig/2-0/domains/DD/fields/SITEID", "title": "Study Site Identifier", "type": "Data Collection Field"}}, "core": "HR", "definition": "A unique identifier for a site within a study.", "implementationNotes": "Paper: This is typically preprinted in the header of each CRF page for single site studies. For studies with multiple sites, this field may be left blank so that the number can be recorded by the site, or it may be preprinted for the CRFs that are shipped to each site. EDC: This should be prepopulated.", "label": "Study Site Identifier", "mappingInstructions": "Maps directly to the SDTMIG variable listed in the column with the heading \"SDTMIG Target\".", "name": "SITEID", "ordinal": "2", "prompt": "Site (Identifier)", "questionText": "What is the site identifier?", "simpleDatatype": "Char"}, {"_links": {"implements": {"href": "/mdr/cdash/1-0/classes/Identifiers/fields/SUBJID", "title": "Subject Identifier for the Study", "type": "Class Variable"}, "parentDomain": {"href": "/mdr/cdashig/2-0/domains/DD", "title": "Death Details", "type": "CDASH Domain"}, "parentProduct": {"href": "/mdr/cdashig/2-0", "title": "Clinical Data Acquisition Standards Harmonization Implementation Guide for Human Clinical Trials Version 2.0", "type": "Implementation Guide"}, "rootItem": {"href": "/mdr/root/cdashig/domains/DD/fields/SUBJID", "title": "Version-agnostic anchor element for field DD.SUBJID", "type": "Root Data Element"}, "sdtmigDatasetMappingTargets": [{"href": "/mdr/sdtmig/3-2/datasets/DM/variables/SUBJID", "title": "Subject Identifier for the Study", "type": "SDTM Dataset Variable"}], "self": {"href": "/mdr/cdashig/2-0/domains/DD/fields/SUBJID", "title": "Subject Identifier for the Study", "type": "Data Collection Field"}}, "completionInstructions": "Record the identifier for the subject.", "core": "HR", "definition": "A unique subject identifier within a site and a study.", "implementationNotes": "Paper: This is typically recorded in the header of each CRF page. EDC: The subject identifiers may be provided to the site using a pre-populated list in the system. This CDASH variable is typically collected in all CDASH domains. However, this CDASH variable is populated only in the SDTMIG DM domain. For more information, refer to Study Data Tabulation Model.", "label": "Subject Identifier for the Study", "mappingInstructions": "Maps directly to the SDTMIG variable listed in the column with the heading \"SDTMIG Target\".", "name": "SUBJID", "ordinal": "3", "prompt": "Subject", "questionText": "What is the subject identifier?", "simpleDatatype": "Char"}, {"_links": {"implements": {"href": "/mdr/cdash/1-0/classes/Timing/fields/VISIT", "title": "Visit Name", "type": "Class Variable"}, "parentDomain": {"href": "/mdr/cdashig/2-0/domains/DD", "title": "Death Details", "type": "CDASH Domain"}, "parentProduct": {"href": "/mdr/cdashig/2-0", "title": "Clinical Data Acquisition Standards Harmonization Implementation Guide for Human Clinical Trials Version 2.0", "type": "Implementation Guide"}, "rootItem": {"href": "/mdr/root/cdashig/domains/DD/fields/VISIT", "title": "Version-agnostic anchor element for field DD.VISIT", "type": "Root Data Element"}, "self": {"href": "/mdr/cdashig/2-0/domains/DD/fields/VISIT", "title": "Visit Name", "type": "Data Collection Field"}}, "core": "R/C", "definition": "The name of a clinical encounter that encompasses planned and unplanned trial interventions, procedures, and assessments that may be performed on a subject.", "implementationNotes": "This CDASH variable is typically collected in all CDASH domains. However, this CDASH variable is represented only in the SDTMIG DM domain. For more information, refer to Study Data Tabulation Model, Table 2.2.4.", "label": "Visit Name", "mappingInstructions": "Maps directly to the SDTMIG variable listed in the column with the heading \"SDTMIG Target\".", "name": "VISIT", "ordinal": "4", "prompt": "[Visit]", "questionText": "What is the visit name?", "simpleDatatype": "Char"}, {"_links": {"implements": {"href": "/mdr/cdash/1-0/classes/Timing/fields/VISDAT", "title": "Visit Date", "type": "Class Variable"}, "parentDomain": {"href": "/mdr/cdashig/2-0/domains/DD", "title": "Death Details", "type": "CDASH Domain"}, "parentProduct": {"href": "/mdr/cdashig/2-0", "title": "Clinical Data Acquisition Standards Harmonization Implementation Guide for Human Clinical Trials Version 2.0", "type": "Implementation Guide"}, "rootItem": {"href": "/mdr/root/cdashig/domains/DD/fields/VISDAT", "title": "Version-agnostic anchor element for field DD.VISDAT", "type": "Root Data Element"}, "self": {"href": "/mdr/cdashig/2-0/domains/DD/fields/VISDAT", "title": "Visit Date", "type": "Data Collection Field"}}, "completionInstructions": "Record the [date/start date] of the visit using DD-MON-YYYY format.", "core": "R/C", "definition": "Date the clinical encounter occurred (or started).", "implementationNotes": "The date the death details assessments were reported can be determined from the Visit Date variable (VISDAT) and applying that date to all of the observations at that visit or the collection date can be included on the Death Detail CRF using the date (DDDAT) field.", "label": "Visit Date", "mappingInstructions": "This field is not an SDTM variable. The date of a measurement, test, observation can be determined from the date/time of visit (VISDAT/VISTIM) and then concatenating the CDASH VISDAT/VISTIM components and populating the SDTMIG variable DDDTC in ISO 8601 format.", "name": "VISDAT", "ordinal": "5", "prompt": "Visit Date", "questionText": "What [is/was] the date of the visit?", "simpleDatatype": "Char"}, {"_links": {"implements": {"href": "/mdr/cdash/1-0/classes/Findings/fields/--CAT", "title": "Category", "type": "Class Variable"}, "parentDomain": {"href": "/mdr/cdashig/2-0/domains/DD", "title": "Death Details", "type": "CDASH Domain"}, "parentProduct": {"href": "/mdr/cdashig/2-0", "title": "Clinical Data Acquisition Standards Harmonization Implementation Guide for Human Clinical Trials Version 2.0", "type": "Implementation Guide"}, "rootItem": {"href": "/mdr/root/cdashig/domains/DD/fields/DDCAT", "title": "Version-agnostic anchor element for field DD.DDCAT", "type": "Root Data Element"}, "self": {"href": "/mdr/cdashig/2-0/domains/DD/fields/DDCAT", "title": "Category for Death Details", "type": "Data Collection Field"}}, "completionInstructions": "Record the death detail category, if not pre-printed on the CRF.", "core": "O", "definition": "A grouping of topic-variable values based on user defined characteristics.", "implementationNotes": "Sponsor-defined Controlled Terminology. This would most commonly be pre-printed on the CRF or screen and pre-populated in the data management system. This is not typically a question to which the site would provide an answer.", "label": "Category for Death Details", "mappingInstructions": "Maps directly to the SDTMIG variable listed in the column with the heading \"SDTMIG Target\".", "name": "DDCAT", "ordinal": "6", "prompt": "[Death Detail Category]; NULL", "questionText": "What is the category of the death detail assessment?", "simpleDatatype": "Char"}, {"_links": {"implements": {"href": "/mdr/cdash/1-0/classes/Findings/fields/--SCAT", "title": "Subcategory", "type": "Class Variable"}, "parentDomain": {"href": "/mdr/cdashig/2-0/domains/DD", "title": "Death Details", "type": "CDASH Domain"}, "parentProduct": {"href": "/mdr/cdashig/2-0", "title": "Clinical Data Acquisition Standards Harmonization Implementation Guide for Human Clinical Trials Version 2.0", "type": "Implementation Guide"}, "rootItem": {"href": "/mdr/root/cdashig/domains/DD/fields/DDSCAT", "title": "Version-agnostic anchor element for field DD.DDSCAT", "type": "Root Data Element"}, "self": {"href": "/mdr/cdashig/2-0/domains/DD/fields/DDSCAT", "title": "Subcategory for Death Details", "type": "Data Collection Field"}}, "completionInstructions": "Record the death detail subcategory, if not pre-printed on the CRF.", "core": "O", "definition": "A sub-division of the DDCAT values based on user defined characteristics.", "implementationNotes": "Sponsor-defined Controlled Terminology. This would most commonly be either a heading, or a pre-printed category value on the CRF and not a question to which the site would provide an answer. If a question is asked, the response would typically be a sponsor-defined codelist. If the form is laid out as a grid, then words such as \"Subcategory\" can be included as the column header DDSCAT can only be used if there is an DDCAT and it must be a subcategorization of DDCAT.", "label": "Subcategory for Death Details", "mappingInstructions": "Maps directly to the SDTMIG variable listed in the column with the heading \"SDTMIG Target\".", "name": "DDSCAT", "ordinal": "7", "prompt": "[Death Detail Assessment Subcategory]; NULL", "questionText": "What is the subcategory of the death detail assessment?", "simpleDatatype": "Char"}, {"_links": {"codelist": [{"href": "/mdr/root/ct/sdtmct/codelists/C66742", "title": "Version-agnostic anchor resource for codelist C66742", "type": "Root Value Domain"}], "implements": {"href": "/mdr/cdash/1-0/classes/Findings/fields/--YN", "title": "Any [Finding]", "type": "Class Variable"}, "parentDomain": {"href": "/mdr/cdashig/2-0/domains/DD", "title": "Death Details", "type": "CDASH Domain"}, "parentProduct": {"href": "/mdr/cdashig/2-0", "title": "Clinical Data Acquisition Standards Harmonization Implementation Guide for Human Clinical Trials Version 2.0", "type": "Implementation Guide"}, "rootItem": {"href": "/mdr/root/cdashig/domains/DD/fields/DDYN", "title": "Version-agnostic anchor element for field DD.DDYN", "type": "Root Data Element"}, "self": {"href": "/mdr/cdashig/2-0/domains/DD/fields/DDYN", "title": "Any Death Detail Results", "type": "Data Collection Field"}}, "completionInstructions": "Indicate if the death details are known. If yes, include the appropriate details where indicated on the CRF.", "core": "O", "definition": "General prompt question regarding whether or not any death details were available.", "implementationNotes": "The intent/purpose of collecting this field is to help with data cleaning and monitoring. It provides verification if all other fields on the CRF were deliberately left blank.", "label": "Any Death Detail Results", "mappingInstructions": "Does not map to an SDTMIG variable. The SDTM Annotated CRF is annotated to indicate that this field is NOT SUBMITTED.", "name": "DDYN", "ordinal": "8", "prompt": "Any Death Details", "questionText": "Were any death detail assessments collected?", "simpleDatatype": "Char"}, {"_links": {"implements": {"href": "/mdr/cdash/1-0/classes/Timing/fields/--DAT", "title": "Date of Collection", "type": "Class Variable"}, "parentDomain": {"href": "/mdr/cdashig/2-0/domains/DD", "title": "Death Details", "type": "CDASH Domain"}, "parentProduct": {"href": "/mdr/cdashig/2-0", "title": "Clinical Data Acquisition Standards Harmonization Implementation Guide for Human Clinical Trials Version 2.0", "type": "Implementation Guide"}, "rootItem": {"href": "/mdr/root/cdashig/domains/DD/fields/DDDAT", "title": "Version-agnostic anchor element for field DD.DDDAT", "type": "Root Data Element"}, "sdtmigDatasetMappingTargets": [{"href": "/mdr/sdtmig/3-2/datasets/DD/variables/DDDTC", "title": "Date/Time of Collection", "type": "SDTM Dataset Variable"}], "self": {"href": "/mdr/cdashig/2-0/domains/DD/fields/DDDAT", "title": "Death Details Date of Collection", "type": "Data Collection Field"}}, "completionInstructions": "Record the date of collection using this format (DD-MON-YYYY).", "core": "R/C", "definition": "The date of collection represented in an unambiguous date format (e.g., DD-MON-YYYY).", "implementationNotes": "A complete date is expected. The date of collection may be determined from the date of visit (VISDAT) and if so, a separate assessment date field is not required.", "label": "Death Details Date of Collection", "mappingInstructions": "This does not map directly to an SDTMIG variable. For the SDTM submission dataset, concatenate all collected CDASH DATE and TIME components and populate the SDTMIG variable DDDTC in ISO 8601 format.", "name": "DDDAT", "ordinal": "9", "prompt": "Collection Date", "questionText": "What was the date death detail assessments were collected?", "simpleDatatype": "Char"}, {"_links": {"implements": {"href": "/mdr/cdash/1-0/classes/Identifiers/fields/--SPID", "title": "Sponsor-Defined Identifier", "type": "Class Variable"}, "parentDomain": {"href": "/mdr/cdashig/2-0/domains/DD", "title": "Death Details", "type": "CDASH Domain"}, "parentProduct": {"href": "/mdr/cdashig/2-0", "title": "Clinical Data Acquisition Standards Harmonization Implementation Guide for Human Clinical Trials Version 2.0", "type": "Implementation Guide"}, "rootItem": {"href": "/mdr/root/cdashig/domains/DD/fields/DDSPID", "title": "Version-agnostic anchor element for field DD.DDSPID", "type": "Root Data Element"}, "self": {"href": "/mdr/cdashig/2-0/domains/DD/fields/DDSPID", "title": "Death Details Sponsor-Defined Identifier", "type": "Data Collection Field"}}, "completionInstructions": "If collected on the CRF, sponsor may insert instructions to ensure each record has a unique identifier.", "core": "O", "definition": "A sponsor-defined identifier which can be used for pre-printed or auto-generated numbers on the CRF.", "implementationNotes": "Since SPID is a sponsor-defined identifier, conformance to Question Text or Item Prompt is not applicable. Typically used as an identifier in a data query to communicate clearly to the site the specific record in question or to reconcile data. May be used to record pre-printed number (e.g. line number, record number) on the CRF. This field may be populated by the sponsor's data collection system.", "label": "Death Details Sponsor-Defined Identifier", "mappingInstructions": "Maps directly to the SDTMIG variable listed in the column with the heading \"SDTMIG Target\". May be used to create RELREC to link this record with a record in another domain.", "name": "DDSPID", "ordinal": "10", "prompt": "[Line Number/ DD Number]", "questionText": "What was the death detail assessment identifier?", "simpleDatatype": "Char"}, {"_links": {"implements": {"href": "/mdr/cdash/1-0/classes/Timing/fields/DTHDAT", "title": "Date of Death", "type": "Class Variable"}, "parentDomain": {"href": "/mdr/cdashig/2-0/domains/DD", "title": "Death Details", "type": "CDASH Domain"}, "parentProduct": {"href": "/mdr/cdashig/2-0", "title": "Clinical Data Acquisition Standards Harmonization Implementation Guide for Human Clinical Trials Version 2.0", "type": "Implementation Guide"}, "rootItem": {"href": "/mdr/root/cdashig/domains/DD/fields/DTHDAT", "title": "Version-agnostic anchor element for field DD.DTHDAT", "type": "Root Data Element"}, "sdtmigDatasetMappingTargets": [{"href": "/mdr/sdtmig/3-2/datasets/DM/variables/DTHDTC", "title": "Date/Time of Death", "type": "SDTM Dataset Variable"}], "self": {"href": "/mdr/cdashig/2-0/domains/DD/fields/DTHDAT", "title": "Date of Death", "type": "Data Collection Field"}}, "completionInstructions": "Record the date of death.", "core": "O", "definition": "Date of death for any subject who died.", "implementationNotes": "The CDASH model defines Death Date as a timing variable; this is not included as a timing variable in the SDTMIG. It may be collected on any CRF deemed appropriate by the Sponsor, but should only be collected once. The SDTMIG variable DTHDTC is mapped to the DM domain during the SDTM submission dataset creation process. The SDTMIG variable DM.DTHFLG is not a CDASH variable, but it is typically populated during the SDTM submission dataset creation process. Death Date may be mapped to other SDTM domains, as deemed appropriate by the sponsor (e.g., DS).", "label": "Date of Death", "mappingInstructions": "This field does not map directly to an SDTMIG variable. For the SDTM dataset, concatenate all collected CDASH DATE and TIME components and populate the SDTM variable DTHDTC in ISO 8601 format.", "name": "DTHDAT", "ordinal": "11", "prompt": "Death Date", "questionText": "What was the subject's date of death?", "simpleDatatype": "Char"}, {"_links": {"codelist": [{"href": "/mdr/root/ct/sdtmct/codelists/C116107", "title": "Version-agnostic anchor resource for codelist C116107", "type": "Root Value Domain"}], "implements": {"href": "/mdr/cdash/1-0/classes/Findings/fields/--TEST", "title": "Name of Measurement, Test or Examination", "type": "Class Variable"}, "parentDomain": {"href": "/mdr/cdashig/2-0/domains/DD", "title": "Death Details", "type": "CDASH Domain"}, "parentProduct": {"href": "/mdr/cdashig/2-0", "title": "Clinical Data Acquisition Standards Harmonization Implementation Guide for Human Clinical Trials Version 2.0", "type": "Implementation Guide"}, "rootItem": {"href": "/mdr/root/cdashig/domains/DD/fields/DDTEST", "title": "Version-agnostic anchor element for field DD.DDTEST", "type": "Root Data Element"}, "sdtmigDatasetMappingTargets": [{"href": "/mdr/sdtmig/3-2/datasets/DD/variables/DDTEST", "title": "Death Detail Assessment Name", "type": "SDTM Dataset Variable"}, {"href": "/mdr/sdtmig/3-2/datasets/DD/variables/DDTESTCD", "title": "Death Detail Assessment Short Name", "type": "SDTM Dataset Variable"}], "self": {"href": "/mdr/cdashig/2-0/domains/DD/fields/DDTEST", "title": "Death Detail Assessment Name", "type": "Data Collection Field"}}, "completionInstructions": "Record the name of the death detail assessment if not pre-specified on the CRF. If collected on the CRF, the sponsor may provide additional instructions to ensure the data is entered as intended.", "core": "HR", "definition": "Descriptive name for death details", "implementationNotes": "Required to identify which test the result is for. It is recommended that the test names be pre-printed on the CRF rather than collected in a field that requires the site to enter text. If the form is laid out as a grid, then words such as Test can be included as the column header.", "label": "Death Detail Assessment Name", "mappingInstructions": "Maps directly to the SDTMIG variable listed in the column with the heading \"SDTMIG Target\". The SDTMIG variable DDTESTCD may be determined from the value collected in DDTEST. Both DDTESTCD and DDTEST are required in the SDTM submission datasets. Use appropriate CDISC Controlled Terminology for the test and test code.", "name": "DDTEST", "ordinal": "12", "prompt": "Death Detail Assessment Test Name", "questionText": "What was the death detail assessment test name?", "simpleDatatype": "Char"}, {"_links": {"implements": {"href": "/mdr/cdash/1-0/classes/Findings/fields/--ORRES", "title": "Result of Finding in Original Unit", "type": "Class Variable"}, "parentDomain": {"href": "/mdr/cdashig/2-0/domains/DD", "title": "Death Details", "type": "CDASH Domain"}, "parentProduct": {"href": "/mdr/cdashig/2-0", "title": "Clinical Data Acquisition Standards Harmonization Implementation Guide for Human Clinical Trials Version 2.0", "type": "Implementation Guide"}, "rootItem": {"href": "/mdr/root/cdashig/domains/DD/fields/DDORRES", "title": "Version-agnostic anchor element for field DD.DDORRES", "type": "Root Data Element"}, "sdtmigDatasetMappingTargets": [{"href": "/mdr/sdtmig/3-2/datasets/DD/variables/DDORRES", "title": "Result or Finding as Collected", "type": "SDTM Dataset Variable"}], "self": {"href": "/mdr/cdashig/2-0/domains/DD/fields/DDORRES", "title": "Death Details Result", "type": "Data Collection Field"}}, "completionInstructions": "Record the death detail response.", "core": "HR", "definition": "Result of the death detail assessment, as originally received or collected.", "implementationNotes": "N/A", "label": "Death Details Result", "mappingInstructions": "Maps directly to the SDTMIG variable listed in the column with the heading \"SDTMIG Target\".", "name": "DDORRES", "ordinal": "13", "prompt": "Result", "questionText": "What was the result of the death detail assessment?", "simpleDatatype": "Char"}, {"_links": {"codelist": [{"href": "/mdr/root/ct/sdtmct/codelists/C78735", "title": "Version-agnostic anchor resource for codelist C78735", "type": "Root Value Domain"}], "implements": {"href": "/mdr/cdash/1-0/classes/Findings/fields/--EVAL", "title": "Evaluator", "type": "Class Variable"}, "parentDomain": {"href": "/mdr/cdashig/2-0/domains/DD", "title": "Death Details", "type": "CDASH Domain"}, "parentProduct": {"href": "/mdr/cdashig/2-0", "title": "Clinical Data Acquisition Standards Harmonization Implementation Guide for Human Clinical Trials Version 2.0", "type": "Implementation Guide"}, "rootItem": {"href": "/mdr/root/cdashig/domains/DD/fields/DDEVAL", "title": "Version-agnostic anchor element for field DD.DDEVAL", "type": "Root Data Element"}, "sdtmigDatasetMappingTargets": [{"href": "/mdr/sdtmig/3-2/datasets/DD/variables/DDEVAL", "title": "Evaluator", "type": "SDTM Dataset Variable"}], "self": {"href": "/mdr/cdashig/2-0/domains/DD/fields/DDEVAL", "title": "Death Details Evaluator", "type": "Data Collection Field"}}, "completionInstructions": "Select the role of the person who provided the evaluation (e.g., INVESTIGATOR, ADJUDICATION COMMITTEE, VENDOR).", "core": "O", "definition": "The role of the person who provided the information.", "implementationNotes": "Used only for results that are subjective (e.g., assigned by a person or a group). May be a pre-printed, or collected. Sponsors may collect the data using a subset list of Controlled Terminology on the CRF.", "label": "Death Details Evaluator", "mappingInstructions": "Maps directly to the SDTMIG variable listed in the column with the heading \"SDTMIG Target\".", "name": "DDEVAL", "ordinal": "14", "prompt": "[Evaluator/Reporter]", "questionText": "Who provided the death detail assessment information?", "simpleDatatype": "Char"}], "label": "Death Details", "name": "DD", "ordinal": "15"}
