{"_links": {"parentClass": {"href": "/mdr/cdashig/2-0/classes/Events", "title": "Events Observation Class", "type": "Class"}, "parentProduct": {"href": "/mdr/cdashig/2-0", "title": "Clinical Data Acquisition Standards Harmonization Implementation Guide for Human Clinical Trials Version 2.0", "type": "Implementation Guide"}, "priorVersion": {"href": "/mdr/cdashig/1-1-1/domains/DV", "title": "Protocol Deviations", "type": "CDASH Domain"}, "self": {"href": "/mdr/cdashig/2-0/domains/DV", "title": "Protocol Deviation", "type": "CDASH Domain"}}, "fields": [{"_links": {"implements": {"href": "/mdr/cdash/1-0/classes/Identifiers/fields/STUDYID", "title": "Study Identifier", "type": "Class Variable"}, "parentDomain": {"href": "/mdr/cdashig/2-0/domains/DV", "title": "Protocol Deviation", "type": "CDASH Domain"}, "parentProduct": {"href": "/mdr/cdashig/2-0", "title": "Clinical Data Acquisition Standards Harmonization Implementation Guide for Human Clinical Trials Version 2.0", "type": "Implementation Guide"}, "priorVersion": {"href": "/mdr/cdashig/1-1-1/domains/DV/fields/STUDYID", "type": "Data Collection Field"}, "rootItem": {"href": "/mdr/root/cdashig/domains/DV/fields/STUDYID", "title": "Version-agnostic anchor element for field DV.STUDYID", "type": "Root Data Element"}, "sdtmigDatasetMappingTargets": [{"href": "/mdr/sdtmig/3-2/datasets/DV/variables/STUDYID", "title": "Study Identifier", "type": "SDTM Dataset Variable"}], "self": {"href": "/mdr/cdashig/2-0/domains/DV/fields/STUDYID", "title": "Study Identifier", "type": "Data Collection Field"}}, "core": "HR", "definition": "A unique identifier for a study.", "implementationNotes": "While this field is not typically captured on a CRF, it should be displayed clearly on the CRF and/or the EDC system. This field can be included into the database or populated during SDTM-based dataset creation before submission.", "label": "Study Identifier", "mappingInstructions": "Maps directly to the SDTMIG variable listed in the column with the heading \"SDTMIG Target\".", "name": "STUDYID", "ordinal": "1", "prompt": "[Protocol/Study]", "questionText": "What is the study identifier?", "simpleDatatype": "Char"}, {"_links": {"implements": {"href": "/mdr/cdash/1-0/domains/DM/fields/SITEID", "title": "Study Site Identifier", "type": "Data Collection Field"}, "parentDomain": {"href": "/mdr/cdashig/2-0/domains/DV", "title": "Protocol Deviation", "type": "CDASH Domain"}, "parentProduct": {"href": "/mdr/cdashig/2-0", "title": "Clinical Data Acquisition Standards Harmonization Implementation Guide for Human Clinical Trials Version 2.0", "type": "Implementation Guide"}, "priorVersion": {"href": "/mdr/cdashig/1-1-1/domains/DV/fields/SITEID", "type": "Data Collection Field"}, "rootItem": {"href": "/mdr/root/cdashig/domains/DV/fields/SITEID", "title": "Version-agnostic anchor element for field DV.SITEID", "type": "Root Data Element"}, "sdtmigDatasetMappingTargets": [{"href": "/mdr/sdtmig/3-2/datasets/DM/variables/SITEID", "title": "Study Site Identifier", "type": "SDTM Dataset Variable"}], "self": {"href": "/mdr/cdashig/2-0/domains/DV/fields/SITEID", "title": "Study Site Identifier", "type": "Data Collection Field"}}, "core": "HR", "definition": "A unique identifier for a site within a study.", "implementationNotes": "Paper: This is typically preprinted in the header of each CRF page for single site studies. For studies with multiple sites, this field may be left blank so that the number can be recorded by the site, or it may be preprinted for the CRFs that are shipped to each site. EDC: This should be prepopulated.", "label": "Study Site Identifier", "mappingInstructions": "Maps directly to the SDTMIG variable listed in the column with the heading \"SDTMIG Target\".", "name": "SITEID", "ordinal": "2", "prompt": "Site (Identifier)", "questionText": "What is the site identifier?", "simpleDatatype": "Char"}, {"_links": {"implements": {"href": "/mdr/cdash/1-0/classes/Identifiers/fields/SUBJID", "title": "Subject Identifier for the Study", "type": "Class Variable"}, "parentDomain": {"href": "/mdr/cdashig/2-0/domains/DV", "title": "Protocol Deviation", "type": "CDASH Domain"}, "parentProduct": {"href": "/mdr/cdashig/2-0", "title": "Clinical Data Acquisition Standards Harmonization Implementation Guide for Human Clinical Trials Version 2.0", "type": "Implementation Guide"}, "priorVersion": {"href": "/mdr/cdashig/1-1-1/domains/DV/fields/SUBJID", "type": "Data Collection Field"}, "rootItem": {"href": "/mdr/root/cdashig/domains/DV/fields/SUBJID", "title": "Version-agnostic anchor element for field DV.SUBJID", "type": "Root Data Element"}, "sdtmigDatasetMappingTargets": [{"href": "/mdr/sdtmig/3-2/datasets/DM/variables/SUBJID", "title": "Subject Identifier for the Study", "type": "SDTM Dataset Variable"}], "self": {"href": "/mdr/cdashig/2-0/domains/DV/fields/SUBJID", "title": "Subject Identifier for the Study", "type": "Data Collection Field"}}, "completionInstructions": "Record the identifier for the subject.", "core": "HR", "definition": "A unique subject identifier within a site and a study.", "implementationNotes": "Paper: This is typically recorded in the header of each CRF page. EDC: The subject identifiers may be provided to the site using a pre-populated list in the system. This CDASH variable is typically collected in all CDASH domains. However, this CDASH variable is populated only in the SDTMIG DM domain. For more information, refer to Study Data Tabulation Model.", "label": "Subject Identifier for the Study", "mappingInstructions": "Maps directly to the SDTMIG variable listed in the column with the heading \"SDTMIG Target\".", "name": "SUBJID", "ordinal": "3", "prompt": "Subject", "questionText": "What is the subject identifier?", "simpleDatatype": "Char"}, {"_links": {"implements": {"href": "/mdr/cdash/1-0/classes/Events/fields/--CAT", "title": "Category", "type": "Class Variable"}, "parentDomain": {"href": "/mdr/cdashig/2-0/domains/DV", "title": "Protocol Deviation", "type": "CDASH Domain"}, "parentProduct": {"href": "/mdr/cdashig/2-0", "title": "Clinical Data Acquisition Standards Harmonization Implementation Guide for Human Clinical Trials Version 2.0", "type": "Implementation Guide"}, "rootItem": {"href": "/mdr/root/cdashig/domains/DV/fields/DVCAT", "title": "Version-agnostic anchor element for field DV.DVCAT", "type": "Root Data Element"}, "sdtmigDatasetMappingTargets": [{"href": "/mdr/sdtmig/3-2/datasets/DV/variables/DVCAT", "title": "Category for Protocol Deviation", "type": "SDTM Dataset Variable"}], "self": {"href": "/mdr/cdashig/2-0/domains/DV/fields/DVCAT", "title": "Category for Protocol Deviation", "type": "Data Collection Field"}}, "completionInstructions": "Record the deviation category, if not pre-printed on the CRF.", "core": "O", "definition": "A grouping of topic-variable values based on user defined characteristics.", "implementationNotes": "Sponsor-defined Controlled Terminology. This would most commonly be either a heading, or a pre-printed category value on the CRF and not a question to which the site would provide an answer. If a question is asked, the response would typically be a sponsor-defined codelist. If the form is laid out as a grid, then words such as \"Category\" can be included as the column header.", "label": "Category for Protocol Deviation", "mappingInstructions": "Maps directly to the SDTMIG variable listed in the column with the heading \"SDTMIG Target\".", "name": "DVCAT", "ordinal": "4", "prompt": "[Protocol Deviation Category]; NULL", "questionText": "What is the category of the protocol deviation?", "simpleDatatype": "Char"}, {"_links": {"implements": {"href": "/mdr/cdash/1-0/classes/Events/fields/--SCAT", "title": "Subcategory", "type": "Class Variable"}, "parentDomain": {"href": "/mdr/cdashig/2-0/domains/DV", "title": "Protocol Deviation", "type": "CDASH Domain"}, "parentProduct": {"href": "/mdr/cdashig/2-0", "title": "Clinical Data Acquisition Standards Harmonization Implementation Guide for Human Clinical Trials Version 2.0", "type": "Implementation Guide"}, "rootItem": {"href": "/mdr/root/cdashig/domains/DV/fields/DVSCAT", "title": "Version-agnostic anchor element for field DV.DVSCAT", "type": "Root Data Element"}, "sdtmigDatasetMappingTargets": [{"href": "/mdr/sdtmig/3-2/datasets/DV/variables/DVSCAT", "title": "Subcategory for Protocol Deviation", "type": "SDTM Dataset Variable"}], "self": {"href": "/mdr/cdashig/2-0/domains/DV/fields/DVSCAT", "title": "Protocol Deviation Subcategory", "type": "Data Collection Field"}}, "completionInstructions": "Record the deviation event subcategory, if not pre-printed on the CRF.", "core": "O", "definition": "A sub-division of the DVCAT values based on user defined characteristics.", "implementationNotes": "Sponsor-defined Controlled Terminology. This would most commonly be pre-printed on the CRF or screen and pre-populated in the data management system. This is not typically a question to which the site would provide an answer. DVSCAT can only be used if there is an DVCAT and it must be a subcategorization of DVCAT.", "label": "Protocol Deviation Subcategory", "mappingInstructions": "Maps directly to the SDTMIG variable listed in the column with the heading \"SDTMIG Target\".", "name": "DVSCAT", "ordinal": "5", "prompt": "[Protocol Deviation Subcategory]; NULL", "questionText": "What is the subcategory of the protocol deviation?", "simpleDatatype": "Char"}, {"_links": {"codelist": [{"href": "/mdr/root/ct/sdtmct/codelists/C66742", "title": "Version-agnostic anchor resource for codelist C66742", "type": "Root Value Domain"}], "implements": {"href": "/mdr/cdash/1-0/classes/Events/fields/--YN", "title": "Any [Event]", "type": "Class Variable"}, "parentDomain": {"href": "/mdr/cdashig/2-0/domains/DV", "title": "Protocol Deviation", "type": "CDASH Domain"}, "parentProduct": {"href": "/mdr/cdashig/2-0", "title": "Clinical Data Acquisition Standards Harmonization Implementation Guide for Human Clinical Trials Version 2.0", "type": "Implementation Guide"}, "priorVersion": {"href": "/mdr/cdashig/1-1-1/domains/DV/fields/DVYN", "type": "Data Collection Field"}, "rootItem": {"href": "/mdr/root/cdashig/domains/DV/fields/DVYN", "title": "Version-agnostic anchor element for field DV.DVYN", "type": "Root Data Element"}, "self": {"href": "/mdr/cdashig/2-0/domains/DV/fields/DVYN", "title": "Any Protocol Deviation", "type": "Data Collection Field"}}, "completionInstructions": "Enter Yes if a protocol deviation occurred and No if none occurred. Ensure that any adverse event, concomitant medication use, newly discovered medical history, etc. which triggers a protocol deviation is noted in the respective CRF.", "core": "O", "definition": "An indication whether or not there were any protocol deviations.", "implementationNotes": "EDC: The subject identifiers may be provided to the site using a pre-populated list in the system.", "label": "Any Protocol Deviation", "mappingInstructions": "Does not map to an SDTMIG variable. The SDTM Annotated CRF is annotated to indicate that this field is NOT SUBMITTED.", "name": "DVYN", "ordinal": "6", "prompt": "Any Deviations", "questionText": "Were there any protocol deviations?", "simpleDatatype": "Char"}, {"_links": {"implements": {"href": "/mdr/cdash/1-0/classes/Events/fields/--DECOD", "title": "Dictionary-Derived/Standardized Term", "type": "Class Variable"}, "parentDomain": {"href": "/mdr/cdashig/2-0/domains/DV", "title": "Protocol Deviation", "type": "CDASH Domain"}, "parentProduct": {"href": "/mdr/cdashig/2-0", "title": "Clinical Data Acquisition Standards Harmonization Implementation Guide for Human Clinical Trials Version 2.0", "type": "Implementation Guide"}, "priorVersion": {"href": "/mdr/cdashig/1-1-1/domains/DV/fields/DVDECOD", "type": "Data Collection Field"}, "rootItem": {"href": "/mdr/root/cdashig/domains/DV/fields/DVDECOD", "title": "Version-agnostic anchor element for field DV.DVDECOD", "type": "Root Data Element"}, "sdtmigDatasetMappingTargets": [{"href": "/mdr/sdtmig/3-2/datasets/DV/variables/DVDECOD", "title": "Protocol Deviation Coded Term", "type": "SDTM Dataset Variable"}], "self": {"href": "/mdr/cdashig/2-0/domains/DV/fields/DVDECOD", "title": "Deviation Dictionary-Derived/Standardized Term", "type": "Data Collection Field"}}, "completionInstructions": "Record protocol deviations identified and/or select the appropriate code from the list of protocol deviation terms.", "core": "R/C", "definition": "The sponsor defined standardized text for the name of the protocol deviation.", "implementationNotes": "DVTERM and DVDECOD may have the same value. If the CRF is collecting protocol deviations using a code list of responses, then DVDECOD should be used to store the code list response. Sponsors must use either DVDECOD or DVTERM on the CRF and in some cases, both may be used. For example, if the CRF collects \"Specify, Other\" or similar additional free text descriptions of code list items, then DVTERM should be used to store the detailed descriptive text", "label": "Deviation Dictionary-Derived/Standardized Term", "mappingInstructions": "Maps directly to the SDTMIG variable listed in the column with the heading \"SDTMIG Target\".", "name": "DVDECOD", "ordinal": "7", "prompt": "(Standardized) Protocol Deviation (Term)", "questionText": "What was the (standardized) protocol deviation (term/(code)?", "simpleDatatype": "Char"}, {"_links": {"implements": {"href": "/mdr/cdash/1-0/classes/Events/fields/--TERM", "title": "Reported Term", "type": "Class Variable"}, "parentDomain": {"href": "/mdr/cdashig/2-0/domains/DV", "title": "Protocol Deviation", "type": "CDASH Domain"}, "parentProduct": {"href": "/mdr/cdashig/2-0", "title": "Clinical Data Acquisition Standards Harmonization Implementation Guide for Human Clinical Trials Version 2.0", "type": "Implementation Guide"}, "priorVersion": {"href": "/mdr/cdashig/1-1-1/domains/DV/fields/DVTERM", "type": "Data Collection Field"}, "rootItem": {"href": "/mdr/root/cdashig/domains/DV/fields/DVTERM", "title": "Version-agnostic anchor element for field DV.DVTERM", "type": "Root Data Element"}, "sdtmigDatasetMappingTargets": [{"href": "/mdr/sdtmig/3-2/datasets/DV/variables/DVTERM", "title": "Protocol Deviation Term", "type": "SDTM Dataset Variable"}], "self": {"href": "/mdr/cdashig/2-0/domains/DV/fields/DVTERM", "title": "Protocol Deviation Reported Term", "type": "Data Collection Field"}}, "completionInstructions": "Record the appropriate code from the list of protocol deviation terms.", "core": "R/C", "definition": "The reported or pre-specified name of the protocol deviation.", "implementationNotes": "DVTERM and DVDECOD may have the same value. If the CRF is collecting protocol deviations using a free text field, then DVTERM should be used to store the free text response. Sponsors may use either DVDECOD or DVTERM on the CRF, but a value in DVTERM is required in the SDTM-based datasets.", "label": "Protocol Deviation Reported Term", "mappingInstructions": "Maps directly to the SDTMIG variable listed in the column with the heading \"SDTMIG Target\".", "name": "DVTERM", "ordinal": "8", "prompt": "Protocol Deviation", "questionText": "What was the protocol deviation term?", "simpleDatatype": "Char"}, {"_links": {"implements": {"href": "/mdr/cdash/1-0/classes/Timing/fields/--STDAT", "title": "Start Date of Observation", "type": "Class Variable"}, "parentDomain": {"href": "/mdr/cdashig/2-0/domains/DV", "title": "Protocol Deviation", "type": "CDASH Domain"}, "parentProduct": {"href": "/mdr/cdashig/2-0", "title": "Clinical Data Acquisition Standards Harmonization Implementation Guide for Human Clinical Trials Version 2.0", "type": "Implementation Guide"}, "priorVersion": {"href": "/mdr/cdashig/1-1-1/domains/DV/fields/DVSTDAT", "type": "Data Collection Field"}, "rootItem": {"href": "/mdr/root/cdashig/domains/DV/fields/DVSTDAT", "title": "Version-agnostic anchor element for field DV.DVSTDAT", "type": "Root Data Element"}, "sdtmigDatasetMappingTargets": [{"href": "/mdr/sdtmig/3-2/datasets/DV/variables/DVSTDTC", "title": "Start Date/Time of Deviation", "type": "SDTM Dataset Variable"}], "self": {"href": "/mdr/cdashig/2-0/domains/DV/fields/DVSTDAT", "title": "Deviation Start Date", "type": "Data Collection Field"}}, "completionInstructions": "Record the start date that the protocol deviation using this format (DD-MON-YYYY). This should be the start or occurrence of the protocol deviation and not the date it was discovered or reported.", "core": "O", "definition": "The start date of deviation represented in an unambiguous date format (e.g., DD-MON-YYYY).", "implementationNotes": "This may be derived if not collected on a CRF.", "label": "Deviation Start Date", "mappingInstructions": "This does not map directly to an SDTMIG variable. For the SDTM submission dataset, concatenate all collected CDASH START DATE and TIME components and populate the SDTMIG variable DVSTDTC in ISO 8601 format.", "name": "DVSTDAT", "ordinal": "9", "prompt": "Start Date", "questionText": "What was the protocol deviation start date?", "simpleDatatype": "Char"}, {"_links": {"implements": {"href": "/mdr/cdash/1-0/classes/Timing/fields/--STTIM", "title": "Start Time of Observation", "type": "Class Variable"}, "parentDomain": {"href": "/mdr/cdashig/2-0/domains/DV", "title": "Protocol Deviation", "type": "CDASH Domain"}, "parentProduct": {"href": "/mdr/cdashig/2-0", "title": "Clinical Data Acquisition Standards Harmonization Implementation Guide for Human Clinical Trials Version 2.0", "type": "Implementation Guide"}, "priorVersion": {"href": "/mdr/cdashig/1-1-1/domains/DV/fields/DVSTTIM", "type": "Data Collection Field"}, "rootItem": {"href": "/mdr/root/cdashig/domains/DV/fields/DVSTTIM", "title": "Version-agnostic anchor element for field DV.DVSTTIM", "type": "Root Data Element"}, "sdtmigDatasetMappingTargets": [{"href": "/mdr/sdtmig/3-2/datasets/DV/variables/DVSTDTC", "title": "Start Date/Time of Deviation", "type": "SDTM Dataset Variable"}], "self": {"href": "/mdr/cdashig/2-0/domains/DV/fields/DVSTTIM", "title": "End Time of Deviation", "type": "Data Collection Field"}}, "completionInstructions": "If appropriate, record the start time (as complete as possible) of the protocol deviation in an unambiguous time format (e.g.,., hh:mm:ss). This should be the start or occurrence of the protocol deviation and not the time it was discovered or reported.", "core": "O", "definition": "The start time of the deviation represented in an unambiguous time format (e.g., hh:mm:ss).", "implementationNotes": "N/A", "label": "End Time of Deviation", "mappingInstructions": "This does not map directly to an SDTMIG variable. For the SDTM submission dataset, concatenate all collected CDASH START DATE and TIME components and populate the SDTMIG variable DVSTDTC in ISO 8601 format.", "name": "DVSTTIM", "ordinal": "10", "prompt": "Start Time", "questionText": "What was the protocol deviation start time?", "simpleDatatype": "Char"}, {"_links": {"implements": {"href": "/mdr/cdash/1-0/classes/Timing/fields/--ENDAT", "title": "End Date of Observation", "type": "Class Variable"}, "parentDomain": {"href": "/mdr/cdashig/2-0/domains/DV", "title": "Protocol Deviation", "type": "CDASH Domain"}, "parentProduct": {"href": "/mdr/cdashig/2-0", "title": "Clinical Data Acquisition Standards Harmonization Implementation Guide for Human Clinical Trials Version 2.0", "type": "Implementation Guide"}, "priorVersion": {"href": "/mdr/cdashig/1-1-1/domains/DV/fields/DVENDAT", "type": "Data Collection Field"}, "rootItem": {"href": "/mdr/root/cdashig/domains/DV/fields/DVENDAT", "title": "Version-agnostic anchor element for field DV.DVENDAT", "type": "Root Data Element"}, "sdtmigDatasetMappingTargets": [{"href": "/mdr/sdtmig/3-2/datasets/DV/variables/DVENDTC", "title": "End Date/Time of Deviation", "type": "SDTM Dataset Variable"}], "self": {"href": "/mdr/cdashig/2-0/domains/DV/fields/DVENDAT", "title": "Deviation End Date", "type": "Data Collection Field"}}, "completionInstructions": "Record the end date of the protocol deviation using this format (DD-MON-YYYY). This should be the date the protocol deviation stopped and not the date it was discovered or reported.", "core": "O", "definition": "The end date of the deviation represented in an unambiguous date format (e.g., DD-MON-YYYY).", "implementationNotes": "N/A", "label": "Deviation End Date", "mappingInstructions": "This does not map directly to an SDTMIG variable. For the SDTM submission dataset, concatenate all collected CDASH END DATE and TIME components and populate the SDTMIG variable DVENDTC in ISO 8601 format.", "name": "DVENDAT", "ordinal": "11", "prompt": "End Date", "questionText": "What was the protocol deviation end date?", "simpleDatatype": "Char"}, {"_links": {"implements": {"href": "/mdr/cdash/1-0/classes/Timing/fields/--ENTIM", "title": "End Time of Observation", "type": "Class Variable"}, "parentDomain": {"href": "/mdr/cdashig/2-0/domains/DV", "title": "Protocol Deviation", "type": "CDASH Domain"}, "parentProduct": {"href": "/mdr/cdashig/2-0", "title": "Clinical Data Acquisition Standards Harmonization Implementation Guide for Human Clinical Trials Version 2.0", "type": "Implementation Guide"}, "priorVersion": {"href": "/mdr/cdashig/1-1-1/domains/DV/fields/DVENTIM", "type": "Data Collection Field"}, "rootItem": {"href": "/mdr/root/cdashig/domains/DV/fields/DVENTIM", "title": "Version-agnostic anchor element for field DV.DVENTIM", "type": "Root Data Element"}, "sdtmigDatasetMappingTargets": [{"href": "/mdr/sdtmig/3-2/datasets/DV/variables/DVENDTC", "title": "End Date/Time of Deviation", "type": "SDTM Dataset Variable"}], "self": {"href": "/mdr/cdashig/2-0/domains/DV/fields/DVENTIM", "title": "End Time of Deviation", "type": "Data Collection Field"}}, "completionInstructions": "If appropriate, record the end time (as complete as possible) of the protocol deviation in an unambiguous time format (e.g., hh:mm:ss). This should be the time the protocol deviation stopped and not the time it was discovered or reported.", "core": "O", "definition": "The end time of the deviation represented in an unambiguous time format (e.g., hh:mm:ss).", "implementationNotes": "N/A", "label": "End Time of Deviation", "mappingInstructions": "This does not map directly to an SDTMIG variable. For the SDTM submission dataset, concatenate all collected CDASH END DATE and TIME components and populate the SDTMIG variable DVENDTC in ISO 8601 format.", "name": "DVENTIM", "ordinal": "12", "prompt": "End Time", "questionText": "What was the protocol deviation end time?", "simpleDatatype": "Char"}, {"_links": {"implements": {"href": "/mdr/cdash/1-0/classes/Identifiers/fields/--SPID", "title": "Sponsor-Defined Identifier", "type": "Class Variable"}, "parentDomain": {"href": "/mdr/cdashig/2-0/domains/DV", "title": "Protocol Deviation", "type": "CDASH Domain"}, "parentProduct": {"href": "/mdr/cdashig/2-0", "title": "Clinical Data Acquisition Standards Harmonization Implementation Guide for Human Clinical Trials Version 2.0", "type": "Implementation Guide"}, "priorVersion": {"href": "/mdr/cdashig/1-1-1/domains/DV/fields/DVSPID", "type": "Data Collection Field"}, "rootItem": {"href": "/mdr/root/cdashig/domains/DV/fields/DVSPID", "title": "Version-agnostic anchor element for field DV.DVSPID", "type": "Root Data Element"}, "sdtmigDatasetMappingTargets": [{"href": "/mdr/sdtmig/3-2/datasets/DV/variables/DVSPID", "title": "Sponsor-Defined Identifier", "type": "SDTM Dataset Variable"}], "self": {"href": "/mdr/cdashig/2-0/domains/DV/fields/DVSPID", "title": "Protocol Deviation Sponsor-Defined Identifier", "type": "Data Collection Field"}}, "completionInstructions": "If collected on the CRF, sponsor may insert instructions to ensure each record has a unique identifier.", "core": "O", "definition": "A sponsor-defined identifier which can be used for pre-printed or auto-generated numbers on the CRF.", "implementationNotes": "Since SPID is a sponsor-defined identifier, conformance to Question Text or Item Prompt is not applicable. Typically used as an identifier in a data query to communicate clearly to the site the specific record in question or to reconcile data. May be used to record pre-printed number (e.g. line number, record number) on the CRF. This field may be populated by the sponsor's data collection system.", "label": "Protocol Deviation Sponsor-Defined Identifier", "mappingInstructions": "Maps directly to the SDTMIG variable listed in the column with the heading \"SDTMIG Target\". May be used to create RELREC to link this record with a record in another domain.", "name": "DVSPID", "ordinal": "13", "prompt": "[Line Number/ DV Number]", "questionText": "What is the protocol deviation identifier?", "simpleDatatype": "Char"}], "label": "Protocol Deviation", "name": "DV", "ordinal": "11"}
