{"_links": {"parentClass": {"href": "/mdr/cdashig/2-0/classes/Events", "title": "Events Observation Class", "type": "Class"}, "parentProduct": {"href": "/mdr/cdashig/2-0", "title": "Clinical Data Acquisition Standards Harmonization Implementation Guide for Human Clinical Trials Version 2.0", "type": "Implementation Guide"}, "self": {"href": "/mdr/cdashig/2-0/domains/HO", "title": "Healthcare Encounters", "type": "CDASH Domain"}}, "fields": [{"_links": {"implements": {"href": "/mdr/cdash/1-0/classes/Identifiers/fields/STUDYID", "title": "Study Identifier", "type": "Class Variable"}, "parentDomain": {"href": "/mdr/cdashig/2-0/domains/HO", "title": "Healthcare Encounters", "type": "CDASH Domain"}, "parentProduct": {"href": "/mdr/cdashig/2-0", "title": "Clinical Data Acquisition Standards Harmonization Implementation Guide for Human Clinical Trials Version 2.0", "type": "Implementation Guide"}, "rootItem": {"href": "/mdr/root/cdashig/domains/HO/fields/STUDYID", "title": "Version-agnostic anchor element for field HO.STUDYID", "type": "Root Data Element"}, "sdtmigDatasetMappingTargets": [{"href": "/mdr/sdtmig/3-2/datasets/HO/variables/STUDYID", "title": "Study Identifier", "type": "SDTM Dataset Variable"}], "self": {"href": "/mdr/cdashig/2-0/domains/HO/fields/STUDYID", "title": "Study Identifier", "type": "Data Collection Field"}}, "core": "HR", "definition": "A unique identifier for a study.", "implementationNotes": "While this field is not typically captured on a CRF, it should be displayed clearly on the CRF and/or the EDC system. This field can be included into the database or populated during SDTM- based dataset creation before submission.", "label": "Study Identifier", "mappingInstructions": "Maps directly to the SDTMIG variable listed in the column with the heading \"SDTMIG Target\".", "name": "STUDYID", "ordinal": "1", "prompt": "[Protocol/Study]", "questionText": "What is the study identifier?", "simpleDatatype": "Char"}, {"_links": {"implements": {"href": "/mdr/cdash/1-0/domains/DM/fields/SITEID", "title": "Study Site Identifier", "type": "Data Collection Field"}, "parentDomain": {"href": "/mdr/cdashig/2-0/domains/HO", "title": "Healthcare Encounters", "type": "CDASH Domain"}, "parentProduct": {"href": "/mdr/cdashig/2-0", "title": "Clinical Data Acquisition Standards Harmonization Implementation Guide for Human Clinical Trials Version 2.0", "type": "Implementation Guide"}, "rootItem": {"href": "/mdr/root/cdashig/domains/HO/fields/SITEID", "title": "Version-agnostic anchor element for field HO.SITEID", "type": "Root Data Element"}, "sdtmigDatasetMappingTargets": [{"href": "/mdr/sdtmig/3-2/datasets/DM/variables/SITEID", "title": "Study Site Identifier", "type": "SDTM Dataset Variable"}], "self": {"href": "/mdr/cdashig/2-0/domains/HO/fields/SITEID", "title": "Study Site Identifier", "type": "Data Collection Field"}}, "core": "HR", "definition": "A unique identifier for a site within a study.", "implementationNotes": "Paper: This is typically preprinted in the header of each CRF page for single site studies. For studies with multiple sites, this field may be left blank so that the number can be recorded by the site, or it may be preprinted for the CRFs that are shipped to each site. EDC: This should be prepopulated.", "label": "Study Site Identifier", "mappingInstructions": "Maps directly to the SDTMIG variable listed in the column with the heading \"SDTMIG Target\".", "name": "SITEID", "ordinal": "2", "prompt": "Site (Identifier)", "questionText": "What is the site identifier?", "simpleDatatype": "Char"}, {"_links": {"implements": {"href": "/mdr/cdash/1-0/classes/Identifiers/fields/SUBJID", "title": "Subject Identifier for the Study", "type": "Class Variable"}, "parentDomain": {"href": "/mdr/cdashig/2-0/domains/HO", "title": "Healthcare Encounters", "type": "CDASH Domain"}, "parentProduct": {"href": "/mdr/cdashig/2-0", "title": "Clinical Data Acquisition Standards Harmonization Implementation Guide for Human Clinical Trials Version 2.0", "type": "Implementation Guide"}, "rootItem": {"href": "/mdr/root/cdashig/domains/HO/fields/SUBJID", "title": "Version-agnostic anchor element for field HO.SUBJID", "type": "Root Data Element"}, "sdtmigDatasetMappingTargets": [{"href": "/mdr/sdtmig/3-2/datasets/DM/variables/SUBJID", "title": "Subject Identifier for the Study", "type": "SDTM Dataset Variable"}], "self": {"href": "/mdr/cdashig/2-0/domains/HO/fields/SUBJID", "title": "Subject Identifier for the Study", "type": "Data Collection Field"}}, "completionInstructions": "Record the identifier for the subject.", "core": "HR", "definition": "A unique subject identifier within a site and a study.", "implementationNotes": "Paper: This is typically recorded in the header of each CRF page. EDC: The subject identifiers may be provided to the site using a pre-populated list in the system. This CDASH variable is typically collected in all CDASH domains. However, this CDASH variable is populated only in the SDTMIG DM domain. For more information, refer to Study Data Tabulation Model.", "label": "Subject Identifier for the Study", "mappingInstructions": "Maps directly to the SDTMIG variable listed in the column with the heading \"SDTMIG Target\".", "name": "SUBJID", "ordinal": "3", "prompt": "Subject", "questionText": "What is the subject identifier?", "simpleDatatype": "Char"}, {"_links": {"implements": {"href": "/mdr/cdash/1-0/classes/Events/fields/--CSTAT", "title": "Collected Completion Status", "type": "Class Variable"}, "parentDomain": {"href": "/mdr/cdashig/2-0/domains/HO", "title": "Healthcare Encounters", "type": "CDASH Domain"}, "parentProduct": {"href": "/mdr/cdashig/2-0", "title": "Clinical Data Acquisition Standards Harmonization Implementation Guide for Human Clinical Trials Version 2.0", "type": "Implementation Guide"}, "rootItem": {"href": "/mdr/root/cdashig/domains/HO/fields/HOCSTAT", "title": "Version-agnostic anchor element for field HO.HOCSTAT", "type": "Root Data Element"}, "sdtmigDatasetMappingTargets": [{"href": "/mdr/sdtmig/3-2/datasets/HO/variables/HOSTAT", "title": "Completion Status", "type": "SDTM Dataset Variable"}], "self": {"href": "/mdr/cdashig/2-0/domains/HO/fields/HOCSTAT", "title": "Healthcare Encounters Collected Completion Status", "type": "Data Collection Field"}}, "completionInstructions": "Indicate if the healthcare encounter data was not collected.", "core": "O", "definition": "The variable used to indicate that data are not available by having the site recording a sponsor-defined value (e.g., Not Collected/Not Evaluated/Not Assessed/Not Available/Not Answered)", "implementationNotes": "A check box used to indicate that data collection was \"NOT COLLECTED\". It cannot be used to indicate that a healthcare encounter did not occur. This variable may only be populated if HOOCCUR is null.", "label": "Healthcare Encounters Collected Completion Status", "mappingInstructions": "This does not map directly to an SDTMIG variable. For the SDTM-based dataset, the SDTMIG variable HOSTAT is populated by mapping the value of the CDASH variable HOCSTAT \"NOT COLLECTED\" to \"NOT DONE\".", "name": "HOCSTAT", "ordinal": "4", "prompt": "Not Collected", "questionText": "Was the healthcare encounter data collected?", "simpleDatatype": "Char"}, {"_links": {"codelist": [{"href": "/mdr/root/ct/sdtmct/codelists/C66742", "title": "Version-agnostic anchor resource for codelist C66742", "type": "Root Value Domain"}], "implements": {"href": "/mdr/cdash/1-0/classes/Events/fields/--YN", "title": "Any [Event]", "type": "Class Variable"}, "parentDomain": {"href": "/mdr/cdashig/2-0/domains/HO", "title": "Healthcare Encounters", "type": "CDASH Domain"}, "parentProduct": {"href": "/mdr/cdashig/2-0", "title": "Clinical Data Acquisition Standards Harmonization Implementation Guide for Human Clinical Trials Version 2.0", "type": "Implementation Guide"}, "rootItem": {"href": "/mdr/root/cdashig/domains/HO/fields/HOYN", "title": "Version-agnostic anchor element for field HO.HOYN", "type": "Root Data Element"}, "self": {"href": "/mdr/cdashig/2-0/domains/HO/fields/HOYN", "title": "Any Healthcare Encounters", "type": "Data Collection Field"}}, "completionInstructions": "Indicate if the subject experienced any healthcare encounters. If yes, include the appropriate details where indicated on the CRF.", "core": "O", "definition": "An indication whether or not there were any healthcare encounters.", "implementationNotes": "The intent/purpose of collecting this field is to help with data cleaning and monitoring. It provides verification if all other fields on the CRF were deliberately left blank.", "label": "Any Healthcare Encounters", "mappingInstructions": "Does not map to an SDTMIG variable. The SDTM Annotated CRF is annotated to indicate that this field is NOT SUBMITTED.", "name": "HOYN", "ordinal": "5", "prompt": "Any Healthcare Encounters", "questionText": "Were there any healthcare encounters?", "simpleDatatype": "Char"}, {"_links": {"implements": {"href": "/mdr/cdash/1-0/classes/Events/fields/--CAT", "title": "Category", "type": "Class Variable"}, "parentDomain": {"href": "/mdr/cdashig/2-0/domains/HO", "title": "Healthcare Encounters", "type": "CDASH Domain"}, "parentProduct": {"href": "/mdr/cdashig/2-0", "title": "Clinical Data Acquisition Standards Harmonization Implementation Guide for Human Clinical Trials Version 2.0", "type": "Implementation Guide"}, "rootItem": {"href": "/mdr/root/cdashig/domains/HO/fields/HOCAT", "title": "Version-agnostic anchor element for field HO.HOCAT", "type": "Root Data Element"}, "sdtmigDatasetMappingTargets": [{"href": "/mdr/sdtmig/3-2/datasets/HO/variables/HOCAT", "title": "Category for Healthcare Encounter", "type": "SDTM Dataset Variable"}], "self": {"href": "/mdr/cdashig/2-0/domains/HO/fields/HOCAT", "title": "Category for Healthcare Encounters", "type": "Data Collection Field"}}, "completionInstructions": "If collected on the CRF, the sponsor provides instructions to ensure the data is entered as intended.", "core": "O", "definition": "A grouping of topic-variable values based on user defined characteristics.", "implementationNotes": "Sponsor-defined Controlled Terminology. This would most commonly be either a heading, or a pre-printed category value on the CRF and not a question to which the site would provide an answer. If a question is asked, the response would typically be a sponsor-defined codelist. If the form is laid out as a grid, then words such as \"Category\" can be included as the column header. Examples include HOSPITALIZATION and OUTPATIENT.", "label": "Category for Healthcare Encounters", "mappingInstructions": "Maps directly to the SDTMIG variable listed in the column with the heading \"SDTMIG Target\".", "name": "HOCAT", "ordinal": "6", "prompt": "[Healthcare Encounter Category]; NULL", "questionText": "What was the category of the healthcare encounter?", "simpleDatatype": "Char"}, {"_links": {"implements": {"href": "/mdr/cdash/1-0/classes/Events/fields/--SCAT", "title": "Subcategory", "type": "Class Variable"}, "parentDomain": {"href": "/mdr/cdashig/2-0/domains/HO", "title": "Healthcare Encounters", "type": "CDASH Domain"}, "parentProduct": {"href": "/mdr/cdashig/2-0", "title": "Clinical Data Acquisition Standards Harmonization Implementation Guide for Human Clinical Trials Version 2.0", "type": "Implementation Guide"}, "rootItem": {"href": "/mdr/root/cdashig/domains/HO/fields/HOSCAT", "title": "Version-agnostic anchor element for field HO.HOSCAT", "type": "Root Data Element"}, "sdtmigDatasetMappingTargets": [{"href": "/mdr/sdtmig/3-2/datasets/HO/variables/HOSCAT", "title": "Subcategory for Healthcare Encounter", "type": "SDTM Dataset Variable"}], "self": {"href": "/mdr/cdashig/2-0/domains/HO/fields/HOSCAT", "title": "Subcategory for Healthcare Encounters", "type": "Data Collection Field"}}, "completionInstructions": "If collected on the CRF, the sponsor provides instructions to ensure the data is entered as intended.", "core": "O", "definition": "A sub-division of the HOCAT values based on user defined characteristics.", "implementationNotes": "Sponsor-defined Controlled Terminology. This would most commonly be pre-printed on the CRF or screen and pre-populated in the data management system. This is not typically a question to which the site would provide an answer. HOSCAT can only be used if there is an HOCAT and it must be a subcategorization of HOCAT.", "label": "Subcategory for Healthcare Encounters", "mappingInstructions": "Maps directly to the SDTMIG variable listed in the column with the heading \"SDTMIG Target\".", "name": "HOSCAT", "ordinal": "7", "prompt": "[Healthcare Encounter Subcategory]; NULL", "questionText": "What was the subcategory of the healthcare encounter?", "simpleDatatype": "Char"}, {"_links": {"codelist": [{"href": "/mdr/root/ct/sdtmct/codelists/C66742", "title": "Version-agnostic anchor resource for codelist C66742", "type": "Root Value Domain"}], "implements": {"href": "/mdr/cdash/1-0/classes/Events/fields/--OCCUR", "title": "Occurrence", "type": "Class Variable"}, "parentDomain": {"href": "/mdr/cdashig/2-0/domains/HO", "title": "Healthcare Encounters", "type": "CDASH Domain"}, "parentProduct": {"href": "/mdr/cdashig/2-0", "title": "Clinical Data Acquisition Standards Harmonization Implementation Guide for Human Clinical Trials Version 2.0", "type": "Implementation Guide"}, "rootItem": {"href": "/mdr/root/cdashig/domains/HO/fields/HOOCCUR", "title": "Version-agnostic anchor element for field HO.HOOCCUR", "type": "Root Data Element"}, "sdtmigDatasetMappingTargets": [{"href": "/mdr/sdtmig/3-2/datasets/HO/variables/HOOCCUR", "title": "Healthcare Encounter Occurrence", "type": "SDTM Dataset Variable"}], "self": {"href": "/mdr/cdashig/2-0/domains/HO/fields/HOOCCUR", "title": "Healthcare Encounter Occurrence", "type": "Data Collection Field"}}, "completionInstructions": "Indicate if [specific healthcare encounter/event topic] has occurred/is occurring by checking Yes or No.", "core": "O", "definition": "An indication whether a health encounter occurred when information about the occurrence of a specific event is solicited.", "implementationNotes": "The CDASH variable HOOCCUR is used is used to report the occurrence of a pre-specified healthcare encounter. HOOCCUR is not used if the healthcare encounters are collected on the CRF in a manner that requires a free-flow text response. The site should be able to indicate in a separate item (or system variable) that the question was not asked or answered.", "label": "Healthcare Encounter Occurrence", "mappingInstructions": "Maps directly to the SDTMIG variable listed in the column with the heading \"SDTMIG Target\".", "name": "HOOCCUR", "ordinal": "8", "prompt": "[Pre-Specified Healthcare Encounter Term]", "questionText": "Did the subject have [pre-specified healthcare encounter term]?", "simpleDatatype": "Char"}, {"_links": {"implements": {"href": "/mdr/cdash/1-0/classes/Events/fields/--REASND", "title": "Reason Not Done", "type": "Class Variable"}, "parentDomain": {"href": "/mdr/cdashig/2-0/domains/HO", "title": "Healthcare Encounters", "type": "CDASH Domain"}, "parentProduct": {"href": "/mdr/cdashig/2-0", "title": "Clinical Data Acquisition Standards Harmonization Implementation Guide for Human Clinical Trials Version 2.0", "type": "Implementation Guide"}, "rootItem": {"href": "/mdr/root/cdashig/domains/HO/fields/HOREASND", "title": "Version-agnostic anchor element for field HO.HOREASND", "type": "Root Data Element"}, "sdtmigDatasetMappingTargets": [{"href": "/mdr/sdtmig/3-2/datasets/HO/variables/HOREASND", "title": "Reason Healthcare Encounter Not Done", "type": "SDTM Dataset Variable"}], "self": {"href": "/mdr/cdashig/2-0/domains/HO/fields/HOREASND", "title": "Healthcare Encounter Reason Not Done", "type": "Data Collection Field"}}, "completionInstructions": "Provide the reason why the subject's Healthcare Encounters experience was not assessed.", "core": "O", "definition": "An explanation of why the data are not available.", "implementationNotes": "The reason the data are not available may be chosen from a sponsor defined list (for example, subject not asked, etc.) or entered as free text. When HOREASND is used, the SDTMIG variable HOSTAT should also be populated in the SDTM-based dataset.", "label": "Healthcare Encounter Reason Not Done", "mappingInstructions": "Maps directly to the SDTMIG variable listed in the column with the heading \"SDTMIG Target\".", "name": "HOREASND", "ordinal": "9", "prompt": "Reason Not Collected", "questionText": "What was the reason the data was not collected?", "simpleDatatype": "Char"}, {"_links": {"implements": {"href": "/mdr/cdash/1-0/classes/Identifiers/fields/--SPID", "title": "Sponsor-Defined Identifier", "type": "Class Variable"}, "parentDomain": {"href": "/mdr/cdashig/2-0/domains/HO", "title": "Healthcare Encounters", "type": "CDASH Domain"}, "parentProduct": {"href": "/mdr/cdashig/2-0", "title": "Clinical Data Acquisition Standards Harmonization Implementation Guide for Human Clinical Trials Version 2.0", "type": "Implementation Guide"}, "rootItem": {"href": "/mdr/root/cdashig/domains/HO/fields/HOSPID", "title": "Version-agnostic anchor element for field HO.HOSPID", "type": "Root Data Element"}, "sdtmigDatasetMappingTargets": [{"href": "/mdr/sdtmig/3-2/datasets/HO/variables/HOSPID", "title": "Sponsor-Defined Identifier", "type": "SDTM Dataset Variable"}], "self": {"href": "/mdr/cdashig/2-0/domains/HO/fields/HOSPID", "title": "Healthcare Encounter Sponsor-Defined Identifier", "type": "Data Collection Field"}}, "completionInstructions": "If collected on the CRF, sponsor may insert instructions to ensure each record has a unique identifier.", "core": "O", "definition": "A sponsor-defined identifier which can be used for pre-printed or auto-generated numbers on the CRF.", "implementationNotes": "Since SPID is a sponsor-defined identifier, conformance to Question Text or Item Prompt is not applicable. Typically used as an identifier in a data query to communicate clearly to the site the specific record in question or to reconcile data. May be used to record pre-printed number (e.g. line number, record number) on the CRF. This field may be populated by the sponsor's data collection system.", "label": "Healthcare Encounter Sponsor-Defined Identifier", "mappingInstructions": "Maps directly to the SDTMIG variable listed in the column with the heading \"SDTMIG Target\". May be used to create RELREC to link this record with a record in another domain.", "name": "HOSPID", "ordinal": "11", "prompt": "[Line Number/HO number]", "questionText": "What was the healthcare encounter identifier?", "simpleDatatype": "Char"}, {"_links": {"implements": {"href": "/mdr/cdash/1-0/classes/Events/fields/--TERM", "title": "Reported Term", "type": "Class Variable"}, "parentDomain": {"href": "/mdr/cdashig/2-0/domains/HO", "title": "Healthcare Encounters", "type": "CDASH Domain"}, "parentProduct": {"href": "/mdr/cdashig/2-0", "title": "Clinical Data Acquisition Standards Harmonization Implementation Guide for Human Clinical Trials Version 2.0", "type": "Implementation Guide"}, "rootItem": {"href": "/mdr/root/cdashig/domains/HO/fields/HOTERM", "title": "Version-agnostic anchor element for field HO.HOTERM", "type": "Root Data Element"}, "sdtmigDatasetMappingTargets": [{"href": "/mdr/sdtmig/3-2/datasets/HO/variables/HOTERM", "title": "Reported Term for the Healthcare Encounter", "type": "SDTM Dataset Variable"}], "self": {"href": "/mdr/cdashig/2-0/domains/HO/fields/HOTERM", "title": "Healthcare Encounter Reported Term", "type": "Data Collection Field"}}, "completionInstructions": "Record the healthcare encounter or if used with a HODECOD list, \"Other\" specify.", "core": "HR", "definition": "The reported or pre-specified name of the healthcare encounter.", "implementationNotes": "If collected on the CRF, sponsors must use either HODECOD or HOTERM and in some cases, both may be used. If the CRF is collecting healthcare encounters using a standardized sponsor defined code list (e.g., INPATIENT ER, ICU, SURGERY, and GENERAL WARD, PROVIDER OFFICE - PRIVATE, PROVIDER OFFICE - HOSPITAL, GASTROENTEROLOGGIST), then HODECOD may be used to store the code list response. If the CRF collects \"Specify, Other\" or similar additional free text descriptions of code list items, then HOTERM may be used to store the detailed descriptive text. If HOTERM is entered only as free text, HODECOD would be populated through the sponsor's coding process.", "label": "Healthcare Encounter Reported Term", "mappingInstructions": "Maps directly to the SDTMIG variable listed in the column with the heading \"SDTMIG Target\".", "name": "HOTERM", "ordinal": "12", "prompt": "[Healthcare Encounter]; [Specify]", "questionText": "What was the healthcare encounter?; If [HODECOD], specify", "simpleDatatype": "Char"}, {"_links": {"implements": {"href": "/mdr/cdash/1-0/classes/Events/fields/--DECOD", "title": "Dictionary-Derived/Standardized Term", "type": "Class Variable"}, "parentDomain": {"href": "/mdr/cdashig/2-0/domains/HO", "title": "Healthcare Encounters", "type": "CDASH Domain"}, "parentProduct": {"href": "/mdr/cdashig/2-0", "title": "Clinical Data Acquisition Standards Harmonization Implementation Guide for Human Clinical Trials Version 2.0", "type": "Implementation Guide"}, "rootItem": {"href": "/mdr/root/cdashig/domains/HO/fields/HODECOD", "title": "Version-agnostic anchor element for field HO.HODECOD", "type": "Root Data Element"}, "sdtmigDatasetMappingTargets": [{"href": "/mdr/sdtmig/3-2/datasets/HO/variables/HODECOD", "title": "Dictionary-Derived Term for the Healthcare Encounter", "type": "SDTM Dataset Variable"}], "self": {"href": "/mdr/cdashig/2-0/domains/HO/fields/HODECOD", "title": "Healthcare Encounter Dictionary or Standardized Term", "type": "Data Collection Field"}}, "completionInstructions": "Select the healthcare encounter.", "core": "R/C", "definition": "The dictionary or sponsor-defined standardized text description of HOTERM or the modified topic variable (HOMODIFY), if applicable.", "implementationNotes": "If collected on the CRF, sponsors must use either HODECOD or HOTERM and in some cases, both may be used. If the CRF is collecting healthcare encounters using a standardized sponsor defined code list (e.g., INPATIENT ER, ICU, SURGERY, and GENERAL WARD, PROVIDER OFFICE - PRIVATE, PROVIDER OFFICE - HOSPITAL, GASTROENTEROLOGGIST), then HODECOD may be used to store the code list response. If the CRF collects \"Specify, Other\" or similar additional free text descriptions of code list items, then HOTERM may be used to store the detailed descriptive text. If HOTERM is entered only as free text, HODECOD would be populated through the sponsor's coding process.", "label": "Healthcare Encounter Dictionary or Standardized Term", "mappingInstructions": "Maps directly to the SDTMIG variable listed in the column with the heading \"SDTMIG Target\".", "name": "HODECOD", "ordinal": "13", "prompt": "(Standardized) Healthcare Encounter (Term)", "questionText": "What was the (standardized) healthcare encounter (term/code)?", "simpleDatatype": "Char"}, {"_links": {"implements": {"href": "/mdr/cdash/1-0/classes/Timing/fields/--STDAT", "title": "Start Date of Observation", "type": "Class Variable"}, "parentDomain": {"href": "/mdr/cdashig/2-0/domains/HO", "title": "Healthcare Encounters", "type": "CDASH Domain"}, "parentProduct": {"href": "/mdr/cdashig/2-0", "title": "Clinical Data Acquisition Standards Harmonization Implementation Guide for Human Clinical Trials Version 2.0", "type": "Implementation Guide"}, "rootItem": {"href": "/mdr/root/cdashig/domains/HO/fields/HOSTDAT", "title": "Version-agnostic anchor element for field HO.HOSTDAT", "type": "Root Data Element"}, "sdtmigDatasetMappingTargets": [{"href": "/mdr/sdtmig/3-2/datasets/HO/variables/HOSTDTC", "title": "Start Date/Time of Healthcare Encounter", "type": "SDTM Dataset Variable"}], "self": {"href": "/mdr/cdashig/2-0/domains/HO/fields/HOSTDAT", "title": "Healthcare Encounter Start Date", "type": "Data Collection Field"}}, "completionInstructions": "Record the start date of the healthcare encounter (e.g., date of admission) using this format (DD-MON-YYYY).", "core": "O", "definition": "The start date the healthcare encounter represented in an unambiguous date format (e.g., DD-MON-YYYY).", "implementationNotes": "The preferred method is to collect a complete Start Date. Partial dates (e.g., providing year only or month and year only) may be acceptable.", "label": "Healthcare Encounter Start Date", "mappingInstructions": "This does not map directly to an SDTMIG variable. For the SDTM submission dataset, concatenate all collected CDASH START DATE and TIME components and populate the SDTMIG variable HOSTDTC in ISO 8601 format.", "name": "HOSTDAT", "ordinal": "14", "prompt": "[Start/Admission] Date", "questionText": "What was the [healthcare encounter/HOTERM] [start/admission] date?", "simpleDatatype": "Char"}, {"_links": {"implements": {"href": "/mdr/cdash/1-0/classes/Timing/fields/--STTIM", "title": "Start Time of Observation", "type": "Class Variable"}, "parentDomain": {"href": "/mdr/cdashig/2-0/domains/HO", "title": "Healthcare Encounters", "type": "CDASH Domain"}, "parentProduct": {"href": "/mdr/cdashig/2-0", "title": "Clinical Data Acquisition Standards Harmonization Implementation Guide for Human Clinical Trials Version 2.0", "type": "Implementation Guide"}, "rootItem": {"href": "/mdr/root/cdashig/domains/HO/fields/HOSTTIM", "title": "Version-agnostic anchor element for field HO.HOSTTIM", "type": "Root Data Element"}, "sdtmigDatasetMappingTargets": [{"href": "/mdr/sdtmig/3-2/datasets/HO/variables/HOSTDTC", "title": "Start Date/Time of Healthcare Encounter", "type": "SDTM Dataset Variable"}], "self": {"href": "/mdr/cdashig/2-0/domains/HO/fields/HOSTTIM", "title": "Healthcare Encounter Start Time", "type": "Data Collection Field"}}, "completionInstructions": "Record the start time (as complete as possible ) of the healthcare encounter in an unambiguous time format (e.g., hh:mm:ss).", "core": "O", "definition": "The start time of the healthcare encounter (e.g., time of admission) represented in an unambiguous time format (e.g., hh:mm:ss).", "implementationNotes": "N/A", "label": "Healthcare Encounter Start Time", "mappingInstructions": "This does not map directly to an SDTMIG variable. For the SDTM submission dataset, concatenate all collected CDASH START DATE and TIME components and populate the SDTMIG variable HOSTDTC in ISO 8601 format.", "name": "HOSTTIM", "ordinal": "15", "prompt": "[Start/Admission] Time", "questionText": "What was the [healthcare encounter/HOTERM] [start/admission] time?", "simpleDatatype": "Char"}, {"_links": {"implements": {"href": "/mdr/cdash/1-0/classes/Timing/fields/--ENDAT", "title": "End Date of Observation", "type": "Class Variable"}, "parentDomain": {"href": "/mdr/cdashig/2-0/domains/HO", "title": "Healthcare Encounters", "type": "CDASH Domain"}, "parentProduct": {"href": "/mdr/cdashig/2-0", "title": "Clinical Data Acquisition Standards Harmonization Implementation Guide for Human Clinical Trials Version 2.0", "type": "Implementation Guide"}, "rootItem": {"href": "/mdr/root/cdashig/domains/HO/fields/HOENDAT", "title": "Version-agnostic anchor element for field HO.HOENDAT", "type": "Root Data Element"}, "sdtmigDatasetMappingTargets": [{"href": "/mdr/sdtmig/3-2/datasets/HO/variables/HOENDTC", "title": "End Date/Time of Healthcare Encounter", "type": "SDTM Dataset Variable"}], "self": {"href": "/mdr/cdashig/2-0/domains/HO/fields/HOENDAT", "title": "Healthcare Encounter End Date", "type": "Data Collection Field"}}, "completionInstructions": "Record the end date of the healthcare encounter using this format (DD-MON-YYYY).", "core": "O", "definition": "The end date of the healthcare encounter (date of discharge) represented in an unambiguous date format (e.g., DD-MON-YYYY).", "implementationNotes": "The preferred method is to collect a complete end date. Partial dates (e.g., providing year only or month and year only) may be acceptable.", "label": "Healthcare Encounter End Date", "mappingInstructions": "This does not map directly to an SDTMIG variable. For the SDTM submission dataset, concatenate all collected CDASH END DATE and TIME components and populate the SDTMIG variable HOENDTC in ISO 8601 format.", "name": "HOENDAT", "ordinal": "16", "prompt": "[End/Discharge] Date", "questionText": "What was the [healthcare encounter/HOTERM] [end/discharge] date?", "simpleDatatype": "Char"}, {"_links": {"implements": {"href": "/mdr/cdash/1-0/classes/Timing/fields/--ENTIM", "title": "End Time of Observation", "type": "Class Variable"}, "parentDomain": {"href": "/mdr/cdashig/2-0/domains/HO", "title": "Healthcare Encounters", "type": "CDASH Domain"}, "parentProduct": {"href": "/mdr/cdashig/2-0", "title": "Clinical Data Acquisition Standards Harmonization Implementation Guide for Human Clinical Trials Version 2.0", "type": "Implementation Guide"}, "rootItem": {"href": "/mdr/root/cdashig/domains/HO/fields/HOENTIM", "title": "Version-agnostic anchor element for field HO.HOENTIM", "type": "Root Data Element"}, "sdtmigDatasetMappingTargets": [{"href": "/mdr/sdtmig/3-2/datasets/HO/variables/HOENDTC", "title": "End Date/Time of Healthcare Encounter", "type": "SDTM Dataset Variable"}], "self": {"href": "/mdr/cdashig/2-0/domains/HO/fields/HOENTIM", "title": "Healthcare Encounter End Time", "type": "Data Collection Field"}}, "completionInstructions": "Record the end time (as complete as possible) of the healthcare encounter in an unambiguous time format (e.g., hh:mm:ss).", "core": "O", "definition": "The end time of the healthcare encounter (date of discharge) represented in an unambiguous time format (e.g., hh:mm:ss).", "implementationNotes": "N/A", "label": "Healthcare Encounter End Time", "mappingInstructions": "This does not map directly to an SDTMIG variable. For the SDTM submission dataset, concatenate all collected CDASH END DATE and TIME components and populate the SDTMIG variable HOENDTC in ISO 8601 format.", "name": "HOENTIM", "ordinal": "17", "prompt": "[End/Discharge]Time", "questionText": "What was the [healthcare encounter/HOTERM] [end/discharge] time?", "simpleDatatype": "Char"}, {"_links": {"implements": {"href": "/mdr/cdash/1-0/classes/Timing/fields/--CDUR", "title": "Collected Duration", "type": "Class Variable"}, "parentDomain": {"href": "/mdr/cdashig/2-0/domains/HO", "title": "Healthcare Encounters", "type": "CDASH Domain"}, "parentProduct": {"href": "/mdr/cdashig/2-0", "title": "Clinical Data Acquisition Standards Harmonization Implementation Guide for Human Clinical Trials Version 2.0", "type": "Implementation Guide"}, "rootItem": {"href": "/mdr/root/cdashig/domains/HO/fields/HOCDUR", "title": "Version-agnostic anchor element for field HO.HOCDUR", "type": "Root Data Element"}, "sdtmigDatasetMappingTargets": [{"href": "/mdr/sdtmig/3-2/datasets/HO/variables/HODUR", "title": "Duration of Healthcare Encounter", "type": "SDTM Dataset Variable"}], "self": {"href": "/mdr/cdashig/2-0/domains/HO/fields/HOCDUR", "title": "Healthcare Encounter Collected Duration", "type": "Data Collection Field"}}, "completionInstructions": "Provide the duration of the healthcare encounter.", "core": "O", "definition": "Collected duration of the healthcare encounter.", "implementationNotes": "Collected duration of the healthcare encounter. Used only if collected on the CRF and not derived from the start and end date/times.", "label": "Healthcare Encounter Collected Duration", "mappingInstructions": "This does not map directly to an SDTMIG variable. For the SDTM-based dataset, concatenate the CDASH collected duration and collected duration unit and populate the SDTMIG variable HODUR in ISO 8601 Period format. Example: P1DT2H (for 1 day, 2 hours).", "name": "HOCDUR", "ordinal": "18", "prompt": "Duration", "questionText": "What was the duration of the [healthcare encounter/HOTERM]?", "simpleDatatype": "Char"}, {"_links": {"codelist": [{"href": "/mdr/root/ct/sdtmct/codelists/C71620", "title": "Version-agnostic anchor resource for codelist C71620", "type": "Root Value Domain"}], "implements": {"href": "/mdr/cdash/1-0/classes/Timing/fields/--CDURU", "title": "Collected Duration Unit", "type": "Class Variable"}, "parentDomain": {"href": "/mdr/cdashig/2-0/domains/HO", "title": "Healthcare Encounters", "type": "CDASH Domain"}, "parentProduct": {"href": "/mdr/cdashig/2-0", "title": "Clinical Data Acquisition Standards Harmonization Implementation Guide for Human Clinical Trials Version 2.0", "type": "Implementation Guide"}, "rootItem": {"href": "/mdr/root/cdashig/domains/HO/fields/HOCDURU", "title": "Version-agnostic anchor element for field HO.HOCDURU", "type": "Root Data Element"}, "sdtmigDatasetMappingTargets": [{"href": "/mdr/sdtmig/3-2/datasets/HO/variables/HODUR", "title": "Duration of Healthcare Encounter", "type": "SDTM Dataset Variable"}], "self": {"href": "/mdr/cdashig/2-0/domains/HO/fields/HOCDURU", "title": "Healthcare Encounter Collected Duration Unit", "type": "Data Collection Field"}}, "completionInstructions": "Select the appropriate duration unit of the healthcare encounter.", "core": "O", "definition": "Unit of the collected duration of the healthcare encounter. Used only if duration was collected on the CRF.", "implementationNotes": "To ensure data quality, it is recommended that the appropriate duration unit(s) be preprinted on the (e)CRF. If only one unit is appropriate, no data entry would be required.", "label": "Healthcare Encounter Collected Duration Unit", "mappingInstructions": "This does not map directly to an SDTMIG variable. For the SDTM-based dataset, concatenate the CDASH collected duration and collected duration unit and populate the SDTMIG variable HODUR in ISO 8601 Period format. Example: P1DT2H (for 1 day, 2 hours).", "name": "HOCDURU", "ordinal": "19", "prompt": "(Duration) Unit", "questionText": "What was the duration unit of the [healthcare encounter/HOTERM]?", "simpleDatatype": "Char"}, {"_links": {"codelist": [{"href": "/mdr/root/ct/sdtmct/codelists/C66742", "title": "Version-agnostic anchor resource for codelist C66742", "type": "Root Value Domain"}], "implements": {"href": "/mdr/cdash/1-0/classes/Events/fields/--ONGO", "title": "Ongoing Event", "type": "Class Variable"}, "parentDomain": {"href": "/mdr/cdashig/2-0/domains/HO", "title": "Healthcare Encounters", "type": "CDASH Domain"}, "parentProduct": {"href": "/mdr/cdashig/2-0", "title": "Clinical Data Acquisition Standards Harmonization Implementation Guide for Human Clinical Trials Version 2.0", "type": "Implementation Guide"}, "rootItem": {"href": "/mdr/root/cdashig/domains/HO/fields/HOONGO", "title": "Version-agnostic anchor element for field HO.HOONGO", "type": "Root Data Element"}, "sdtmigDatasetMappingTargets": [{"href": "/mdr/sdtmig/3-2/datasets/HO/variables/HOENRTPT", "title": "End Relative to Reference Time Point", "type": "SDTM Dataset Variable"}], "self": {"href": "/mdr/cdashig/2-0/domains/HO/fields/HOONGO", "title": "Ongoing Healthcare Encounter", "type": "Data Collection Field"}}, "completionInstructions": "Record the healthcare encounter as ongoing ('Y') if it has not ended at the time of data collection and the end date should be left blank.", "core": "O", "definition": "Indication that the encounter is ongoing when no end date is provided.", "implementationNotes": "Completed to indicate that the healthcare encounter has not ended at the time of data collection. It is expected that every reported encounter has either an End Date or the Ongoing field is populated, but not both. The purpose of collecting this field is to help with data cleaning and monitoring, since this field provides further confirmation that the End Date was deliberately left blank See section on Mapping Relative Times from Collection to Submissions and the SDTMIG for more information. Often used as a tick/checkbox. See CDASHIG Section on Mapping Relative Times from Collection to Submissions and the SDTMIG for more information.", "label": "Ongoing Healthcare Encounter", "mappingInstructions": "This does not map directly to an SDTM variable. May be used to populate a value into an SDTMIG relative timing variable such as HOENRF or HOENRTPT. When populating HOENRF, if the value of HOONGO is \"Y\", the value of \"DURING\", \"AFTER\" or \"DURING/AFTER\" may be used. When populating HOENRTPT, if the value of HOONGO is \"Y\", the value of \"ONGOING\" may be used. When HOONGO refers to the Study Reference Period (defined in DM.RFSTDTC to DM.RFENDTC) the SDTMIG variable HOENRF should be populated. When HOONGO is compared to any other time point, the SDTMIG variables HOENRTPT and HOENTPT should be used. Note: HOENRTPT must refer to a time point anchor described in HOENTPT.", "name": "HOONGO", "ordinal": "20", "prompt": "Ongoing", "questionText": "Was the [healthcare encounter/HOTERM] ongoing?", "simpleDatatype": "Char"}, {"_links": {"implements": {"href": "/mdr/cdash/1-0/classes/Events/fields/--REAS", "title": "Reason for the Event", "type": "Class Variable"}, "parentDomain": {"href": "/mdr/cdashig/2-0/domains/HO", "title": "Healthcare Encounters", "type": "CDASH Domain"}, "parentProduct": {"href": "/mdr/cdashig/2-0", "title": "Clinical Data Acquisition Standards Harmonization Implementation Guide for Human Clinical Trials Version 2.0", "type": "Implementation Guide"}, "rootItem": {"href": "/mdr/root/cdashig/domains/HO/fields/HOREAS", "title": "Version-agnostic anchor element for field HO.HOREAS", "type": "Root Data Element"}, "sdtmigDatasetMappingTargets": [{"href": "/mdr/sdtmig/3-2/datasets/SUPPQUAL/variables/QVAL", "title": "Data Value", "type": "SDTM Dataset Variable"}], "self": {"href": "/mdr/cdashig/2-0/domains/HO/fields/HOREAS", "title": "Reason for the Healthcare Encounter Event", "type": "Data Collection Field"}}, "completionInstructions": "Provide the reason for the subject's Healthcare Encounters.", "core": "O", "definition": "Denotes the reason for the healthcare encounter.", "implementationNotes": "To ensure data quality, it is recommended that the sponsor develop controlled terminology (e.g., LACK OF EFFICACY, ADVERSE EVENT, CHEMOTHERAPY, PHYSICAL THERAPY, INDICATION UNDER STUDY, NOT INDICATION UNDER STUDY). The sponsor may, however choose to collect this as free text or as a combination of preprinted options and free text in the form of, Specify, Other.", "label": "Reason for the Healthcare Encounter Event", "mappingInstructions": "This does not map directly to an SDTMIG variable. This information could be submitted in a SUPPHO dataset as the value of SUPPHO_QVAL where SUPPHO.QNAM =\"HOREAS\" and SUPPHO.QLABEL=\"Healthcare Encounter Reason\". Refer to the current SDTM and SDTMIG for instructions on placement of non-standard variables in SDTM domains.", "name": "HOREAS", "ordinal": "21", "prompt": "Reason for the Healthcare Encounter", "questionText": "What was the reason for the [healthcare encounter/HOTERM]?", "simpleDatatype": "Char"}, {"_links": {"implements": {"href": "/mdr/cdash/1-0/classes/Identifiers/fields/--AENO", "title": "Related Adverse Event ID", "type": "Class Variable"}, "parentDomain": {"href": "/mdr/cdashig/2-0/domains/HO", "title": "Healthcare Encounters", "type": "CDASH Domain"}, "parentProduct": {"href": "/mdr/cdashig/2-0", "title": "Clinical Data Acquisition Standards Harmonization Implementation Guide for Human Clinical Trials Version 2.0", "type": "Implementation Guide"}, "rootItem": {"href": "/mdr/root/cdashig/domains/HO/fields/HOAENO", "title": "Version-agnostic anchor element for field HO.HOAENO", "type": "Root Data Element"}, "self": {"href": "/mdr/cdashig/2-0/domains/HO/fields/HOAENO", "title": "Related Adverse Event ID", "type": "Data Collection Field"}}, "completionInstructions": "Record the identifier for the adverse event that precipitated this encounter.", "core": "O", "definition": "Identifier for the adverse event that precipitated this encounter.", "implementationNotes": "Intent is to establish a link between the healthcare encounter record and the AE that was the primary cause of the encounter. HOAENO can be used in RELREC to identify a relationship between records in HO dataset and records in the AE dataset. Other identifiers needed to create RELREC such as HOMHNO can be created as needed. See section 8.2 in the SDTMIG V3.2 for information on RELREC.", "label": "Related Adverse Event ID", "mappingInstructions": "This does not map directly to an SDTMIG variable. For the SDTM submission datasets, may be used to create RELREC to link this record with a record in the Adverse Events domain.", "name": "HOAENO", "ordinal": "22", "prompt": "Adverse Event Identifier", "questionText": "What was the identifier for the adverse event(s), which precipitated the [healthcare encounter/HOTERM]?", "simpleDatatype": "Char"}], "label": "Healthcare Encounters", "name": "HO", "ordinal": "12"}
