{"_links": {"parentClass": {"href": "/mdr/cdashig/2-0/classes/Interventions", "title": "Interventions Observation Class", "type": "Class"}, "parentProduct": {"href": "/mdr/cdashig/2-0", "title": "Clinical Data Acquisition Standards Harmonization Implementation Guide for Human Clinical Trials Version 2.0", "type": "Implementation Guide"}, "self": {"href": "/mdr/cdashig/2-0/domains/PR", "title": "Procedures", "type": "CDASH Domain"}}, "fields": [{"_links": {"implements": {"href": "/mdr/cdash/1-0/classes/Identifiers/fields/STUDYID", "title": "Study Identifier", "type": "Class Variable"}, "parentDomain": {"href": "/mdr/cdashig/2-0/domains/PR", "title": "Procedures", "type": "CDASH Domain"}, "parentProduct": {"href": "/mdr/cdashig/2-0", "title": "Clinical Data Acquisition Standards Harmonization Implementation Guide for Human Clinical Trials Version 2.0", "type": "Implementation Guide"}, "rootItem": {"href": "/mdr/root/cdashig/domains/PR/fields/STUDYID", "title": "Version-agnostic anchor element for field PR.STUDYID", "type": "Root Data Element"}, "sdtmigDatasetMappingTargets": [{"href": "/mdr/sdtmig/3-2/datasets/PR/variables/STUDYID", "title": "Study Identifier", "type": "SDTM Dataset Variable"}], "self": {"href": "/mdr/cdashig/2-0/domains/PR/fields/STUDYID", "title": "Study Identifier", "type": "Data Collection Field"}}, "core": "HR", "definition": "A unique identifier for a study.", "implementationNotes": "While this field is not typically captured on a CRF, it should be displayed clearly on the CRF and/or the EDC system. This field can be included into the database or created during SDTM- based dataset creation before submission.", "label": "Study Identifier", "mappingInstructions": "Maps directly to the SDTMIG variable listed in the column with the heading \"SDTMIG Target\".", "name": "STUDYID", "ordinal": "1", "prompt": "[Protocol/Study]", "questionText": "What is the study identifier?", "simpleDatatype": "Char"}, {"_links": {"implements": {"href": "/mdr/cdash/1-0/domains/DM/fields/SITEID", "title": "Study Site Identifier", "type": "Data Collection Field"}, "parentDomain": {"href": "/mdr/cdashig/2-0/domains/PR", "title": "Procedures", "type": "CDASH Domain"}, "parentProduct": {"href": "/mdr/cdashig/2-0", "title": "Clinical Data Acquisition Standards Harmonization Implementation Guide for Human Clinical Trials Version 2.0", "type": "Implementation Guide"}, "rootItem": {"href": "/mdr/root/cdashig/domains/PR/fields/SITEID", "title": "Version-agnostic anchor element for field PR.SITEID", "type": "Root Data Element"}, "sdtmigDatasetMappingTargets": [{"href": "/mdr/sdtmig/3-2/datasets/DM/variables/SITEID", "title": "Study Site Identifier", "type": "SDTM Dataset Variable"}], "self": {"href": "/mdr/cdashig/2-0/domains/PR/fields/SITEID", "title": "Study Site Identifier", "type": "Data Collection Field"}}, "core": "HR", "definition": "A unique identifier for a site within a study.", "implementationNotes": "Paper: This is typically preprinted in the header of each CRF page for single site studies. For studies with multiple sites, this field may be left blank so that the number can be recorded by the site, or it may be preprinted for the CRFs that are shipped to each site. EDC: This should be prepopulated.", "label": "Study Site Identifier", "mappingInstructions": "Maps directly to the SDTMIG variable listed in the column with the heading \"SDTMIG Target\".", "name": "SITEID", "ordinal": "2", "prompt": "Site (Identifier)", "questionText": "What is the site identifier?", "simpleDatatype": "Char"}, {"_links": {"implements": {"href": "/mdr/cdash/1-0/classes/Identifiers/fields/SUBJID", "title": "Subject Identifier for the Study", "type": "Class Variable"}, "parentDomain": {"href": "/mdr/cdashig/2-0/domains/PR", "title": "Procedures", "type": "CDASH Domain"}, "parentProduct": {"href": "/mdr/cdashig/2-0", "title": "Clinical Data Acquisition Standards Harmonization Implementation Guide for Human Clinical Trials Version 2.0", "type": "Implementation Guide"}, "rootItem": {"href": "/mdr/root/cdashig/domains/PR/fields/SUBJID", "title": "Version-agnostic anchor element for field PR.SUBJID", "type": "Root Data Element"}, "sdtmigDatasetMappingTargets": [{"href": "/mdr/sdtmig/3-2/datasets/DM/variables/SUBJID", "title": "Subject Identifier for the Study", "type": "SDTM Dataset Variable"}], "self": {"href": "/mdr/cdashig/2-0/domains/PR/fields/SUBJID", "title": "Subject Identifier for the Study", "type": "Data Collection Field"}}, "completionInstructions": "Record the identifier for the subject.", "core": "HR", "definition": "A unique subject identifier within a site and a study.", "implementationNotes": "Paper: This is typically recorded in the header of each CRF page. EDC: The subject identifiers may be provided to the site using a pre-populated list in the system. This CDASH variable is typically collected in all CDASH domains. However, this CDASH variable is populated only in the SDTMIG DM domain. For more information, refer to Study Data Tabulation Model.", "label": "Subject Identifier for the Study", "mappingInstructions": "Maps directly to the SDTMIG variable listed in the column with the heading \"SDTMIG Target\".", "name": "SUBJID", "ordinal": "3", "prompt": "Subject", "questionText": "What is the subject identifier?", "simpleDatatype": "Char"}, {"_links": {"codelist": [{"href": "/mdr/root/ct/sdtmct/codelists/C66742", "title": "Version-agnostic anchor resource for codelist C66742", "type": "Root Value Domain"}], "implements": {"href": "/mdr/cdash/1-0/classes/Interventions/fields/--YN", "title": "Any [Intervention]", "type": "Class Variable"}, "parentDomain": {"href": "/mdr/cdashig/2-0/domains/PR", "title": "Procedures", "type": "CDASH Domain"}, "parentProduct": {"href": "/mdr/cdashig/2-0", "title": "Clinical Data Acquisition Standards Harmonization Implementation Guide for Human Clinical Trials Version 2.0", "type": "Implementation Guide"}, "rootItem": {"href": "/mdr/root/cdashig/domains/PR/fields/PRYN", "title": "Version-agnostic anchor element for field PR.PRYN", "type": "Root Data Element"}, "self": {"href": "/mdr/cdashig/2-0/domains/PR/fields/PRYN", "title": "Any Procedures Performed", "type": "Data Collection Field"}}, "completionInstructions": "Indicate if the subject had any surgical, therapeutic or diagnostic procedures. If \"Yes\", include the appropriate details where indicated on the CRF.", "core": "O", "definition": "An indication whether or not the subject had any procedures performed.", "implementationNotes": "The intent/purpose of collecting this field is to help with data cleaning and monitoring. It provides verification that all other fields on the CRF were deliberately left blank.", "label": "Any Procedures Performed", "mappingInstructions": "Does not map to an SDTMIG variable. The SDTM Annotated CRF is annotated to indicate that this field is NOT SUBMITTED.", "name": "PRYN", "ordinal": "4", "prompt": "Any Procedures", "questionText": "Were any surgical, therapeutic or diagnostic procedures performed?", "simpleDatatype": "Char"}, {"_links": {"implements": {"href": "/mdr/cdash/1-0/classes/Interventions/fields/--CAT", "title": "Category", "type": "Class Variable"}, "parentDomain": {"href": "/mdr/cdashig/2-0/domains/PR", "title": "Procedures", "type": "CDASH Domain"}, "parentProduct": {"href": "/mdr/cdashig/2-0", "title": "Clinical Data Acquisition Standards Harmonization Implementation Guide for Human Clinical Trials Version 2.0", "type": "Implementation Guide"}, "rootItem": {"href": "/mdr/root/cdashig/domains/PR/fields/PRCAT", "title": "Version-agnostic anchor element for field PR.PRCAT", "type": "Root Data Element"}, "sdtmigDatasetMappingTargets": [{"href": "/mdr/sdtmig/3-2/datasets/PR/variables/PRCAT", "title": "Category", "type": "SDTM Dataset Variable"}], "self": {"href": "/mdr/cdashig/2-0/domains/PR/fields/PRCAT", "title": "Category of Procedure", "type": "Data Collection Field"}}, "completionInstructions": "Record the procedure category, if not pre-printed on the CRF.", "core": "O", "definition": "A grouping of topic-variable values based on user defined characteristics.", "implementationNotes": "Sponsor-defined Controlled Terminology. This would most commonly be either a heading, or a pre-printed category value on the CRF and not a question to which the site would provide an answer. If a question is asked, the response would typically be a sponsor-defined codelist. If the form is laid out as a grid, then words such as \"Category\" can be included as the column header.", "label": "Category of Procedure", "mappingInstructions": "Maps directly to the SDTMIG variable listed in the column with the heading \"SDTMIG Target\".", "name": "PRCAT", "ordinal": "5", "prompt": "[Procedure Category]; NULL", "questionText": "What was the category of the procedure?", "simpleDatatype": "Char"}, {"_links": {"implements": {"href": "/mdr/cdash/1-0/classes/Interventions/fields/--SCAT", "title": "Subcategory", "type": "Class Variable"}, "parentDomain": {"href": "/mdr/cdashig/2-0/domains/PR", "title": "Procedures", "type": "CDASH Domain"}, "parentProduct": {"href": "/mdr/cdashig/2-0", "title": "Clinical Data Acquisition Standards Harmonization Implementation Guide for Human Clinical Trials Version 2.0", "type": "Implementation Guide"}, "rootItem": {"href": "/mdr/root/cdashig/domains/PR/fields/PRSCAT", "title": "Version-agnostic anchor element for field PR.PRSCAT", "type": "Root Data Element"}, "sdtmigDatasetMappingTargets": [{"href": "/mdr/sdtmig/3-2/datasets/PR/variables/PRSCAT", "title": "Subcategory", "type": "SDTM Dataset Variable"}], "self": {"href": "/mdr/cdashig/2-0/domains/PR/fields/PRSCAT", "title": "Subcategory of Procedure", "type": "Data Collection Field"}}, "completionInstructions": "Record the procedure subcategory, if not pre-printed on the CRF.", "core": "O", "definition": "A sub-division of the PRCAT values based on user defined characteristics.", "implementationNotes": "Sponsor-defined Controlled Terminology. This would most commonly be pre-printed on the CRF or screen and pre-populated in the data management system. This is not typically a question to which the site would provide an answer. PRSCAT can only be used if there is a PRCAT and it must be a subcategorization of PRCAT.", "label": "Subcategory of Procedure", "mappingInstructions": "Maps directly to the SDTMIG variable listed in the column with the heading \"SDTMIG Target\".", "name": "PRSCAT", "ordinal": "6", "prompt": "[Procedure Subcategory]; NULL", "questionText": "What was the subcategory of the procedure?", "simpleDatatype": "Char"}, {"_links": {"implements": {"href": "/mdr/cdash/1-0/classes/Identifiers/fields/--SPID", "title": "Sponsor-Defined Identifier", "type": "Class Variable"}, "parentDomain": {"href": "/mdr/cdashig/2-0/domains/PR", "title": "Procedures", "type": "CDASH Domain"}, "parentProduct": {"href": "/mdr/cdashig/2-0", "title": "Clinical Data Acquisition Standards Harmonization Implementation Guide for Human Clinical Trials Version 2.0", "type": "Implementation Guide"}, "rootItem": {"href": "/mdr/root/cdashig/domains/PR/fields/PRSPID", "title": "Version-agnostic anchor element for field PR.PRSPID", "type": "Root Data Element"}, "sdtmigDatasetMappingTargets": [{"href": "/mdr/sdtmig/3-2/datasets/PR/variables/PRSPID", "title": "Sponsor-Defined Identifier", "type": "SDTM Dataset Variable"}], "self": {"href": "/mdr/cdashig/2-0/domains/PR/fields/PRSPID", "title": "Procedure Sponsor-Defined Identifier", "type": "Data Collection Field"}}, "completionInstructions": "If collected on the CRF, sponsor may insert instructions to ensure each record has a unique identifier.", "core": "O", "definition": "A sponsor-defined identifier which can be used for pre-printed or auto-generated numbers on the CRF.", "implementationNotes": "Since SPID is a sponsor-defined identifier, conformance to Question Text or Item Prompt is not applicable. Typically used as an identifier in a data query to communicate clearly to the site the specific record in question or to reconcile procedure records with medical history and/or with AEs. May be used to record pre-printed number (e.g. line number, record number) on the CRF. This field may be populated by the sponsor's data collection system.", "label": "Procedure Sponsor-Defined Identifier", "mappingInstructions": "Maps directly to the SDTMIG variable listed in the column with the heading \"SDTMIG Target\". May be used to create RELREC to link this record with a record in another domain.", "name": "PRSPID", "ordinal": "7", "prompt": "[Line Number/PR Number]", "questionText": "What is the procedure identifier?", "simpleDatatype": "Char"}, {"_links": {"implements": {"href": "/mdr/cdash/1-0/classes/Interventions/fields/--TRT", "title": "Name of Treatment", "type": "Class Variable"}, "parentDomain": {"href": "/mdr/cdashig/2-0/domains/PR", "title": "Procedures", "type": "CDASH Domain"}, "parentProduct": {"href": "/mdr/cdashig/2-0", "title": "Clinical Data Acquisition Standards Harmonization Implementation Guide for Human Clinical Trials Version 2.0", "type": "Implementation Guide"}, "rootItem": {"href": "/mdr/root/cdashig/domains/PR/fields/PRTRT", "title": "Version-agnostic anchor element for field PR.PRTRT", "type": "Root Data Element"}, "sdtmigDatasetMappingTargets": [{"href": "/mdr/sdtmig/3-2/datasets/PR/variables/PRTRT", "title": "Reported Name of Procedure", "type": "SDTM Dataset Variable"}], "self": {"href": "/mdr/cdashig/2-0/domains/PR/fields/PRTRT", "title": "Procedure Name", "type": "Data Collection Field"}}, "completionInstructions": "Record only one procedure per line.", "core": "HR", "definition": "The verbatim surgical, therapeutic or diagnostic procedures' name.", "implementationNotes": "In most cases, the verbatim procedure names or therapy will be coded to a standard dictionary such as MedDRA or SNOMED after the data have been collected on the CRF.", "label": "Procedure Name", "mappingInstructions": "Maps directly to the SDTMIG variable listed in the column with the heading \"SDTMIG Target\".", "name": "PRTRT", "ordinal": "8", "prompt": "Procedure Name", "questionText": "What was the procedure name?", "simpleDatatype": "Char"}, {"_links": {"implements": {"href": "/mdr/cdash/1-0/classes/Interventions/fields/--DECOD", "title": "Dictionary or Standardized Term", "type": "Class Variable"}, "parentDomain": {"href": "/mdr/cdashig/2-0/domains/PR", "title": "Procedures", "type": "CDASH Domain"}, "parentProduct": {"href": "/mdr/cdashig/2-0", "title": "Clinical Data Acquisition Standards Harmonization Implementation Guide for Human Clinical Trials Version 2.0", "type": "Implementation Guide"}, "rootItem": {"href": "/mdr/root/cdashig/domains/PR/fields/PRDECOD", "title": "Version-agnostic anchor element for field PR.PRDECOD", "type": "Root Data Element"}, "sdtmigDatasetMappingTargets": [{"href": "/mdr/sdtmig/3-2/datasets/PR/variables/PRDECOD", "title": "Standardized Procedure Name", "type": "SDTM Dataset Variable"}], "self": {"href": "/mdr/cdashig/2-0/domains/PR/fields/PRDECOD", "title": "Procedure Dictionary or Standardized Term", "type": "Data Collection Field"}}, "core": "O", "definition": "The dictionary or sponsor-defined standardized text description of PRTRT, or the modified topic variable (PRMODIFY), if applicable.", "implementationNotes": "This is typically not a data collection field that will appear on the CRF. If the sponsor chooses to code the procedure, the sponsor will populate this through the coding process. If PRPRESP is used, and the information about a specific standardized procedure name is being solicited, the data from PRTRT may map directly to the SDTMIG PRDECOD variable.", "label": "Procedure Dictionary or Standardized Term", "mappingInstructions": "Maps directly to the SDTMIG variable listed in the column with the heading \"SDTMIG Target\".", "name": "PRDECOD", "ordinal": "9", "prompt": "N/A", "questionText": "N/A", "simpleDatatype": "Char"}, {"_links": {"implements": {"href": "/mdr/cdash/1-0/classes/Interventions/fields/--MODIFY", "title": "Modified Treatment Name", "type": "Class Variable"}, "parentDomain": {"href": "/mdr/cdashig/2-0/domains/PR", "title": "Procedures", "type": "CDASH Domain"}, "parentProduct": {"href": "/mdr/cdashig/2-0", "title": "Clinical Data Acquisition Standards Harmonization Implementation Guide for Human Clinical Trials Version 2.0", "type": "Implementation Guide"}, "rootItem": {"href": "/mdr/root/cdashig/domains/PR/fields/PRMODIFY", "title": "Version-agnostic anchor element for field PR.PRMODIFY", "type": "Root Data Element"}, "self": {"href": "/mdr/cdashig/2-0/domains/PR/fields/PRMODIFY", "title": "Modified Procedure Name", "type": "Data Collection Field"}}, "core": "O", "definition": "If the value for PRTERM is modified for coding purposes, then the modified text is placed here.", "implementationNotes": "This is not a data collection field that will appear on the CRF. If the sponsor chooses to code the procedure, the sponsor will populate this through the coding process.", "label": "Modified Procedure Name", "mappingInstructions": "Maps directly to the SDTMIG variable listed in the column with the heading \"SDTMIG Target\".", "name": "PRMODIFY", "ordinal": "10", "prompt": "N/A", "questionText": "N/A", "simpleDatatype": "Char"}, {"_links": {"codelist": [{"href": "/mdr/root/ct/sdtmct/codelists/C66742", "title": "Version-agnostic anchor resource for codelist C66742", "type": "Root Value Domain"}], "implements": {"href": "/mdr/cdash/1-0/classes/Interventions/fields/--PRESP", "title": "Pre-Specified Intervention", "type": "Class Variable"}, "parentDomain": {"href": "/mdr/cdashig/2-0/domains/PR", "title": "Procedures", "type": "CDASH Domain"}, "parentProduct": {"href": "/mdr/cdashig/2-0", "title": "Clinical Data Acquisition Standards Harmonization Implementation Guide for Human Clinical Trials Version 2.0", "type": "Implementation Guide"}, "rootItem": {"href": "/mdr/root/cdashig/domains/PR/fields/PRPRESP", "title": "Version-agnostic anchor element for field PR.PRPRESP", "type": "Root Data Element"}, "sdtmigDatasetMappingTargets": [{"href": "/mdr/sdtmig/3-2/datasets/PR/variables/PRPRESP", "title": "Pre-specified", "type": "SDTM Dataset Variable"}], "self": {"href": "/mdr/cdashig/2-0/domains/PR/fields/PRPRESP", "title": "Pre-Specified Procedure", "type": "Data Collection Field"}}, "core": "O", "definition": "An indication that a specific intervention or a group of interventions is pre-specified on a CRF.", "implementationNotes": "For pre-specified interventions, a hidden field on a CRF defaulted to Y, or added during the SDTM dataset creation. If a study collects both pre-specified interventions as well as free-text interventions, the value of --PRESP should be Y for all pre-specified interventions and null for interventions reported as free-text.", "label": "Pre-Specified Procedure", "mappingInstructions": "Maps directly to the SDTMIG variable listed in the column with the heading \"SDTMIG Target\".", "name": "PRPRESP", "ordinal": "11", "prompt": "N/A", "questionText": "N/A", "simpleDatatype": "Char"}, {"_links": {"codelist": [{"href": "/mdr/root/ct/sdtmct/codelists/C66742", "title": "Version-agnostic anchor resource for codelist C66742", "type": "Root Value Domain"}], "implements": {"href": "/mdr/cdash/1-0/classes/Interventions/fields/--OCCUR", "title": "Occurrence", "type": "Class Variable"}, "parentDomain": {"href": "/mdr/cdashig/2-0/domains/PR", "title": "Procedures", "type": "CDASH Domain"}, "parentProduct": {"href": "/mdr/cdashig/2-0", "title": "Clinical Data Acquisition Standards Harmonization Implementation Guide for Human Clinical Trials Version 2.0", "type": "Implementation Guide"}, "rootItem": {"href": "/mdr/root/cdashig/domains/PR/fields/PROCCUR", "title": "Version-agnostic anchor element for field PR.PROCCUR", "type": "Root Data Element"}, "sdtmigDatasetMappingTargets": [{"href": "/mdr/sdtmig/3-2/datasets/PR/variables/PROCCUR", "title": "Occurrence", "type": "SDTM Dataset Variable"}], "self": {"href": "/mdr/cdashig/2-0/domains/PR/fields/PROCCUR", "title": "Procedure Occurrence", "type": "Data Collection Field"}}, "completionInstructions": "Indicate if [specific procedure] was performed by checking Yes or No.", "core": "O", "definition": "An indication whether a pre-specified procedure (PRTRT) happened when information about the occurrence of a specific intervention is solicited.", "implementationNotes": "PROCCUR is used to report the occurrence of a pre-specific procedures. PROCCUR is not used for spontaneously free text reported procedures. The site should be able to indicate that the response was not asked or answered.", "label": "Procedure Occurrence", "mappingInstructions": "Maps directly to the SDTMIG variable listed in the column with the heading \"SDTMIG Target\". If the response was not asked or answered, populate the SDTMIG variable PRSTAT with \"NOT DONE\".", "name": "PROCCUR", "ordinal": "12", "prompt": "[PRTRT] Performed", "questionText": "Was [PRTRT] performed?; Has the subject had [PRTRT]?", "simpleDatatype": "Char"}, {"_links": {"implements": {"href": "/mdr/cdash/1-0/classes/Interventions/fields/--REASOC", "title": "Reason for Occur Value", "type": "Class Variable"}, "parentDomain": {"href": "/mdr/cdashig/2-0/domains/PR", "title": "Procedures", "type": "CDASH Domain"}, "parentProduct": {"href": "/mdr/cdashig/2-0", "title": "Clinical Data Acquisition Standards Harmonization Implementation Guide for Human Clinical Trials Version 2.0", "type": "Implementation Guide"}, "rootItem": {"href": "/mdr/root/cdashig/domains/PR/fields/PRREASOC", "title": "Version-agnostic anchor element for field PR.PRREASOC", "type": "Root Data Element"}, "sdtmigDatasetMappingTargets": [{"href": "/mdr/sdtmig/3-2/datasets/SUPPQUAL/variables/QVAL", "title": "Data Value", "type": "SDTM Dataset Variable"}], "self": {"href": "/mdr/cdashig/2-0/domains/PR/fields/PRREASOC", "title": "Procedure Reason for Occur Value", "type": "Data Collection Field"}}, "completionInstructions": "Indicate why the procedure was not performed.", "core": "O", "definition": "An explanation of why a scheduled procedure did not occur.", "implementationNotes": "The reason the scheduled procedure was not performed may be chosen from a sponsor-defined codelist (e.g., SUBJECT REFUSED, etc.) or entered as free text. When --REASOC is used, --OCCUR must also be populated in the SDTM dataset with a value of \"N\".", "label": "Procedure Reason for Occur Value", "mappingInstructions": "This information could be submitted in a SUPPPR dataset as the value of SUPPPR.QVAL where SUPPPR.QNAM = \"PRREASOC\" and SUPPPR.QLABEL =\"Reason for Occur Value\". Refer to the current SDTM and SDTMIG for instructions on placement of non-standard variables in SDTM domains.", "name": "PRREASOC", "ordinal": "13", "prompt": "Reason Not Performed", "questionText": "What was the reason that the procedure was not performed?", "simpleDatatype": "Char"}, {"_links": {"implements": {"href": "/mdr/cdash/1-0/classes/Interventions/fields/--CSTAT", "title": "Collected Completion Status", "type": "Class Variable"}, "parentDomain": {"href": "/mdr/cdashig/2-0/domains/PR", "title": "Procedures", "type": "CDASH Domain"}, "parentProduct": {"href": "/mdr/cdashig/2-0", "title": "Clinical Data Acquisition Standards Harmonization Implementation Guide for Human Clinical Trials Version 2.0", "type": "Implementation Guide"}, "rootItem": {"href": "/mdr/root/cdashig/domains/PR/fields/PRCSTAT", "title": "Version-agnostic anchor element for field PR.PRCSTAT", "type": "Root Data Element"}, "self": {"href": "/mdr/cdashig/2-0/domains/PR/fields/PRCSTAT", "title": "Procedure Collected Completion Status", "type": "Data Collection Field"}}, "completionInstructions": "Indicate if the procedure data was not collected.", "core": "O", "definition": "The variable used to indicate that data are not available by having the site recording a sponsor-defined value (e.g., Not Collected/Not Evaluated/Not Assessed/Not Available/Not Answered)", "implementationNotes": "A check box used to indicate that data collection was \"Not Collected\". It cannot be used to indicate that a procedure was not done. This variable may only be populated if PROCCUR is null.", "label": "Procedure Collected Completion Status", "mappingInstructions": "This does not map directly to an SDTMIG variable. For the SDTM-based dataset, the SDTMIG variable PRSTAT is populated by mapping the value of the CDASH variable PRCSTAT \"NOT COLLECTED\" to \"NOT DONE\".", "name": "PRCSTAT", "ordinal": "14", "prompt": "Not Collected", "questionText": "Was the procedure data collected?", "simpleDatatype": "Char"}, {"_links": {"implements": {"href": "/mdr/cdash/1-0/classes/Interventions/fields/--REASND", "title": "Reason Not Done", "type": "Class Variable"}, "parentDomain": {"href": "/mdr/cdashig/2-0/domains/PR", "title": "Procedures", "type": "CDASH Domain"}, "parentProduct": {"href": "/mdr/cdashig/2-0", "title": "Clinical Data Acquisition Standards Harmonization Implementation Guide for Human Clinical Trials Version 2.0", "type": "Implementation Guide"}, "rootItem": {"href": "/mdr/root/cdashig/domains/PR/fields/PRREASND", "title": "Version-agnostic anchor element for field PR.PRREASND", "type": "Root Data Element"}, "self": {"href": "/mdr/cdashig/2-0/domains/PR/fields/PRREASND", "title": "Procedure Reason Not Done", "type": "Data Collection Field"}}, "completionInstructions": "Provide the reason why the procedure was not done.", "core": "O", "definition": "An explanation of why the data are not available.", "implementationNotes": "The reason the data are not available may be chosen from a sponsor defined list (or example, broken equipment, subject refused, etc.) or entered as free text. When PRREASND is used, the SDTMIG variable PRSTAT should also be populated in the SDTM-based dataset. The value \"NOT DONE\" here indicates that the subject was not questioned/data was not collected. It does not mean that the subject did not have the procedure.", "label": "Procedure Reason Not Done", "mappingInstructions": "Maps directly to the SDTMIG variable listed in the column with the heading \"SDTMIG Target\".", "name": "PRREASND", "ordinal": "15", "prompt": "Reason not done", "questionText": "What was the reason not done?", "simpleDatatype": "Char"}, {"_links": {"codelist": [{"href": "/mdr/root/ct/sdtmct/codelists/C66742", "title": "Version-agnostic anchor resource for codelist C66742", "type": "Root Value Domain"}], "implements": {"href": "/mdr/cdash/1-0/classes/Interventions/fields/--PRIOR", "title": "Prior Intervention", "type": "Class Variable"}, "parentDomain": {"href": "/mdr/cdashig/2-0/domains/PR", "title": "Procedures", "type": "CDASH Domain"}, "parentProduct": {"href": "/mdr/cdashig/2-0", "title": "Clinical Data Acquisition Standards Harmonization Implementation Guide for Human Clinical Trials Version 2.0", "type": "Implementation Guide"}, "rootItem": {"href": "/mdr/root/cdashig/domains/PR/fields/PRPRIOR", "title": "Version-agnostic anchor element for field PR.PRPRIOR", "type": "Root Data Element"}, "sdtmigDatasetMappingTargets": [{"href": "/mdr/sdtmig/3-2/datasets/PR/variables/PRSTRTPT", "title": "Start Relative to Reference Time Point", "type": "SDTM Dataset Variable"}], "self": {"href": "/mdr/cdashig/2-0/domains/PR/fields/PRPRIOR", "title": "Prior Procedure", "type": "Data Collection Field"}}, "completionInstructions": "Check if the procedure was started before the specified point in time.", "core": "O", "definition": "Indication the procedure occurred prior to [PRSTTPT] or prior to the date in DM.RFSTDTC.", "implementationNotes": "See section on Mapping Relative Times from Collection to Submissions and the SDTMIG for more information.", "label": "Prior Procedure", "mappingInstructions": "This does not map directly to an SDTMIG variable. May be used to populate a value into an SDTM relative timing variable such as PRSTRF or PRSTRTPT. When populating PRSTRF, or PRSTRTPT, if the value of the CDASH field PRPRIOR is \"Y\" a value from the CDISC CT (STENRF) may be used. When PRPRIOR refers to the Study Reference Period (defined in DM.RFSTDTC to DM.RFENDTC) the SDTM variable PRSTRF should be populated. When PRPRIOR is compared to any other time point, the SDTM variables PRSTRTPT and PRSTTPT should be used. Note: PRSTRTPT must refer to the time point anchor described in PRSTTPT.", "name": "PRPRIOR", "ordinal": "16", "prompt": "Prior to [PRSTTPT]; Prior to study", "questionText": "Was the procedure performed prior to [PRSTTPT]?; Was the procedure performed prior to study start?", "simpleDatatype": "Char"}, {"_links": {"implements": {"href": "/mdr/cdash/1-0/classes/Timing/fields/--STDAT", "title": "Start Date of Observation", "type": "Class Variable"}, "parentDomain": {"href": "/mdr/cdashig/2-0/domains/PR", "title": "Procedures", "type": "CDASH Domain"}, "parentProduct": {"href": "/mdr/cdashig/2-0", "title": "Clinical Data Acquisition Standards Harmonization Implementation Guide for Human Clinical Trials Version 2.0", "type": "Implementation Guide"}, "rootItem": {"href": "/mdr/root/cdashig/domains/PR/fields/PRSTDAT", "title": "Version-agnostic anchor element for field PR.PRSTDAT", "type": "Root Data Element"}, "sdtmigDatasetMappingTargets": [{"href": "/mdr/sdtmig/3-2/datasets/PR/variables/PRSTDTC", "title": "Start Date/Time of Procedure", "type": "SDTM Dataset Variable"}], "self": {"href": "/mdr/cdashig/2-0/domains/PR/fields/PRSTDAT", "title": "Procedure Start Date", "type": "Data Collection Field"}}, "completionInstructions": "Record the date the procedure was started or performed using this format (DD-MON-YYYY). Procedures performed during the study are expected to have a complete start date. Prior procedures that are exclusionary should have both a start and end date.", "core": "R/C", "definition": "The date or start date of when the procedure started or was performed represented in an unambiguous date format (e.g., DD-MON-YYYY).", "implementationNotes": "The preferred method is to collect a complete Start Date. Partial dates (e.g., providing year only) for procedures started a considerable amount of time prior to the start of study are acceptable.", "label": "Procedure Start Date", "mappingInstructions": "This does not map directly to an SDTMIG variable. For the SDTM submission dataset, concatenate all collected CDASH START DATE and TIME components and populate the SDTMIG variable PRSTDTC in ISO 8601 format.", "name": "PRSTDAT", "ordinal": "17", "prompt": "[Start] Date", "questionText": "What was the procedure [start] date ?", "simpleDatatype": "Char"}, {"_links": {"codelist": [{"href": "/mdr/root/ct/sdtmct/codelists/C66742", "title": "Version-agnostic anchor resource for codelist C66742", "type": "Root Value Domain"}], "implements": {"href": "/mdr/cdash/1-0/classes/Interventions/fields/--ONGO", "title": "Ongoing Intervention", "type": "Class Variable"}, "parentDomain": {"href": "/mdr/cdashig/2-0/domains/PR", "title": "Procedures", "type": "CDASH Domain"}, "parentProduct": {"href": "/mdr/cdashig/2-0", "title": "Clinical Data Acquisition Standards Harmonization Implementation Guide for Human Clinical Trials Version 2.0", "type": "Implementation Guide"}, "rootItem": {"href": "/mdr/root/cdashig/domains/PR/fields/PRONGO", "title": "Version-agnostic anchor element for field PR.PRONGO", "type": "Root Data Element"}, "sdtmigDatasetMappingTargets": [{"href": "/mdr/sdtmig/3-2/datasets/PR/variables/PRENRTPT", "title": "End Relative to Reference Time Point", "type": "SDTM Dataset Variable"}], "self": {"href": "/mdr/cdashig/2-0/domains/PR/fields/PRONGO", "title": "Ongoing Procedure", "type": "Data Collection Field"}}, "completionInstructions": "Check the box if the procedure has not ended at the time of data collection and the end date should be left blank.", "core": "O", "definition": "Indication the procedure is ongoing when no end date is provided.", "implementationNotes": "Completed to indicate that the procedure has not stopped at the time of data collection. The purpose of collecting this field is to help with data cleaning and monitoring, since this field provides further confirmation that the End Date was deliberately left blank. Reference section 2.1.3 for more information about collecting relative date/time and see section 4.1.4 of the SDTMIG V. 3.2 for information about mapping relative times.", "label": "Ongoing Procedure", "mappingInstructions": "This does not map directly to an SDTM variable. May be used to populate a value into an SDTMIG relative timing variable such as PRENRF or PRENRTPT. When populating PRENRF, if the value of PRONGO is \"Y\", the value of \"DURING\", \"AFTER\" or \"DURING/AFTER\" may be used. When populating PRENRTPT, if the value of PRONGO is \"Y\", the value of \"ONGOING\" may be used. When PRONGO refers to the Study Reference Period (defined in DM.RFSTDTC to DM.RFENDTC) the SDTM variable PRENRF should be populated. When PRONGO is used in conjunction with any other time point, the SDTM variables PRENRTPT and PRENTPT should be used. Note: PRENRTPT must refer to a time point anchor described in PRENTPT.", "name": "PRONGO", "ordinal": "18", "prompt": "Ongoing", "questionText": "Was the procedure ongoing?", "simpleDatatype": "Char"}, {"_links": {"implements": {"href": "/mdr/cdash/1-0/classes/Timing/fields/--ENDAT", "title": "End Date of Observation", "type": "Class Variable"}, "parentDomain": {"href": "/mdr/cdashig/2-0/domains/PR", "title": "Procedures", "type": "CDASH Domain"}, "parentProduct": {"href": "/mdr/cdashig/2-0", "title": "Clinical Data Acquisition Standards Harmonization Implementation Guide for Human Clinical Trials Version 2.0", "type": "Implementation Guide"}, "rootItem": {"href": "/mdr/root/cdashig/domains/PR/fields/PRENDAT", "title": "Version-agnostic anchor element for field PR.PRENDAT", "type": "Root Data Element"}, "sdtmigDatasetMappingTargets": [{"href": "/mdr/sdtmig/3-2/datasets/PR/variables/PRENDTC", "title": "End Date/Time of Procedure", "type": "SDTM Dataset Variable"}], "self": {"href": "/mdr/cdashig/2-0/domains/PR/fields/PRENDAT", "title": "Procedure End Date", "type": "Data Collection Field"}}, "completionInstructions": "Record the end date of the procedure using this format (DD-MON-YYYY). If the procedure has not ended, leave this field blank and populate PRONGO as \"Y\".", "core": "R/C", "definition": "The end date of the procedure represented in an unambiguous date format (e.g., DD-MON-YYYY).", "implementationNotes": "The assumption is that sponsors should either have an End Date or will indicate that the procedure was ongoing at the time of collection or at the end of the study. However, in cases where the End Date can be determined from dates collected elsewhere in the CRF it is not necessary to include an End Date in the CRF. For example, if the procedure is started and stopped within the same day, the End Date will be the same as the Start Date.", "label": "Procedure End Date", "mappingInstructions": "This does not map directly to an SDTMIG variable. For the SDTM submission dataset, concatenate all collected CDASH END DATE and TIME components and populate the SDTM variable PRENDTC in ISO 8601 format.", "name": "PRENDAT", "ordinal": "19", "prompt": "End Date", "questionText": "What was the procedure end date?", "simpleDatatype": "Char"}, {"_links": {"implements": {"href": "/mdr/cdash/1-0/classes/Interventions/fields/--INDC", "title": "Indication", "type": "Class Variable"}, "parentDomain": {"href": "/mdr/cdashig/2-0/domains/PR", "title": "Procedures", "type": "CDASH Domain"}, "parentProduct": {"href": "/mdr/cdashig/2-0", "title": "Clinical Data Acquisition Standards Harmonization Implementation Guide for Human Clinical Trials Version 2.0", "type": "Implementation Guide"}, "rootItem": {"href": "/mdr/root/cdashig/domains/PR/fields/PRINDC", "title": "Version-agnostic anchor element for field PR.PRINDC", "type": "Root Data Element"}, "sdtmigDatasetMappingTargets": [{"href": "/mdr/sdtmig/3-2/datasets/PR/variables/PRINDC", "title": "Indication", "type": "SDTM Dataset Variable"}], "self": {"href": "/mdr/cdashig/2-0/domains/PR/fields/PRINDC", "title": "Procedure Indication", "type": "Data Collection Field"}}, "completionInstructions": "Record the reason the procedure was performed based on clinical investigator's evaluation. If performed to treat a condition, and a diagnosis was made, the indication should be the diagnosis. If performed to treat a condition, and no diagnosis was made, the indication should be the signs and symptoms. If taken as prophylaxis, report as \"Prophylaxis for \" and include a description of the condition(s).", "core": "O", "definition": "The condition, disease, symptom or disorder that the procedure was used to address or investigate (e.g., why the therapy was taken or administered or the procedure performed).", "implementationNotes": "This additional information is collected on the CRF when the sponsor wants to capture the reason(s) why a procedure was performed. This information can then be used as deemed appropriate for coding, analysis (e.g., in the classification of procedures), for reconciling the procedures performed on a subject with their provided medical history and/or AEs/SAEs as part of the data clean-up and monitoring process, etc.", "label": "Procedure Indication", "mappingInstructions": "Maps directly to the SDTMIG variable listed in the column with the heading \"SDTMIG Target\".", "name": "PRINDC", "ordinal": "20", "prompt": "Indication", "questionText": "For what indication, was the [PRTRT] performed?", "simpleDatatype": "Char"}, {"_links": {"implements": {"href": "/mdr/cdash/1-0/classes/Identifiers/fields/--AENO", "title": "Related Adverse Event ID", "type": "Class Variable"}, "parentDomain": {"href": "/mdr/cdashig/2-0/domains/PR", "title": "Procedures", "type": "CDASH Domain"}, "parentProduct": {"href": "/mdr/cdashig/2-0", "title": "Clinical Data Acquisition Standards Harmonization Implementation Guide for Human Clinical Trials Version 2.0", "type": "Implementation Guide"}, "rootItem": {"href": "/mdr/root/cdashig/domains/PR/fields/PRAENO", "title": "Version-agnostic anchor element for field PR.PRAENO", "type": "Root Data Element"}, "self": {"href": "/mdr/cdashig/2-0/domains/PR/fields/PRAENO", "title": "Related Adverse Event ID", "type": "Data Collection Field"}}, "completionInstructions": "Record the identifier of the adverse event for which this procedure was performed.", "core": "O", "definition": "Identifier for the adverse event that is the indication for this procedure.", "implementationNotes": "Intent is to establish a link between the adverse event and the procedure performed for the adverse event. PRAENO can be used to identify a relationship between records in the PR dataset and records in the AE dataset. See section 8.2 in the SDTMIG V3.2 for information on RELREC.", "label": "Related Adverse Event ID", "mappingInstructions": "This does not map directly to an SDTMIG variable. For the SDTM submission datasets, may be used to create RELREC to link this record with a record in the Adverse Events domain.", "name": "PRAENO", "ordinal": "21", "prompt": "Adverse Event Identifier", "questionText": "What was the identifier for the adverse event(s) for which the procedure was performed?", "simpleDatatype": "Char"}, {"_links": {"implements": {"href": "/mdr/cdash/1-0/classes/Identifiers/fields/--MHNO", "title": "Related Medical History Event ID", "type": "Class Variable"}, "parentDomain": {"href": "/mdr/cdashig/2-0/domains/PR", "title": "Procedures", "type": "CDASH Domain"}, "parentProduct": {"href": "/mdr/cdashig/2-0", "title": "Clinical Data Acquisition Standards Harmonization Implementation Guide for Human Clinical Trials Version 2.0", "type": "Implementation Guide"}, "rootItem": {"href": "/mdr/root/cdashig/domains/PR/fields/PRMHNO", "title": "Version-agnostic anchor element for field PR.PRMHNO", "type": "Root Data Element"}, "self": {"href": "/mdr/cdashig/2-0/domains/PR/fields/PRMHNO", "title": "Related Medical History Event ID", "type": "Data Collection Field"}}, "completionInstructions": "Record the identifier of the medical history event for which this procedure was performed.", "core": "O", "definition": "Identifier for the medical history event that is the indication for this procedure.", "implementationNotes": "Intent is to establish a link between the medical history condition and the procedure undergone for the medical history condition. PRMHNO can be used to identify a relationship between records in the PR dataset and records in the MH dataset. See section 8.2 in the SDTMIG V3.2 for information on RELREC.", "label": "Related Medical History Event ID", "mappingInstructions": "This does not map directly to an SDTMIG variable. For the SDTM submission datasets, may be used to create RELREC to link this record with a record in the Medical History domain.", "name": "PRMHNO", "ordinal": "22", "prompt": "Medical History Event Identifier", "questionText": "What was the identifier for the medical history event(s) for which the procedure was performed?", "simpleDatatype": "Char"}, {"_links": {"implements": {"href": "/mdr/cdash/1-0/classes/Interventions/fields/--DSTXT", "title": "Dose Description", "type": "Class Variable"}, "parentDomain": {"href": "/mdr/cdashig/2-0/domains/PR", "title": "Procedures", "type": "CDASH Domain"}, "parentProduct": {"href": "/mdr/cdashig/2-0", "title": "Clinical Data Acquisition Standards Harmonization Implementation Guide for Human Clinical Trials Version 2.0", "type": "Implementation Guide"}, "rootItem": {"href": "/mdr/root/cdashig/domains/PR/fields/PRDSTXT", "title": "Version-agnostic anchor element for field PR.PRDSTXT", "type": "Root Data Element"}, "sdtmigDatasetMappingTargets": [{"href": "/mdr/sdtmig/3-2/datasets/PR/variables/PRDOSE", "title": "Dose", "type": "SDTM Dataset Variable"}, {"href": "/mdr/sdtmig/3-2/datasets/PR/variables/PRDOSTXT", "title": "Dose Description", "type": "SDTM Dataset Variable"}], "self": {"href": "/mdr/cdashig/2-0/domains/PR/fields/PRDSTXT", "title": "Procedure Dose Description", "type": "Data Collection Field"}}, "completionInstructions": "Record the [dose/amount] of [PRTRT] per administered.", "core": "O", "definition": "The dose/amount administered during the procedure.", "implementationNotes": "Defining this data collection field as a dose text field allows for flexibility in capturing dose entries as numbers, text or ranges. The data collected in this dose text-format field should be separated or mapped to either SDTMIG PRDOSE if numeric or PRDOSTXT if text.", "label": "Procedure Dose Description", "mappingInstructions": "This does not map directly to an SDTMIG variable. Numeric values map to PRDOSE in SDTM. Non-numeric values (e.g., 200-400) map to PRDOSTXT in SDTM.", "name": "PRDSTXT", "ordinal": "23", "prompt": "[Dose/Amount]", "questionText": "What was the [dose/amount] of [PRTRT] (per administration/for the procedure)?", "simpleDatatype": "Char"}, {"_links": {"codelist": [{"href": "/mdr/root/ct/sdtmct/codelists/C71620", "title": "Version-agnostic anchor resource for codelist C71620", "type": "Root Value Domain"}], "implements": {"href": "/mdr/cdash/1-0/classes/Interventions/fields/--DOSU", "title": "Dose Unit", "type": "Class Variable"}, "parentDomain": {"href": "/mdr/cdashig/2-0/domains/PR", "title": "Procedures", "type": "CDASH Domain"}, "parentProduct": {"href": "/mdr/cdashig/2-0", "title": "Clinical Data Acquisition Standards Harmonization Implementation Guide for Human Clinical Trials Version 2.0", "type": "Implementation Guide"}, "rootItem": {"href": "/mdr/root/cdashig/domains/PR/fields/PRDOSU", "title": "Version-agnostic anchor element for field PR.PRDOSU", "type": "Root Data Element"}, "sdtmigDatasetMappingTargets": [{"href": "/mdr/sdtmig/3-2/datasets/PR/variables/PRDOSU", "title": "Dose Units", "type": "SDTM Dataset Variable"}], "self": {"href": "/mdr/cdashig/2-0/domains/PR/fields/PRDOSU", "title": "Procedure Dose Unit", "type": "Data Collection Field"}}, "completionInstructions": "Record the unit for the amount of [PRTRT] performed or administered.", "core": "O", "definition": "The unit for intended dose/amount for PRDOSE, PRDOSTOT, or PRDOSTXT.", "implementationNotes": "When sponsors collect data for amount of [PRTRT] performed or administered, Unit should be collected as well (if applicable).", "label": "Procedure Dose Unit", "mappingInstructions": "Maps directly to the SDTMIG variable listed in the column with the heading \"SDTMIG Target\".", "name": "PRDOSU", "ordinal": "24", "prompt": "Unit", "questionText": "What was the unit?", "simpleDatatype": "Char"}, {"_links": {"codelist": [{"href": "/mdr/root/ct/sdtmct/codelists/C71113", "title": "Version-agnostic anchor resource for codelist C71113", "type": "Root Value Domain"}], "implements": {"href": "/mdr/cdash/1-0/classes/Interventions/fields/--DOSFRQ", "title": "Dosing Frequency per Interval", "type": "Class Variable"}, "parentDomain": {"href": "/mdr/cdashig/2-0/domains/PR", "title": "Procedures", "type": "CDASH Domain"}, "parentProduct": {"href": "/mdr/cdashig/2-0", "title": "Clinical Data Acquisition Standards Harmonization Implementation Guide for Human Clinical Trials Version 2.0", "type": "Implementation Guide"}, "rootItem": {"href": "/mdr/root/cdashig/domains/PR/fields/PRDOSFRQ", "title": "Version-agnostic anchor element for field PR.PRDOSFRQ", "type": "Root Data Element"}, "sdtmigDatasetMappingTargets": [{"href": "/mdr/sdtmig/3-2/datasets/PR/variables/PRDOSFRQ", "title": "Dosing Frequency per Interval", "type": "SDTM Dataset Variable"}], "self": {"href": "/mdr/cdashig/2-0/domains/PR/fields/PRDOSFRQ", "title": "Procedure Frequency per Interval", "type": "Data Collection Field"}}, "completionInstructions": "Record how often the procedure was performed.", "core": "O", "definition": "The number/amount of the procedure that was given/administered/taken during a specific interval.", "implementationNotes": "This may be collected if it cannot be determined from other sources or if there are multiple options. Usually expressed as the number of procedures given per a specific interval.", "label": "Procedure Frequency per Interval", "mappingInstructions": "Maps directly to the SDTMIG variable listed in the column with the heading \"SDTMIG Target\".", "name": "PRDOSFRQ", "ordinal": "25", "prompt": "Frequency", "questionText": "What was the frequency of [PRTRT]?", "simpleDatatype": "Char"}, {"_links": {"codelist": [{"href": "/mdr/root/ct/sdtmct/codelists/C66729", "title": "Version-agnostic anchor resource for codelist C66729", "type": "Root Value Domain"}], "implements": {"href": "/mdr/cdash/1-0/classes/Interventions/fields/--ROUTE", "title": "Route of Administration", "type": "Class Variable"}, "parentDomain": {"href": "/mdr/cdashig/2-0/domains/PR", "title": "Procedures", "type": "CDASH Domain"}, "parentProduct": {"href": "/mdr/cdashig/2-0", "title": "Clinical Data Acquisition Standards Harmonization Implementation Guide for Human Clinical Trials Version 2.0", "type": "Implementation Guide"}, "rootItem": {"href": "/mdr/root/cdashig/domains/PR/fields/PRROUTE", "title": "Version-agnostic anchor element for field PR.PRROUTE", "type": "Root Data Element"}, "sdtmigDatasetMappingTargets": [{"href": "/mdr/sdtmig/3-2/datasets/PR/variables/PRROUTE", "title": "Route of Administration", "type": "SDTM Dataset Variable"}], "self": {"href": "/mdr/cdashig/2-0/domains/PR/fields/PRROUTE", "title": "Procedure Route of Administration", "type": "Data Collection Field"}}, "completionInstructions": "Provide the route of administration for the procedure.", "core": "O", "definition": "The route of administration of the procedure.", "implementationNotes": "This additional information may be important to collect on the CRF when the sponsor would want to capture a procedure's route of administration for comparative analysis purposes.", "label": "Procedure Route of Administration", "mappingInstructions": "Maps directly to the SDTMIG variable listed in the column with the heading \"SDTMIG Target\".", "name": "PRROUTE", "ordinal": "26", "prompt": "Route", "questionText": "What was the route of administration of the procedure?", "simpleDatatype": "Char"}, {"_links": {"codelist": [{"href": "/mdr/root/ct/sdtmct/codelists/C74456", "title": "Version-agnostic anchor resource for codelist C74456", "type": "Root Value Domain"}], "implements": {"href": "/mdr/cdash/1-0/classes/Interventions/fields/--LOC", "title": "Location", "type": "Class Variable"}, "parentDomain": {"href": "/mdr/cdashig/2-0/domains/PR", "title": "Procedures", "type": "CDASH Domain"}, "parentProduct": {"href": "/mdr/cdashig/2-0", "title": "Clinical Data Acquisition Standards Harmonization Implementation Guide for Human Clinical Trials Version 2.0", "type": "Implementation Guide"}, "rootItem": {"href": "/mdr/root/cdashig/domains/PR/fields/PRLOC", "title": "Version-agnostic anchor element for field PR.PRLOC", "type": "Root Data Element"}, "sdtmigDatasetMappingTargets": [{"href": "/mdr/sdtmig/3-2/datasets/PR/variables/PRLOC", "title": "Location of Procedure", "type": "SDTM Dataset Variable"}], "self": {"href": "/mdr/cdashig/2-0/domains/PR/fields/PRLOC", "title": "Procedure Location", "type": "Data Collection Field"}}, "completionInstructions": "Record the body location where the procedure was performed.", "core": "O", "definition": "A description of the anatomical location of an procedure, such as an location of Biopsy.", "implementationNotes": "Collected when the sponsor needs to identify the specific anatomical location. Example: Liver for the Biopsy. LAT, DIR, PORTOT are used to further describe the anatomical location.", "label": "Procedure Location", "mappingInstructions": "Maps directly to the SDTMIG variable listed in the column with the heading \"SDTMIG Target\".", "name": "PRLOC", "ordinal": "27", "prompt": "Anatomical Location", "questionText": "What was the anatomical location where the procedure was performed?", "simpleDatatype": "Char"}, {"_links": {"codelist": [{"href": "/mdr/root/ct/sdtmct/codelists/C99073", "title": "Version-agnostic anchor resource for codelist C99073", "type": "Root Value Domain"}], "implements": {"href": "/mdr/cdash/1-0/classes/Interventions/fields/--LAT", "title": "Laterality", "type": "Class Variable"}, "parentDomain": {"href": "/mdr/cdashig/2-0/domains/PR", "title": "Procedures", "type": "CDASH Domain"}, "parentProduct": {"href": "/mdr/cdashig/2-0", "title": "Clinical Data Acquisition Standards Harmonization Implementation Guide for Human Clinical Trials Version 2.0", "type": "Implementation Guide"}, "rootItem": {"href": "/mdr/root/cdashig/domains/PR/fields/PRLAT", "title": "Version-agnostic anchor element for field PR.PRLAT", "type": "Root Data Element"}, "sdtmigDatasetMappingTargets": [{"href": "/mdr/sdtmig/3-2/datasets/PR/variables/PRLAT", "title": "Laterality", "type": "SDTM Dataset Variable"}], "self": {"href": "/mdr/cdashig/2-0/domains/PR/fields/PRLAT", "title": "Procedure Laterality", "type": "Data Collection Field"}}, "completionInstructions": "Record the side of the anatomical location where the procedure was administered.", "core": "O", "definition": "Qualifier for anatomical location further detailing side of the body for the procedure administration.", "implementationNotes": "Further detailing the laterality of the location where the procedure was administered/taken. This may be pre-printed or collected. Sponsors may collect the data using a subset list of Controlled Terminology on the CRF.", "label": "Procedure Laterality", "mappingInstructions": "Maps directly to the SDTMIG variable listed in the column with the heading \"SDTMIG Target\".", "name": "PRLAT", "ordinal": "28", "prompt": "Side", "questionText": "What was the side of the anatomical location of the administration?", "simpleDatatype": "Char"}, {"_links": {"codelist": [{"href": "/mdr/root/ct/sdtmct/codelists/C99074", "title": "Version-agnostic anchor resource for codelist C99074", "type": "Root Value Domain"}], "implements": {"href": "/mdr/cdash/1-0/classes/Interventions/fields/--DIR", "title": "Directionality", "type": "Class Variable"}, "parentDomain": {"href": "/mdr/cdashig/2-0/domains/PR", "title": "Procedures", "type": "CDASH Domain"}, "parentProduct": {"href": "/mdr/cdashig/2-0", "title": "Clinical Data Acquisition Standards Harmonization Implementation Guide for Human Clinical Trials Version 2.0", "type": "Implementation Guide"}, "rootItem": {"href": "/mdr/root/cdashig/domains/PR/fields/PRDIR", "title": "Version-agnostic anchor element for field PR.PRDIR", "type": "Root Data Element"}, "sdtmigDatasetMappingTargets": [{"href": "/mdr/sdtmig/3-2/datasets/PR/variables/PRDIR", "title": "Directionality", "type": "SDTM Dataset Variable"}], "self": {"href": "/mdr/cdashig/2-0/domains/PR/fields/PRDIR", "title": "Procedure Directionality", "type": "Data Collection Field"}}, "completionInstructions": "Record the direction of the anatomical location where the procedure was administered.", "core": "O", "definition": "Qualifier further detailing the position of the anatomical location relative to the center of the body, organ, or specimen.", "implementationNotes": "May be pre-printed or collected when the sponsor needs to identify the directionality of the anatomical location. Sponsors may collect the data using a subset list of Controlled Terminology on the CRF.", "label": "Procedure Directionality", "mappingInstructions": "Maps directly to the SDTMIG variable listed in the column with the heading \"SDTMIG Target\".", "name": "PRDIR", "ordinal": "29", "prompt": "Directionality", "questionText": "What was the directionality of the anatomical location of the procedure?", "simpleDatatype": "Char"}, {"_links": {"codelist": [{"href": "/mdr/root/ct/sdtmct/codelists/C99075", "title": "Version-agnostic anchor resource for codelist C99075", "type": "Root Value Domain"}], "implements": {"href": "/mdr/cdash/1-0/classes/Interventions/fields/--PORTOT", "title": "Portion or Totality", "type": "Class Variable"}, "parentDomain": {"href": "/mdr/cdashig/2-0/domains/PR", "title": "Procedures", "type": "CDASH Domain"}, "parentProduct": {"href": "/mdr/cdashig/2-0", "title": "Clinical Data Acquisition Standards Harmonization Implementation Guide for Human Clinical Trials Version 2.0", "type": "Implementation Guide"}, "rootItem": {"href": "/mdr/root/cdashig/domains/PR/fields/PRPORTOT", "title": "Version-agnostic anchor element for field PR.PRPORTOT", "type": "Root Data Element"}, "sdtmigDatasetMappingTargets": [{"href": "/mdr/sdtmig/3-2/datasets/PR/variables/PRPORTOT", "title": "Portion or Totality", "type": "SDTM Dataset Variable"}], "self": {"href": "/mdr/cdashig/2-0/domains/PR/fields/PRPORTOT", "title": "Procedure Portion or Totality", "type": "Data Collection Field"}}, "completionInstructions": "Record the portion of the body location that was treated.", "core": "O", "definition": "Qualifier for anatomical location further detailing the distribution, which means arrangement of, apportioning of.", "implementationNotes": "Collected when the sponsor needs to identify the specific portionality for the anatomical locations. Sponsors may collect the data using a subset list of Controlled Terminology on the CRF.", "label": "Procedure Portion or Totality", "mappingInstructions": "Maps directly to the SDTMIG variable listed in the column with the heading \"SDTMIG Target\".", "name": "PRPORTOT", "ordinal": "30", "prompt": "Portion or Totality", "questionText": "What was the portion or totality of the anatomical location that was treated?", "simpleDatatype": "Char"}, {"_links": {"codelist": [{"href": "/mdr/root/ct/sdtmct/codelists/C66742", "title": "Version-agnostic anchor resource for codelist C66742", "type": "Root Value Domain"}], "implements": {"href": "/mdr/cdash/1-0/classes/Interventions/fields/--FAST", "title": "Fasting Status", "type": "Class Variable"}, "parentDomain": {"href": "/mdr/cdashig/2-0/domains/PR", "title": "Procedures", "type": "CDASH Domain"}, "parentProduct": {"href": "/mdr/cdashig/2-0", "title": "Clinical Data Acquisition Standards Harmonization Implementation Guide for Human Clinical Trials Version 2.0", "type": "Implementation Guide"}, "rootItem": {"href": "/mdr/root/cdashig/domains/PR/fields/PRFAST", "title": "Version-agnostic anchor element for field PR.PRFAST", "type": "Root Data Element"}, "self": {"href": "/mdr/cdashig/2-0/domains/PR/fields/PRFAST", "title": "Procedure Fasting Status", "type": "Data Collection Field"}}, "completionInstructions": "Record whether the subject was fasting prior to the procedure being performed.", "core": "O", "definition": "An indication that the subject has abstained from food/water for the specified amount of time.", "implementationNotes": "This information is collected when the procedure may be affected by whether the subject was fasting. This may not be relevant for all procedures.", "label": "Procedure Fasting Status", "mappingInstructions": "Maps directly to the SDTMIG variable listed in the column with the heading \"SDTMIG Target\".", "name": "PRFAST", "ordinal": "31", "prompt": "Fasting", "questionText": "Was the subject fasting?", "simpleDatatype": "Char"}, {"_links": {"implements": {"href": "/mdr/cdash/1-0/classes/Interventions/fields/--DOSRGM", "title": "Intended Dose Regimen", "type": "Class Variable"}, "parentDomain": {"href": "/mdr/cdashig/2-0/domains/PR", "title": "Procedures", "type": "CDASH Domain"}, "parentProduct": {"href": "/mdr/cdashig/2-0", "title": "Clinical Data Acquisition Standards Harmonization Implementation Guide for Human Clinical Trials Version 2.0", "type": "Implementation Guide"}, "rootItem": {"href": "/mdr/root/cdashig/domains/PR/fields/PRDOSRGM", "title": "Version-agnostic anchor element for field PR.PRDOSRGM", "type": "Root Data Element"}, "sdtmigDatasetMappingTargets": [{"href": "/mdr/sdtmig/3-2/datasets/PR/variables/PRDOSRGM", "title": "Intended Dose Regimen", "type": "SDTM Dataset Variable"}], "self": {"href": "/mdr/cdashig/2-0/domains/PR/fields/PRDOSRGM", "title": "Intended Procedure Regimen", "type": "Data Collection Field"}}, "completionInstructions": "Record the intended regimen for the procedure to be performed.", "core": "O", "definition": "The text description of the (intended) schedule or regimen for the procedure.", "implementationNotes": "The regimen information may further clarify the dose administration and dose frequency (e.g., TWO WEEKS ON, TWO WEEKS OFF). This may be pre-specified or collected. The sponsor may wish to create a codelist to collect this data consistently.", "label": "Intended Procedure Regimen", "mappingInstructions": "Maps directly to the SDTMIG variable listed in the column with the heading \"SDTMIG Target\".", "name": "PRDOSRGM", "ordinal": "32", "prompt": "Intended Procedure Regimen", "questionText": "What was the intended procedure regimen?", "simpleDatatype": "Char"}, {"_links": {"codelist": [{"href": "/mdr/root/ct/sdtmct/codelists/C66742", "title": "Version-agnostic anchor resource for codelist C66742", "type": "Root Value Domain"}], "implements": {"href": "/mdr/cdash/1-0/classes/Interventions/fields/--DOSADJ", "title": "Dose Adjusted", "type": "Class Variable"}, "parentDomain": {"href": "/mdr/cdashig/2-0/domains/PR", "title": "Procedures", "type": "CDASH Domain"}, "parentProduct": {"href": "/mdr/cdashig/2-0", "title": "Clinical Data Acquisition Standards Harmonization Implementation Guide for Human Clinical Trials Version 2.0", "type": "Implementation Guide"}, "rootItem": {"href": "/mdr/root/cdashig/domains/PR/fields/PRDOSADJ", "title": "Version-agnostic anchor element for field PR.PRDOSADJ", "type": "Root Data Element"}, "self": {"href": "/mdr/cdashig/2-0/domains/PR/fields/PRDOSADJ", "title": "Procedure Adjusted", "type": "Data Collection Field"}}, "completionInstructions": "Record if the procedure was adjusted from planned.", "core": "O", "definition": "An indication whether or not the procedure dose/amount was adjusted.", "implementationNotes": "Typically, the intent/purpose of collecting this field is to help with data cleaning and monitoring. It provides verification that the associate field on the CRF (PRADJ) was deliberately left blank. However, the sponsor may collect whether the procedure dose/amount was adjusted, without collecting the reason for the change.", "label": "Procedure Adjusted", "mappingInstructions": "When PRADJ is collected, does not map to an SDTMIG variable. The SDTM Annotated CRF is annotated to indicate that this field is NOT SUBMITTED. When PRADJ is not collected, the sponsor may submit this variable as a SUPPQ.", "name": "PRDOSADJ", "ordinal": "33", "prompt": "(Dose) Adjusted", "questionText": "Was the procedure dose adjusted?", "simpleDatatype": "Char"}, {"_links": {"implements": {"href": "/mdr/cdash/1-0/classes/Interventions/fields/--ADJ", "title": "Reason for Dose Adjustment", "type": "Class Variable"}, "parentDomain": {"href": "/mdr/cdashig/2-0/domains/PR", "title": "Procedures", "type": "CDASH Domain"}, "parentProduct": {"href": "/mdr/cdashig/2-0", "title": "Clinical Data Acquisition Standards Harmonization Implementation Guide for Human Clinical Trials Version 2.0", "type": "Implementation Guide"}, "rootItem": {"href": "/mdr/root/cdashig/domains/PR/fields/PRADJ", "title": "Version-agnostic anchor element for field PR.PRADJ", "type": "Root Data Element"}, "self": {"href": "/mdr/cdashig/2-0/domains/PR/fields/PRADJ", "title": "Reason for Procedure Adjustment", "type": "Data Collection Field"}}, "completionInstructions": "Record why the procedure dose was adjusted from planned.", "core": "O", "definition": "Description or explanation of why a procedure dose/amount was adjusted.", "implementationNotes": "Captures reason [PRTRT] dose was changed or modified. The reason may be chosen from a sponsor defined list (for example, adverse event, insufficient response, etc.) or entered as free text.", "label": "Reason for Procedure Adjustment", "mappingInstructions": "Maps directly to the SDTMIG variable listed in the column with the heading \"SDTMIG Target\".", "name": "PRADJ", "ordinal": "34", "prompt": "Reason Adjusted", "questionText": "What was the reason the procedure dose was adjusted?", "simpleDatatype": "Char"}, {"_links": {"codelist": [{"href": "/mdr/root/ct/sdtmct/codelists/C66742", "title": "Version-agnostic anchor resource for codelist C66742", "type": "Root Value Domain"}], "implements": {"href": "/mdr/cdash/1-0/classes/Interventions/fields/--TRTCMP", "title": "Completed Treatment", "type": "Class Variable"}, "parentDomain": {"href": "/mdr/cdashig/2-0/domains/PR", "title": "Procedures", "type": "CDASH Domain"}, "parentProduct": {"href": "/mdr/cdashig/2-0", "title": "Clinical Data Acquisition Standards Harmonization Implementation Guide for Human Clinical Trials Version 2.0", "type": "Implementation Guide"}, "rootItem": {"href": "/mdr/root/cdashig/domains/PR/fields/PRTRTCMP", "title": "Version-agnostic anchor element for field PR.PRTRTCMP", "type": "Root Data Element"}, "sdtmigDatasetMappingTargets": [{"href": "/mdr/sdtmig/3-2/datasets/SUPPQUAL/variables/QVAL", "title": "Data Value", "type": "SDTM Dataset Variable"}], "self": {"href": "/mdr/cdashig/2-0/domains/PR/fields/PRTRTCMP", "title": "Completed Procedure", "type": "Data Collection Field"}}, "completionInstructions": "Record if the subject completed the intended regimen.", "core": "O", "definition": "Indication whether the subject completed the intended regimen.", "implementationNotes": "Depending on how the [PTTRT] dose details are collected via the CRF/eCRF, it may be possible to derive those data if the regimen data are collected.", "label": "Completed Procedure", "mappingInstructions": "This does not map directly to an SDTMIG variable. This information could be submitted in a SUPPPR dataset as the value of SUPPPR.QVAL where SUPPPR.QNAM = \"PRTRTCMP\" and SUPPPR.QLABEL=\"Treatment Completed\". Refer to the current SDTM and SDTMIG for instructions on placement of non-standard variables in SDTM domains.", "name": "PRTRTCMP", "ordinal": "35", "prompt": "Completed [PR Intervention Topic]", "questionText": "Did the subject complete the full course of the [PRTRT]?", "simpleDatatype": "Char"}, {"_links": {"codelist": [{"href": "/mdr/root/ct/sdtmct/codelists/C66742", "title": "Version-agnostic anchor resource for codelist C66742", "type": "Root Value Domain"}], "implements": {"href": "/mdr/cdash/1-0/classes/Interventions/fields/--ITRPYN", "title": "Intervention Interrupted", "type": "Class Variable"}, "parentDomain": {"href": "/mdr/cdashig/2-0/domains/PR", "title": "Procedures", "type": "CDASH Domain"}, "parentProduct": {"href": "/mdr/cdashig/2-0", "title": "Clinical Data Acquisition Standards Harmonization Implementation Guide for Human Clinical Trials Version 2.0", "type": "Implementation Guide"}, "rootItem": {"href": "/mdr/root/cdashig/domains/PR/fields/PRITRPYN", "title": "Version-agnostic anchor element for field PR.PRITRPYN", "type": "Root Data Element"}, "self": {"href": "/mdr/cdashig/2-0/domains/PR/fields/PRITRPYN", "title": "Procedure Interrupted", "type": "Data Collection Field"}}, "completionInstructions": "Record if the procedure was interrupted.", "core": "O", "definition": "An indication whether the procedure was interrupted.", "implementationNotes": "Provides a definitive response regarding any procedure interruption. The intent/purpose of collecting this field is to help with data cleaning and monitoring when the duration of the interruption is collected. In some situations, if the actual duration of the interruption is not collected, or not derived, this information could be submitted in a SUPPPR dataset.", "label": "Procedure Interrupted", "mappingInstructions": "Does not map to an SDTMIG variable. The SDTM Annotated CRF is annotated to indicate that this field is NOT SUBMITTED.", "name": "PRITRPYN", "ordinal": "36", "prompt": "Procedure Interrupted", "questionText": "Was the procedure interrupted?", "simpleDatatype": "Char"}, {"_links": {"implements": {"href": "/mdr/cdash/1-0/classes/Interventions/fields/--ITRPRS", "title": "Reason Intervention Interrupted", "type": "Class Variable"}, "parentDomain": {"href": "/mdr/cdashig/2-0/domains/PR", "title": "Procedures", "type": "CDASH Domain"}, "parentProduct": {"href": "/mdr/cdashig/2-0", "title": "Clinical Data Acquisition Standards Harmonization Implementation Guide for Human Clinical Trials Version 2.0", "type": "Implementation Guide"}, "rootItem": {"href": "/mdr/root/cdashig/domains/PR/fields/PRITRPRS", "title": "Version-agnostic anchor element for field PR.PRITRPRS", "type": "Root Data Element"}, "sdtmigDatasetMappingTargets": [{"href": "/mdr/sdtmig/3-2/datasets/SUPPQUAL/variables/QVAL", "title": "Data Value", "type": "SDTM Dataset Variable"}], "self": {"href": "/mdr/cdashig/2-0/domains/PR/fields/PRITRPRS", "title": "Reason Procedure Interrupted", "type": "Data Collection Field"}}, "completionInstructions": "Record the reason the procedure was interrupted.", "core": "O", "definition": "An indication why the intervention was interrupted.", "implementationNotes": "This CDASH field is use to collected the reason why an intervention was interrupted. The sponsor may define their own controlled terminology.", "label": "Reason Procedure Interrupted", "mappingInstructions": "his information could be submitted in a SUPPPR dataset as the value of SUPPPR.QVAL where SUPPPR.QNAM = \"PRITRPRS\" and SUPPPR.QLABEL =\"Reason Intervention Interrupted\". Refer to the current SDTM and SDTMIG for instructions on placement of non-standard variables in SDTM domains.", "name": "PRITRPRS", "ordinal": "37", "prompt": "Reason Procedure Interrupted", "questionText": "Why was the procedure interrupted?", "simpleDatatype": "Char"}, {"_links": {"implements": {"href": "/mdr/cdash/1-0/classes/Interventions/fields/--ITRPD", "title": "Interruption Duration", "type": "Class Variable"}, "parentDomain": {"href": "/mdr/cdashig/2-0/domains/PR", "title": "Procedures", "type": "CDASH Domain"}, "parentProduct": {"href": "/mdr/cdashig/2-0", "title": "Clinical Data Acquisition Standards Harmonization Implementation Guide for Human Clinical Trials Version 2.0", "type": "Implementation Guide"}, "rootItem": {"href": "/mdr/root/cdashig/domains/PR/fields/PRITRPD", "title": "Version-agnostic anchor element for field PR.PRITRPD", "type": "Root Data Element"}, "sdtmigDatasetMappingTargets": [{"href": "/mdr/sdtmig/3-2/datasets/SUPPQUAL/variables/QVAL", "title": "Data Value", "type": "SDTM Dataset Variable"}], "self": {"href": "/mdr/cdashig/2-0/domains/PR/fields/PRITRPD", "title": "Procedure Interruption Duration", "type": "Data Collection Field"}}, "completionInstructions": "Record how long the procedure was interrupted before it resumed.", "core": "O", "definition": "The duration of the procedure interruption as collected.", "implementationNotes": "This field is used to collect the duration of procedure interruption. In some situations, the duration of the interruption may not be collected but calculated from the procedure start and end times recorded elsewhere in the CRF. This derived variable is not included in an SDTM-based dataset.", "label": "Procedure Interruption Duration", "mappingInstructions": "This does not map directly to an SDTM variable. Concatenate the CDASH fields for collected PRTRT interruption duration and the unit components and create PRITRPD using ISO 8601 Period format. The information could be submitted in an SUPPPR dataset as the value of SUPPPR.QVAL where SUPPPR.QNAM = \"PRITRPD\" and SUPPPR.QLABEL = \"Collected Interruption Duration\". Refer to the current SDTM and SDTMIG for instructions on placement of non-standard variables in SDTM domains.", "name": "PRITRPD", "ordinal": "38", "prompt": "Collected Interruption Duration", "questionText": "What was the duration of the procedure interruption?", "simpleDatatype": "Char"}, {"_links": {"codelist": [{"href": "/mdr/root/ct/sdtmct/codelists/C71620", "title": "Version-agnostic anchor resource for codelist C71620", "type": "Root Value Domain"}], "implements": {"href": "/mdr/cdash/1-0/classes/Interventions/fields/--ITRPDU", "title": "Interruption Duration Unit", "type": "Class Variable"}, "parentDomain": {"href": "/mdr/cdashig/2-0/domains/PR", "title": "Procedures", "type": "CDASH Domain"}, "parentProduct": {"href": "/mdr/cdashig/2-0", "title": "Clinical Data Acquisition Standards Harmonization Implementation Guide for Human Clinical Trials Version 2.0", "type": "Implementation Guide"}, "rootItem": {"href": "/mdr/root/cdashig/domains/PR/fields/PRITRPDU", "title": "Version-agnostic anchor element for field PR.PRITRPDU", "type": "Root Data Element"}, "self": {"href": "/mdr/cdashig/2-0/domains/PR/fields/PRITRPDU", "title": "Procedure Interruption Duration Units", "type": "Data Collection Field"}}, "completionInstructions": "Record the unit for the duration of interruption of the procedure.", "core": "O", "definition": "The unit for the duration of the procedure interruption.", "implementationNotes": "The unit should be collected as a qualifier to the number for duration.", "label": "Procedure Interruption Duration Units", "mappingInstructions": "This does not map directly to an SDTM variable. Concatenate the CDASH fields for collected PRTRT interruption duration and the unit components and create PRITRPD using ISO 8601 Period format. The information could be submitted in an SUPPPR dataset as the value of SUPPPR.QVAL where SUPPPR.QNAM = \"PRITRPD\" and SUPPPR.QLABEL = \"Collected Interruption Duration\". Refer to the current SDTM and SDTMIG for instructions on placement of non-standard variables in SDTM domains.", "name": "PRITRPDU", "ordinal": "39", "prompt": "[Interruption Duration] Unit", "questionText": "What was the interruption duration unit?", "simpleDatatype": "Char"}, {"_links": {"implements": {"href": "/mdr/cdash/1-0/classes/Interventions/fields/--LLT", "title": "Lowest Level Term", "type": "Class Variable"}, "parentDomain": {"href": "/mdr/cdashig/2-0/domains/PR", "title": "Procedures", "type": "CDASH Domain"}, "parentProduct": {"href": "/mdr/cdashig/2-0", "title": "Clinical Data Acquisition Standards Harmonization Implementation Guide for Human Clinical Trials Version 2.0", "type": "Implementation Guide"}, "rootItem": {"href": "/mdr/root/cdashig/domains/PR/fields/PRLLT", "title": "Version-agnostic anchor element for field PR.PRLLT", "type": "Root Data Element"}, "sdtmigDatasetMappingTargets": [{"href": "/mdr/sdtmig/3-2/datasets/SUPPQUAL/variables/QVAL", "title": "Data Value", "type": "SDTM Dataset Variable"}], "self": {"href": "/mdr/cdashig/2-0/domains/PR/fields/PRLLT", "title": "Procedure Lowest Level Term", "type": "Data Collection Field"}}, "core": "O", "definition": "MedDRA Dictionary text description of the Lowest Level Term.", "implementationNotes": "This field does not typically appear on the CRF. Sponsors will populate this through the coding process. This is applicable to items using the MedDRA coding dictionary. Rationale for adding coding variables to CDASH is to provide a more complete Data Management package. This variable could be used in the PR domain for coding. Another dictionaries can be used and the appropriate coding elements added, if appropriate, in the SUPPPR.QVAL dataset.", "label": "Procedure Lowest Level Term", "mappingInstructions": "This information could be submitted in a SUPPPR dataset as the value of SUPPPR.QVAL where SUPPPR.QNAM = \"PRLLT\" and SUPPPR.QLABEL =\"Lower Level Term\". Refer to the current SDTM and SDTMIG for instructions on placement of non-standard variables in SDTM domains. Sponsors should include an Origin column in the SUPPQ dataset to indicate that the data was \"ASSIGNED\".", "name": "PRLLT", "ordinal": "40", "prompt": "N/A", "questionText": "N/A", "simpleDatatype": "Char"}, {"_links": {"implements": {"href": "/mdr/cdash/1-0/classes/Interventions/fields/--LLTCD", "title": "Lowest Level Term Code", "type": "Class Variable"}, "parentDomain": {"href": "/mdr/cdashig/2-0/domains/PR", "title": "Procedures", "type": "CDASH Domain"}, "parentProduct": {"href": "/mdr/cdashig/2-0", "title": "Clinical Data Acquisition Standards Harmonization Implementation Guide for Human Clinical Trials Version 2.0", "type": "Implementation Guide"}, "rootItem": {"href": "/mdr/root/cdashig/domains/PR/fields/PRLLTCD", "title": "Version-agnostic anchor element for field PR.PRLLTCD", "type": "Root Data Element"}, "sdtmigDatasetMappingTargets": [{"href": "/mdr/sdtmig/3-2/datasets/SUPPQUAL/variables/QVAL", "title": "Data Value", "type": "SDTM Dataset Variable"}], "self": {"href": "/mdr/cdashig/2-0/domains/PR/fields/PRLLTCD", "title": "Procedure Lowest Level Term Code", "type": "Data Collection Field"}}, "core": "O", "definition": "MedDRA Dictionary Lowest Level Term code.", "implementationNotes": "This field does not typically appear on the CRF. Sponsors will populate this through the coding process. This is applicable to items using the MedDRA coding dictionary. Rationale for adding coding variables to CDASH is to provide a more complete Data Management package. This variable could be used in the PR domain for MedDRA coding. Other dictionaries can be used and the appropriate coding elements added, if appropriate, in the SUPPPR.QVAL dataset.", "label": "Procedure Lowest Level Term Code", "mappingInstructions": "This information could be submitted in a SUPPPR dataset as the value of SUPPPR.QVAL where SUPPPR.QNAM= \"PRLLTCD\" and SUPPPR.QLABEL = \"Lower Level Term Code\". Refer to the current SDTM and SDTMIG for instructions on placement of non-standard variables in SDTM domains. Sponsors should include an Origin column in the SUPPQ dataset to indicate that the data was \"ASSIGNED\".", "name": "PRLLTCD", "ordinal": "41", "prompt": "N/A", "questionText": "N/A", "simpleDatatype": "Num"}, {"_links": {"implements": {"href": "/mdr/cdash/1-0/classes/Interventions/fields/--PTCD", "title": "Preferred Term Code", "type": "Class Variable"}, "parentDomain": {"href": "/mdr/cdashig/2-0/domains/PR", "title": "Procedures", "type": "CDASH Domain"}, "parentProduct": {"href": "/mdr/cdashig/2-0", "title": "Clinical Data Acquisition Standards Harmonization Implementation Guide for Human Clinical Trials Version 2.0", "type": "Implementation Guide"}, "rootItem": {"href": "/mdr/root/cdashig/domains/PR/fields/PRPTCD", "title": "Version-agnostic anchor element for field PR.PRPTCD", "type": "Root Data Element"}, "sdtmigDatasetMappingTargets": [{"href": "/mdr/sdtmig/3-2/datasets/SUPPQUAL/variables/QVAL", "title": "Data Value", "type": "SDTM Dataset Variable"}], "self": {"href": "/mdr/cdashig/2-0/domains/PR/fields/PRPTCD", "title": "Procedure Preferred Term Code", "type": "Data Collection Field"}}, "core": "O", "definition": "MedDRA Dictionary code for the Preferred Term.", "implementationNotes": "This field does not typically appear on the CRF. Sponsors will populate this through the coding process. This is applicable to items using the MedDRA coding dictionary. Rationale for adding coding variables to CDASH is to provide a more complete Data Management package. This variable could be used in the PR domain for MedDRA coding. Other dictionaries can be used and the appropriate coding elements added, if appropriate, in the SUPPPR.QVAL dataset.", "label": "Procedure Preferred Term Code", "mappingInstructions": "This information could be submitted in a SUPPPR.QVAL dataset where SUPPPR.QNAM = \"PRPTCD\" and SUPPPR.QLABEL= \"Preferred Term Code Lower Level Term Code\". Refer to the current SDTM and SDTMIG for instructions on placement of non-standard variables in SDTM domains. Sponsors should include an Origin column in the SUPPQ dataset to indicate that the data was \"ASSIGNED\".", "name": "PRPTCD", "ordinal": "42", "prompt": "N/A", "questionText": "N/A", "simpleDatatype": "Num"}, {"_links": {"implements": {"href": "/mdr/cdash/1-0/classes/Interventions/fields/--HLT", "title": "High Level Term", "type": "Class Variable"}, "parentDomain": {"href": "/mdr/cdashig/2-0/domains/PR", "title": "Procedures", "type": "CDASH Domain"}, "parentProduct": {"href": "/mdr/cdashig/2-0", "title": "Clinical Data Acquisition Standards Harmonization Implementation Guide for Human Clinical Trials Version 2.0", "type": "Implementation Guide"}, "rootItem": {"href": "/mdr/root/cdashig/domains/PR/fields/PRHLT", "title": "Version-agnostic anchor element for field PR.PRHLT", "type": "Root Data Element"}, "sdtmigDatasetMappingTargets": [{"href": "/mdr/sdtmig/3-2/datasets/SUPPQUAL/variables/QVAL", "title": "Data Value", "type": "SDTM Dataset Variable"}], "self": {"href": "/mdr/cdashig/2-0/domains/PR/fields/PRHLT", "title": "Procedure High Level Term", "type": "Data Collection Field"}}, "core": "O", "definition": "MedDRA Dictionary text description of High Level Term from the primary path.", "implementationNotes": "This is not a data collection field that will appear on the CRF. Sponsors will populate this through the coding process. This is applicable to items using the MedDRA coding dictionary. Rationale for adding coding variables to CDASH is to provide a more complete Data Management package. This variable could be used in the PR domain for MedDRA coding. Other dictionaries can be used and the appropriate coding elements added, if appropriate, in the SUPPPR.QVAL dataset.", "label": "Procedure High Level Term", "mappingInstructions": "This information could be submitted in a SUPPPR dataset as the value of SUPPPR.QVAL where SUPPPR.QNAM = \"PRHLT\" and SUPPPR.QLABEL = \"High Level Term\". Refer to the current SDTM and SDTMIG for instructions on placement of non-standard variables in SDTM domains. Sponsors should include an Origin column in the SUPPQ dataset to indicate that the data was \"ASSIGNED\".", "name": "PRHLT", "ordinal": "43", "prompt": "N/A", "questionText": "N/A", "simpleDatatype": "Char"}, {"_links": {"implements": {"href": "/mdr/cdash/1-0/classes/Interventions/fields/--HLTCD", "title": "High Level Term Code", "type": "Class Variable"}, "parentDomain": {"href": "/mdr/cdashig/2-0/domains/PR", "title": "Procedures", "type": "CDASH Domain"}, "parentProduct": {"href": "/mdr/cdashig/2-0", "title": "Clinical Data Acquisition Standards Harmonization Implementation Guide for Human Clinical Trials Version 2.0", "type": "Implementation Guide"}, "rootItem": {"href": "/mdr/root/cdashig/domains/PR/fields/PRHLTCD", "title": "Version-agnostic anchor element for field PR.PRHLTCD", "type": "Root Data Element"}, "sdtmigDatasetMappingTargets": [{"href": "/mdr/sdtmig/3-2/datasets/SUPPQUAL/variables/QVAL", "title": "Data Value", "type": "SDTM Dataset Variable"}], "self": {"href": "/mdr/cdashig/2-0/domains/PR/fields/PRHLTCD", "title": "Procedure High Level Term Code", "type": "Data Collection Field"}}, "core": "O", "definition": "MedDRA Dictionary High Level Term code from the primary path.", "implementationNotes": "This is not a data collection field that will appear on the CRF. Sponsors will populate this through the coding process. This is applicable to items using the MedDRA coding dictionary. Rationale for adding coding variables to CDASH is to provide a more complete Data Management package. This variable could be used in the PR domain for MedDRA coding. Other dictionaries can be used and the appropriate coding elements added, if appropriate, in the SUPPPR.QVAL dataset.", "label": "Procedure High Level Term Code", "mappingInstructions": "This information could be submitted in a SUPPPR.QVAL dataset where SUPPPR.QNAM= \"PRHLTCD\" and SUPPPR.QLABEL=\"High Level Term Code\". Refer to the current SDTM and SDTMIG for instructions on placement of non-standard variables in SDTM domains. Sponsors should include an Origin in the define metadata document to indicate that the data was \"ASSIGNED\".", "name": "PRHLTCD", "ordinal": "44", "prompt": "N/A", "questionText": "N/A", "simpleDatatype": "Num"}, {"_links": {"implements": {"href": "/mdr/cdash/1-0/classes/Interventions/fields/--HLGT", "title": "High Level Group Term", "type": "Class Variable"}, "parentDomain": {"href": "/mdr/cdashig/2-0/domains/PR", "title": "Procedures", "type": "CDASH Domain"}, "parentProduct": {"href": "/mdr/cdashig/2-0", "title": "Clinical Data Acquisition Standards Harmonization Implementation Guide for Human Clinical Trials Version 2.0", "type": "Implementation Guide"}, "rootItem": {"href": "/mdr/root/cdashig/domains/PR/fields/PRHLGT", "title": "Version-agnostic anchor element for field PR.PRHLGT", "type": "Root Data Element"}, "sdtmigDatasetMappingTargets": [{"href": "/mdr/sdtmig/3-2/datasets/SUPPQUAL/variables/QVAL", "title": "Data Value", "type": "SDTM Dataset Variable"}], "self": {"href": "/mdr/cdashig/2-0/domains/PR/fields/PRHLGT", "title": "Procedure High Level Group Term", "type": "Data Collection Field"}}, "core": "O", "definition": "MedDRA Dictionary text description of the High Level Group Term from the primary path.", "implementationNotes": "This field does not typically appear on the CRF. Sponsors will populate this through the coding process. This is applicable to items using the MedDRA coding dictionary. Rationale for adding coding variables to CDASH is to provide a more complete Data Management package. This variable could be used in the PR domain for MedDRA coding. Other dictionaries can be used and the appropriate coding elements added, if appropriate, in the SUPPPR.QVAL dataset.", "label": "Procedure High Level Group Term", "mappingInstructions": "This information could be submitted in a SUPPPR dataset as the value of SUPPPR.QVAL where SUPPPR.QNAM =\"PRHLTGT\" and SUPPPR.QLABEL= \"High Level Group Term\". Refer to the current SDTM and SDTMIG for instructions on placement of non-standard variables in SDTM domains. Sponsors should include an Origin column in the SUPPQ dataset to indicate that the data was \"ASSIGNED\".", "name": "PRHLGT", "ordinal": "45", "prompt": "N/A", "questionText": "N/A", "simpleDatatype": "Char"}, {"_links": {"implements": {"href": "/mdr/cdash/1-0/classes/Interventions/fields/--HLGTCD", "title": "High Level Group Term Code", "type": "Class Variable"}, "parentDomain": {"href": "/mdr/cdashig/2-0/domains/PR", "title": "Procedures", "type": "CDASH Domain"}, "parentProduct": {"href": "/mdr/cdashig/2-0", "title": "Clinical Data Acquisition Standards Harmonization Implementation Guide for Human Clinical Trials Version 2.0", "type": "Implementation Guide"}, "rootItem": {"href": "/mdr/root/cdashig/domains/PR/fields/PRHLGTCD", "title": "Version-agnostic anchor element for field PR.PRHLGTCD", "type": "Root Data Element"}, "sdtmigDatasetMappingTargets": [{"href": "/mdr/sdtmig/3-2/datasets/SUPPQUAL/variables/QVAL", "title": "Data Value", "type": "SDTM Dataset Variable"}], "self": {"href": "/mdr/cdashig/2-0/domains/PR/fields/PRHLGTCD", "title": "Procedure High Level Group Term Code", "type": "Data Collection Field"}}, "core": "O", "definition": "MedDRA Dictionary High Level Group Term code from the primary path.", "implementationNotes": "This is not a data collection field that will appear on the CRF. Sponsors will populate this through the coding process. This is applicable to items using the MedDRA coding dictionary. Rationale for adding coding variables to CDASH is to provide a more complete Data Management package. This variable could be used in the PR domain for MedDRA coding. Other dictionaries can be used and the appropriate coding elements added, if appropriate, in the SUPPPR.QVAL dataset.", "label": "Procedure High Level Group Term Code", "mappingInstructions": "This information could be submitted in a SUPPPR dataset as the value of SUPPPR.QVAL where SUPPPR.QNAM = \"PRHLTGTCD\" and SUPPPR.QLABEL = \"High Level Group Term Code\". Refer to the current SDTM and SDTMIG for instructions on placement of non-standard variables in SDTM domains. Sponsors should include an Origin column in the SUPPQ dataset to indicate that the data was \"ASSIGNED\".", "name": "PRHLGTCD", "ordinal": "46", "prompt": "N/A", "questionText": "N/A", "simpleDatatype": "Num"}, {"_links": {"implements": {"href": "/mdr/cdash/1-0/classes/Interventions/fields/--SOC", "title": "Primary System Organ Class", "type": "Class Variable"}, "parentDomain": {"href": "/mdr/cdashig/2-0/domains/PR", "title": "Procedures", "type": "CDASH Domain"}, "parentProduct": {"href": "/mdr/cdashig/2-0", "title": "Clinical Data Acquisition Standards Harmonization Implementation Guide for Human Clinical Trials Version 2.0", "type": "Implementation Guide"}, "rootItem": {"href": "/mdr/root/cdashig/domains/PR/fields/PRSOC", "title": "Version-agnostic anchor element for field PR.PRSOC", "type": "Root Data Element"}, "sdtmigDatasetMappingTargets": [{"href": "/mdr/sdtmig/3-2/datasets/SUPPQUAL/variables/QVAL", "title": "Data Value", "type": "SDTM Dataset Variable"}], "self": {"href": "/mdr/cdashig/2-0/domains/PR/fields/PRSOC", "title": "Procedure Primary System Organ Class", "type": "Data Collection Field"}}, "core": "O", "definition": "MedDRA Primary System Organ Class description associated with the intervention.", "implementationNotes": "This is not a data collection field that will appear on the CRF. Sponsors will populate this through the coding process. This is applicable to items using the MedDRA coding dictionary. Rationale for adding coding variables to CDASH is to provide a more complete Data Management package. This variable could be used in the PR domain for MedDRA coding. Other dictionaries can be used and the appropriate coding elements added, if appropriate, in the SUPPPR.QVAL dataset.", "label": "Procedure Primary System Organ Class", "mappingInstructions": "This information could be submitted in a SUPPPR.QVAL dataset where SUPPPR.QNAM = \"PRSOC\" and SUPPPR.QLABEL = \"Primary System Organ Class\". Refer to the current SDTM and SDTMIG for instructions on placement of non-standard variables in SDTM domains. Sponsors should include an Origin in the define metadata document to indicate that the data was \"ASSIGNED\".", "name": "PRSOC", "ordinal": "47", "prompt": "N/A", "questionText": "N/A", "simpleDatatype": "Char"}, {"_links": {"implements": {"href": "/mdr/cdash/1-0/classes/Interventions/fields/--SOCCD", "title": "Primary System Organ Class Code", "type": "Class Variable"}, "parentDomain": {"href": "/mdr/cdashig/2-0/domains/PR", "title": "Procedures", "type": "CDASH Domain"}, "parentProduct": {"href": "/mdr/cdashig/2-0", "title": "Clinical Data Acquisition Standards Harmonization Implementation Guide for Human Clinical Trials Version 2.0", "type": "Implementation Guide"}, "rootItem": {"href": "/mdr/root/cdashig/domains/PR/fields/PRSOCCD", "title": "Version-agnostic anchor element for field PR.PRSOCCD", "type": "Root Data Element"}, "sdtmigDatasetMappingTargets": [{"href": "/mdr/sdtmig/3-2/datasets/SUPPQUAL/variables/QVAL", "title": "Data Value", "type": "SDTM Dataset Variable"}], "self": {"href": "/mdr/cdashig/2-0/domains/PR/fields/PRSOCCD", "title": "Procedure Primary System Organ Class Code", "type": "Data Collection Field"}}, "core": "O", "definition": "MedDRA Primary System Organ Class code.", "implementationNotes": "This field does not typically appear on the CRF. Sponsors will populate this through the coding process. This is applicable to items using the MedDRA coding dictionary. Rationale for adding coding variables to CDASH is to provide a more complete Data Management package. This variable could be used in the PR domain for MedDRA coding. Other dictionaries can be used and the appropriate coding elements added, if appropriate, in the SUPPPR.QVAL dataset.", "label": "Procedure Primary System Organ Class Code", "mappingInstructions": "This information could be submitted in a SUPPPR dataset as the value of SUPPPR.QVAL where SUPPPR.QNAM = \"PRSOCCD\" and SUPPPR.QLABEL = \"Primary System Organ Class Code\". Refer to the current SDTM and SDTMIG for instructions on placement of non-standard variables in SDTM domains. Sponsors should include an Origin column in the SUPPQ dataset to indicate that the data was \"ASSIGNED\".", "name": "PRSOCCD", "ordinal": "48", "prompt": "N/A", "questionText": "N/A", "simpleDatatype": "Num"}], "label": "Procedures", "name": "PR", "ordinal": "6"}
