{"_links": {"parentClass": {"href": "/mdr/cdashig/2-0/classes/Findings", "title": "Findings Observation Class", "type": "Class"}, "parentProduct": {"href": "/mdr/cdashig/2-0", "title": "Clinical Data Acquisition Standards Harmonization Implementation Guide for Human Clinical Trials Version 2.0", "type": "Implementation Guide"}, "scenarios": [{"href": "/mdr/cdashig/2-0/scenarios/SR.Denormalized", "title": "SR - Denormalized - Implementation Options: Horizontal-Example", "type": "CDASH Scenario"}, {"href": "/mdr/cdashig/2-0/scenarios/SR.HorizontalGeneric", "title": "SR - Implementation Options: Horizontal-Generic", "type": "CDASH Scenario"}], "self": {"href": "/mdr/cdashig/2-0/domains/SR", "title": "Skin Response Findings", "type": "CDASH Domain"}}, "fields": [{"_links": {"implements": {"href": "/mdr/cdash/1-0/classes/Identifiers/fields/STUDYID", "title": "Study Identifier", "type": "Class Variable"}, "parentDomain": {"href": "/mdr/cdashig/2-0/domains/SR", "title": "Skin Response Findings", "type": "CDASH Domain"}, "parentProduct": {"href": "/mdr/cdashig/2-0", "title": "Clinical Data Acquisition Standards Harmonization Implementation Guide for Human Clinical Trials Version 2.0", "type": "Implementation Guide"}, "rootItem": {"href": "/mdr/root/cdashig/domains/SR/fields/STUDYID", "title": "Version-agnostic anchor element for field SR.STUDYID", "type": "Root Data Element"}, "sdtmigDatasetMappingTargets": [{"href": "/mdr/sdtmig/3-2/datasets/SR/variables/STUDYID", "title": "Study Identifier", "type": "SDTM Dataset Variable"}], "self": {"href": "/mdr/cdashig/2-0/domains/SR/fields/STUDYID", "title": "Study Identifier", "type": "Data Collection Field"}}, "core": "HR", "definition": "A unique identifier for a study.", "implementationNotes": "While this field is not typically captured on a CRF, it should be displayed clearly on the CRF and/or the EDC system. This field can be included into the database or populated during SDTM-based dataset creation before submission.", "label": "Study Identifier", "mappingInstructions": "Maps directly to the SDTMIG variable listed in the column with the heading \"SDTMIG Target\".", "name": "STUDYID", "ordinal": "1", "prompt": "[Protocol/Study]", "questionText": "What is the study identifier?", "simpleDatatype": "Char"}, {"_links": {"implements": {"href": "/mdr/cdash/1-0/domains/DM/fields/SITEID", "title": "Study Site Identifier", "type": "Data Collection Field"}, "parentDomain": {"href": "/mdr/cdashig/2-0/domains/SR", "title": "Skin Response Findings", "type": "CDASH Domain"}, "parentProduct": {"href": "/mdr/cdashig/2-0", "title": "Clinical Data Acquisition Standards Harmonization Implementation Guide for Human Clinical Trials Version 2.0", "type": "Implementation Guide"}, "rootItem": {"href": "/mdr/root/cdashig/domains/SR/fields/SITEID", "title": "Version-agnostic anchor element for field SR.SITEID", "type": "Root Data Element"}, "sdtmigDatasetMappingTargets": [{"href": "/mdr/sdtmig/3-2/datasets/DM/variables/SITEID", "title": "Study Site Identifier", "type": "SDTM Dataset Variable"}], "self": {"href": "/mdr/cdashig/2-0/domains/SR/fields/SITEID", "title": "Study Site Identifier", "type": "Data Collection Field"}}, "core": "HR", "definition": "A unique identifier for a site within a study.", "implementationNotes": "Paper: This is typically preprinted in the header of each CRF page for single site studies. For studies with multiple sites, this field may be left blank so that the number can be recorded by the site, or it may be preprinted for the CRFs that are shipped to each site. EDC: This should be prepopulated.", "label": "Study Site Identifier", "mappingInstructions": "Maps directly to the SDTMIG variable listed in the column with the heading \"SDTMIG Target\".", "name": "SITEID", "ordinal": "2", "prompt": "Site (Identifier)", "questionText": "What is the site identifier?", "simpleDatatype": "Char"}, {"_links": {"implements": {"href": "/mdr/cdash/1-0/classes/Identifiers/fields/SUBJID", "title": "Subject Identifier for the Study", "type": "Class Variable"}, "parentDomain": {"href": "/mdr/cdashig/2-0/domains/SR", "title": "Skin Response Findings", "type": "CDASH Domain"}, "parentProduct": {"href": "/mdr/cdashig/2-0", "title": "Clinical Data Acquisition Standards Harmonization Implementation Guide for Human Clinical Trials Version 2.0", "type": "Implementation Guide"}, "rootItem": {"href": "/mdr/root/cdashig/domains/SR/fields/SUBJID", "title": "Version-agnostic anchor element for field SR.SUBJID", "type": "Root Data Element"}, "sdtmigDatasetMappingTargets": [{"href": "/mdr/sdtmig/3-2/datasets/DM/variables/SUBJID", "title": "Subject Identifier for the Study", "type": "SDTM Dataset Variable"}], "self": {"href": "/mdr/cdashig/2-0/domains/SR/fields/SUBJID", "title": "Subject Identifier for the Study", "type": "Data Collection Field"}}, "completionInstructions": "Record the identifier for the subject.", "core": "HR", "definition": "A unique subject identifier within a site and a study.", "implementationNotes": "Paper: This is typically recorded in the header of each CRF page. EDC: The subject identifiers may be provided to the site using a pre-populated list in the system. This CDASH variable is typically collected in all CDASH domains. However, this CDASH variable is populated only in the SDTMIG DM domain. For more information, refer to Study Data Tabulation Model.", "label": "Subject Identifier for the Study", "mappingInstructions": "Maps directly to the SDTMIG variable listed in the column with the heading \"SDTMIG Target\".", "name": "SUBJID", "ordinal": "3", "prompt": "Subject", "questionText": "What is the subject identifier?", "simpleDatatype": "Char"}, {"_links": {"implements": {"href": "/mdr/cdash/1-0/classes/Timing/fields/VISIT", "title": "Visit Name", "type": "Class Variable"}, "parentDomain": {"href": "/mdr/cdashig/2-0/domains/SR", "title": "Skin Response Findings", "type": "CDASH Domain"}, "parentProduct": {"href": "/mdr/cdashig/2-0", "title": "Clinical Data Acquisition Standards Harmonization Implementation Guide for Human Clinical Trials Version 2.0", "type": "Implementation Guide"}, "rootItem": {"href": "/mdr/root/cdashig/domains/SR/fields/VISIT", "title": "Version-agnostic anchor element for field SR.VISIT", "type": "Root Data Element"}, "sdtmigDatasetMappingTargets": [{"href": "/mdr/sdtmig/3-2/datasets/SR/variables/VISIT", "title": "Visit Name", "type": "SDTM Dataset Variable"}], "self": {"href": "/mdr/cdashig/2-0/domains/SR/fields/VISIT", "title": "Visit Name", "type": "Data Collection Field"}}, "core": "R/C", "definition": "The name of a clinical encounter that encompasses planned and unplanned trial interventions, procedures, and assessments that may be performed on a subject.", "implementationNotes": "The name of the visit is typically pre-printed on the CRF, and should match the name of the visit in the protocol. May be used to derive the SDTM variable VISITNUM. Note: Sponsors may have CDASH visit numbering or visit naming conventions to handle special circumstances (e.g., unscheduled visits). In these cases, the appropriate visit numbers and visit names, may need to be populated when the SDTM submission datasets are created.", "label": "Visit Name", "mappingInstructions": "Maps directly to the SDTMIG variable listed in the column with the heading \"SDTMIG Target\".", "name": "VISIT", "ordinal": "4", "prompt": "[Visit]", "questionText": "What is the visit name?", "simpleDatatype": "Char"}, {"_links": {"implements": {"href": "/mdr/cdash/1-0/classes/Timing/fields/VISDAT", "title": "Visit Date", "type": "Class Variable"}, "parentDomain": {"href": "/mdr/cdashig/2-0/domains/SR", "title": "Skin Response Findings", "type": "CDASH Domain"}, "parentProduct": {"href": "/mdr/cdashig/2-0", "title": "Clinical Data Acquisition Standards Harmonization Implementation Guide for Human Clinical Trials Version 2.0", "type": "Implementation Guide"}, "rootItem": {"href": "/mdr/root/cdashig/domains/SR/fields/VISDAT", "title": "Version-agnostic anchor element for field SR.VISDAT", "type": "Root Data Element"}, "self": {"href": "/mdr/cdashig/2-0/domains/SR/fields/VISDAT", "title": "Visit Date", "type": "Data Collection Field"}}, "completionInstructions": "Record the [date/start date] of the visit using DD-MON-YYYY format.", "core": "R/C", "definition": "Date the clinical encounter occurred (or started).", "implementationNotes": "The date of the skin response measurements were collected can be determined from the Visit Date variable (VISDAT) and applying that date to all of the skin response measurements at that visit, or the collection date can be included on the Skin Response CRF using the date (SRDAT) field.", "label": "Visit Date", "mappingInstructions": "This field is not an SDTM variable. The date of a measurement, test, observation can be determined from the date/time of visit (VISDAT/VISTIM) and then concatenating the CDASH VISDAT/VISTIM components and populating the SDTMIG variable SRDTC in ISO 8601 format.", "name": "VISDAT", "ordinal": "5", "prompt": "Visit Date", "questionText": "What [is/was] the date of the visit?", "simpleDatatype": "Char"}, {"_links": {"codelist": [{"href": "/mdr/root/ct/sdtmct/codelists/C66742", "title": "Version-agnostic anchor resource for codelist C66742", "type": "Root Value Domain"}], "implements": {"href": "/mdr/cdash/1-0/classes/Findings/fields/--PERF", "title": "[Observation] Performed", "type": "Class Variable"}, "parentDomain": {"href": "/mdr/cdashig/2-0/domains/SR", "title": "Skin Response Findings", "type": "CDASH Domain"}, "parentProduct": {"href": "/mdr/cdashig/2-0", "title": "Clinical Data Acquisition Standards Harmonization Implementation Guide for Human Clinical Trials Version 2.0", "type": "Implementation Guide"}, "rootItem": {"href": "/mdr/root/cdashig/domains/SR/fields/SRPERF", "title": "Version-agnostic anchor element for field SR.SRPERF", "type": "Root Data Element"}, "sdtmigDatasetMappingTargets": [{"href": "/mdr/sdtmig/3-2/datasets/SR/variables/SRSTAT", "title": "Completion Status", "type": "SDTM Dataset Variable"}], "self": {"href": "/mdr/cdashig/2-0/domains/SR/fields/SRPERF", "title": "Skin Response Test Performed", "type": "Data Collection Field"}}, "completionInstructions": "Indicate if a skin response test as performed. If yes, include the appropriate details where indicated on the CRF.", "core": "O", "definition": "An indication whether or not a skin response test was performed.", "implementationNotes": "General prompt question to be used as a data management tool to verify that missing results are confirmed missing.", "label": "Skin Response Test Performed", "mappingInstructions": "This does not map directly to an SDTMIG variable. May be used to derive a value into the SDTM variable SRSTAT. If SRPERF = \"N\", the value of SRSTAT will be \"NOT DONE\". If SRPERF = \"Y\", SRSTAT should be null. A combination of SDTMIG variables (e.g., SRCAT and SRSCAT, SRTPT ) is used to indicate that multiple tests were not done. In this situation, the SDTMIG variable SRTESTCD would be populated as SRALL and an appropriate test name (SRTEST) provided. See SDTMIG Section 4.1.5.1.2.", "name": "SRPERF", "ordinal": "6", "prompt": "Skin Response Test Performed", "questionText": "Was a skin response test performed?", "simpleDatatype": "Char"}, {"_links": {"implements": {"href": "/mdr/cdash/1-0/classes/Findings/fields/--REASND", "title": "Reason Not Done", "type": "Class Variable"}, "parentDomain": {"href": "/mdr/cdashig/2-0/domains/SR", "title": "Skin Response Findings", "type": "CDASH Domain"}, "parentProduct": {"href": "/mdr/cdashig/2-0", "title": "Clinical Data Acquisition Standards Harmonization Implementation Guide for Human Clinical Trials Version 2.0", "type": "Implementation Guide"}, "rootItem": {"href": "/mdr/root/cdashig/domains/SR/fields/SRREASND", "title": "Version-agnostic anchor element for field SR.SRREASND", "type": "Root Data Element"}, "sdtmigDatasetMappingTargets": [{"href": "/mdr/sdtmig/3-2/datasets/SR/variables/SRREASND", "title": "Reason Not Done", "type": "SDTM Dataset Variable"}], "self": {"href": "/mdr/cdashig/2-0/domains/SR/fields/SRREASND", "title": "Skin Response Reason Not Done", "type": "Data Collection Field"}}, "completionInstructions": "Provide the reason why the test or examination was not done.", "core": "O", "definition": "An explanation of why the data are not available.", "implementationNotes": "The reason the data are not available may be chosen from a sponsor defined list (or example, broken equipment, subject refused, etc.) or entered as free text. When SRREASND is used, the SDTMIG variable SRSTAT should also be populated in the SDTM-based dataset.", "label": "Skin Response Reason Not Done", "mappingInstructions": "Maps directly to the SDTMIG variable listed in the column with the heading \"SDTMIG Target\".", "name": "SRREASND", "ordinal": "7", "prompt": "Reason Not Done", "questionText": "What was the reason the test was not done?", "simpleDatatype": "Char"}, {"_links": {"implements": {"href": "/mdr/cdash/1-0/classes/Findings/fields/--CAT", "title": "Category", "type": "Class Variable"}, "parentDomain": {"href": "/mdr/cdashig/2-0/domains/SR", "title": "Skin Response Findings", "type": "CDASH Domain"}, "parentProduct": {"href": "/mdr/cdashig/2-0", "title": "Clinical Data Acquisition Standards Harmonization Implementation Guide for Human Clinical Trials Version 2.0", "type": "Implementation Guide"}, "rootItem": {"href": "/mdr/root/cdashig/domains/SR/fields/SRCAT", "title": "Version-agnostic anchor element for field SR.SRCAT", "type": "Root Data Element"}, "sdtmigDatasetMappingTargets": [{"href": "/mdr/sdtmig/3-2/datasets/SR/variables/SRCAT", "title": "Category for Test", "type": "SDTM Dataset Variable"}], "self": {"href": "/mdr/cdashig/2-0/domains/SR/fields/SRCAT", "title": "Category for Skin Response Test", "type": "Data Collection Field"}}, "completionInstructions": "Record the skin response category, if not pre-printed on the CRF.", "core": "O", "definition": "A grouping of topic-variable values based on user defined characteristics.", "implementationNotes": "Sponsor-defined Controlled Terminology. This would most commonly be either a heading, or a pre-printed category value on the CRF and not a question to which the site would provide an answer. If a question is asked, the response would typically be a sponsor-defined codelist. If the form is laid out as a grid, then words such as \"Category\" can be included as the column header.", "label": "Category for Skin Response Test", "mappingInstructions": "Maps directly to the SDTMIG variable listed in the column with the heading \"SDTMIG Target\".", "name": "SRCAT", "ordinal": "8", "prompt": "[Skin Response Category]; NULL", "questionText": "What was the category of the skin response?", "simpleDatatype": "Char"}, {"_links": {"implements": {"href": "/mdr/cdash/1-0/classes/Findings/fields/--SCAT", "title": "Subcategory", "type": "Class Variable"}, "parentDomain": {"href": "/mdr/cdashig/2-0/domains/SR", "title": "Skin Response Findings", "type": "CDASH Domain"}, "parentProduct": {"href": "/mdr/cdashig/2-0", "title": "Clinical Data Acquisition Standards Harmonization Implementation Guide for Human Clinical Trials Version 2.0", "type": "Implementation Guide"}, "rootItem": {"href": "/mdr/root/cdashig/domains/SR/fields/SRSCAT", "title": "Version-agnostic anchor element for field SR.SRSCAT", "type": "Root Data Element"}, "sdtmigDatasetMappingTargets": [{"href": "/mdr/sdtmig/3-2/datasets/SR/variables/SRSCAT", "title": "Subcategory for Test", "type": "SDTM Dataset Variable"}], "self": {"href": "/mdr/cdashig/2-0/domains/SR/fields/SRSCAT", "title": "Subcategory for Skin Response Test", "type": "Data Collection Field"}}, "completionInstructions": "Record the skin response subcategory, if not pre-printed on the CRF.", "core": "O", "definition": "A sub-division of the SRCAT values based on user defined characteristics.", "implementationNotes": "Sponsor-defined Controlled Terminology. This would most commonly be either a heading, or a pre-printed category value on the CRF and not a question to which the site would provide an answer. If a question is asked, the response would typically be a sponsor-defined codelist. If the form is laid out as a grid, then words such as \"Subcategory\" can be included as the column header. SRSCAT can only be used if there is an SRCAT and it must be a subcategorization of SRCAT.", "label": "Subcategory for Skin Response Test", "mappingInstructions": "Maps directly to the SDTMIG variable listed in the column with the heading \"SDTMIG Target\".", "name": "SRSCAT", "ordinal": "8", "prompt": "[Skin Response Subcategory]; NULL", "questionText": "What was the subcategory of the skin response?", "simpleDatatype": "Char"}, {"_links": {"implements": {"href": "/mdr/cdash/1-0/classes/Identifiers/fields/--SPID", "title": "Sponsor-Defined Identifier", "type": "Class Variable"}, "parentDomain": {"href": "/mdr/cdashig/2-0/domains/SR", "title": "Skin Response Findings", "type": "CDASH Domain"}, "parentProduct": {"href": "/mdr/cdashig/2-0", "title": "Clinical Data Acquisition Standards Harmonization Implementation Guide for Human Clinical Trials Version 2.0", "type": "Implementation Guide"}, "rootItem": {"href": "/mdr/root/cdashig/domains/SR/fields/SRSPID", "title": "Version-agnostic anchor element for field SR.SRSPID", "type": "Root Data Element"}, "sdtmigDatasetMappingTargets": [{"href": "/mdr/sdtmig/3-2/datasets/SR/variables/SRSPID", "title": "Sponsor-Defined Identifier", "type": "SDTM Dataset Variable"}], "self": {"href": "/mdr/cdashig/2-0/domains/SR/fields/SRSPID", "title": "Skin Response Sponsor-Defined Identifier", "type": "Data Collection Field"}}, "completionInstructions": "If collected on the CRF, sponsor may insert instructions to ensure each record has a unique identifier.", "core": "O", "definition": "A sponsor-defined identifier which can be used for pre-printed or auto-generated numbers on the CRF.", "implementationNotes": "Since SPID is a sponsor-defined identifier, conformance to Question Text or Item Prompt is not applicable. Typically used as an identifier in a data query to communicate clearly to the site the specific record in question or to reconcile data. May be used to record pre-printed number (e.g. line number, record number) on the CRF. This field may be populated by the sponsor's data collection system.", "label": "Skin Response Sponsor-Defined Identifier", "mappingInstructions": "Maps directly to the SDTMIG variable listed in the column with the heading \"SDTMIG Target\". May be used to create RELREC to link this record with a record in another domain.", "name": "SRSPID", "ordinal": "9", "prompt": "[Line Number/SR Number]", "questionText": "What is the skin response identifier?", "simpleDatatype": "Char"}, {"_links": {"implements": {"href": "/mdr/cdash/1-0/classes/Findings/fields/--OBJ", "title": "Object of the Observation", "type": "Class Variable"}, "parentDomain": {"href": "/mdr/cdashig/2-0/domains/SR", "title": "Skin Response Findings", "type": "CDASH Domain"}, "parentProduct": {"href": "/mdr/cdashig/2-0", "title": "Clinical Data Acquisition Standards Harmonization Implementation Guide for Human Clinical Trials Version 2.0", "type": "Implementation Guide"}, "rootItem": {"href": "/mdr/root/cdashig/domains/SR/fields/SROBJ", "title": "Version-agnostic anchor element for field SR.SROBJ", "type": "Root Data Element"}, "sdtmigDatasetMappingTargets": [{"href": "/mdr/sdtmig/3-2/datasets/SR/variables/SROBJ", "title": "Object of the Observation", "type": "SDTM Dataset Variable"}], "self": {"href": "/mdr/cdashig/2-0/domains/SR/fields/SROBJ", "title": "Skin Response Object of the Observation", "type": "Data Collection Field"}}, "completionInstructions": "Record the name of the antigen administered to the skin to elicit the skin response.", "core": "HR", "definition": "A description of the object or focal point of the findings observation that is represented by SRTEST.", "implementationNotes": "N/A", "label": "Skin Response Object of the Observation", "mappingInstructions": "Maps directly to the SDTMIG variable listed in the column with the heading \"SDTMIG Target\".", "name": "SROBJ", "ordinal": "10", "prompt": "[Intervention] Performed", "questionText": "What intervention was performed to elicit the skin response?", "simpleDatatype": "Char"}, {"_links": {"implements": {"href": "/mdr/cdash/1-0/classes/Timing/fields/--RFTDAT", "title": "Date of the Reference Time Point", "type": "Class Variable"}, "parentDomain": {"href": "/mdr/cdashig/2-0/domains/SR", "title": "Skin Response Findings", "type": "CDASH Domain"}, "parentProduct": {"href": "/mdr/cdashig/2-0", "title": "Clinical Data Acquisition Standards Harmonization Implementation Guide for Human Clinical Trials Version 2.0", "type": "Implementation Guide"}, "rootItem": {"href": "/mdr/root/cdashig/domains/SR/fields/SRRFTDAT", "title": "Version-agnostic anchor element for field SR.SRRFTDAT", "type": "Root Data Element"}, "sdtmigDatasetMappingTargets": [{"href": "/mdr/sdtmig/3-2/datasets/SR/variables/SRRFTDTC", "title": "Date/Time of Reference Time Point", "type": "SDTM Dataset Variable"}], "self": {"href": "/mdr/cdashig/2-0/domains/SR/fields/SRRFTDAT", "title": "Skin Response Date of Reference Time Point", "type": "Data Collection Field"}}, "completionInstructions": "Record date of the test material administration using this format (DD-MON-YYYY).", "core": "R/C", "definition": "The date of the reference time point represented in an unambiguous date format (e.g., DD-MON-YYYY).", "implementationNotes": "A complete date is expected. If the date of administration is collected on a separate CRF (e.g., VISDAT), then it should not be collected on the Skin Response CRF.", "label": "Skin Response Date of Reference Time Point", "mappingInstructions": "This does not map directly to an SDTMIG variable. For the SDTM submission dataset, concatenate all collected CDASH DATE and TIME components and populate the SDTMIG variable SRRFTDTC in ISO 8601 format.", "name": "SRRFTDAT", "ordinal": "11", "prompt": "[Intervention] Administration Date", "questionText": "What was the date of the [intervention] performed to elicit the skin response?", "simpleDatatype": "Char"}, {"_links": {"implements": {"href": "/mdr/cdash/1-0/classes/Timing/fields/--RFTTIM", "title": "Time of the Reference Time Point", "type": "Class Variable"}, "parentDomain": {"href": "/mdr/cdashig/2-0/domains/SR", "title": "Skin Response Findings", "type": "CDASH Domain"}, "parentProduct": {"href": "/mdr/cdashig/2-0", "title": "Clinical Data Acquisition Standards Harmonization Implementation Guide for Human Clinical Trials Version 2.0", "type": "Implementation Guide"}, "rootItem": {"href": "/mdr/root/cdashig/domains/SR/fields/SRRFTTIM", "title": "Version-agnostic anchor element for field SR.SRRFTTIM", "type": "Root Data Element"}, "sdtmigDatasetMappingTargets": [{"href": "/mdr/sdtmig/3-2/datasets/SR/variables/SRRFTDTC", "title": "Date/Time of Reference Time Point", "type": "SDTM Dataset Variable"}], "self": {"href": "/mdr/cdashig/2-0/domains/SR/fields/SRRFTTIM", "title": "Skin Response Time of Reference Time Point", "type": "Data Collection Field"}}, "completionInstructions": "Record time of the test material administration using this format (hh:mm:ss).", "core": "R/C", "definition": "The time of the reference time point represented in an unambiguous time format (e.g., hh:mm:ss).", "implementationNotes": "Collect time if it is relevant for the analysis of the skin response. (For example multiple [intervention] administrations.) ADD extra note.", "label": "Skin Response Time of Reference Time Point", "mappingInstructions": "This does not map directly to an SDTMIG variable. For the SDTM submission dataset, concatenate all collected CDASH DATE and TIME components and populate the SDTMIG variable SRRFTDTC in ISO 8601 format.", "name": "SRRFTTIM", "ordinal": "12", "prompt": "[Intervention] Administration Time", "questionText": "What was the time of the [intervention] performed to elicit the skin response?", "simpleDatatype": "Char"}, {"_links": {"codelist": [{"href": "/mdr/root/ct/sdtmct/codelists/C74456", "title": "Version-agnostic anchor resource for codelist C74456", "type": "Root Value Domain"}], "implements": {"href": "/mdr/cdash/1-0/classes/Findings/fields/--LOC", "title": "Location", "type": "Class Variable"}, "parentDomain": {"href": "/mdr/cdashig/2-0/domains/SR", "title": "Skin Response Findings", "type": "CDASH Domain"}, "parentProduct": {"href": "/mdr/cdashig/2-0", "title": "Clinical Data Acquisition Standards Harmonization Implementation Guide for Human Clinical Trials Version 2.0", "type": "Implementation Guide"}, "rootItem": {"href": "/mdr/root/cdashig/domains/SR/fields/SRLOC", "title": "Version-agnostic anchor element for field SR.SRLOC", "type": "Root Data Element"}, "sdtmigDatasetMappingTargets": [{"href": "/mdr/sdtmig/3-2/datasets/SR/variables/SRLOC", "title": "Location used for Measurement", "type": "SDTM Dataset Variable"}], "self": {"href": "/mdr/cdashig/2-0/domains/SR/fields/SRLOC", "title": "Skin Response Location used for Measurement", "type": "Data Collection Field"}}, "completionInstructions": "Record or select location on body where measurement was performed, if not pre-printed on CRF.", "core": "O", "definition": "A description of the anatomical location of the subject relevant to the collection of skin response test.", "implementationNotes": "Collected or pre-printed when the sponsor needs to identify the specific anatomical location. Example: ARM for skin response. Sponsors may collect the data using a subset list of Controlled Terminology on the CRF. LAT, DIR, PORTOT are used to further describe the anatomical location.", "label": "Skin Response Location used for Measurement", "mappingInstructions": "Maps directly to the SDTMIG variable listed in the column with the heading \"SDTMIG Target\".", "name": "SRLOC", "ordinal": "13", "prompt": "Anatomical Location", "questionText": "What was the anatomical location of the skin response measurement?", "simpleDatatype": "Char"}, {"_links": {"codelist": [{"href": "/mdr/root/ct/sdtmct/codelists/C99073", "title": "Version-agnostic anchor resource for codelist C99073", "type": "Root Value Domain"}], "implements": {"href": "/mdr/cdash/1-0/classes/Findings/fields/--LAT", "title": "Laterality", "type": "Class Variable"}, "parentDomain": {"href": "/mdr/cdashig/2-0/domains/SR", "title": "Skin Response Findings", "type": "CDASH Domain"}, "parentProduct": {"href": "/mdr/cdashig/2-0", "title": "Clinical Data Acquisition Standards Harmonization Implementation Guide for Human Clinical Trials Version 2.0", "type": "Implementation Guide"}, "rootItem": {"href": "/mdr/root/cdashig/domains/SR/fields/SRLAT", "title": "Version-agnostic anchor element for field SR.SRLAT", "type": "Root Data Element"}, "sdtmigDatasetMappingTargets": [{"href": "/mdr/sdtmig/3-2/datasets/SR/variables/SRLAT", "title": "Laterality", "type": "SDTM Dataset Variable"}], "self": {"href": "/mdr/cdashig/2-0/domains/SR/fields/SRLAT", "title": "Skin Response Laterality", "type": "Data Collection Field"}}, "completionInstructions": "Record the side of the anatomical location where the test was performed.", "core": "O", "definition": "Qualifier for anatomical location further detailing the side of the body.", "implementationNotes": "May be pre-printed or collected when the sponsor needs to identify the specific side of the anatomical location. Sponsors may collect the data using a subset list of Controlled Terminology on the CRF.", "label": "Skin Response Laterality", "mappingInstructions": "Maps directly to the SDTMIG variable listed in the column with the heading \"SDTMIG Target\".", "name": "SRLAT", "ordinal": "14", "prompt": "Side", "questionText": "What was the side of the anatomical location of the skin response measurement?", "simpleDatatype": "Char"}, {"_links": {"codelist": [{"href": "/mdr/root/ct/sdtmct/codelists/C112023", "title": "Version-agnostic anchor resource for codelist C112023", "type": "Root Value Domain"}], "implements": {"href": "/mdr/cdash/1-0/classes/Findings/fields/--TEST", "title": "Name of Measurement, Test or Examination", "type": "Class Variable"}, "parentDomain": {"href": "/mdr/cdashig/2-0/domains/SR", "title": "Skin Response Findings", "type": "CDASH Domain"}, "parentProduct": {"href": "/mdr/cdashig/2-0", "title": "Clinical Data Acquisition Standards Harmonization Implementation Guide for Human Clinical Trials Version 2.0", "type": "Implementation Guide"}, "rootItem": {"href": "/mdr/root/cdashig/domains/SR/fields/SRTEST", "title": "Version-agnostic anchor element for field SR.SRTEST", "type": "Root Data Element"}, "sdtmigDatasetMappingTargets": [{"href": "/mdr/sdtmig/3-2/datasets/SR/variables/SRTESTCD", "title": "Skin Response Test or Exam Short Name", "type": "SDTM Dataset Variable"}, {"href": "/mdr/sdtmig/3-2/datasets/SR/variables/SRTEST", "title": "Skin Response Test or Examination Name", "type": "SDTM Dataset Variable"}], "self": {"href": "/mdr/cdashig/2-0/domains/SR/fields/SRTEST", "title": "Skin Response Test or Examination Name", "type": "Data Collection Field"}}, "completionInstructions": "Record the name of the skin response test if not pre-printed on the CRF. If collected on the CRF, the sponsor may provide additional instructions to ensure the data is entered as intended.", "core": "HR", "definition": "Descriptive name of the test or examination used to obtain the measurement or finding.", "implementationNotes": "Required to identify which test the result is for. It is recommended that the test names be pre-printed on the CRF rather than collected in a field that requires the site to enter text. If the form is laid out as a grid, then words such as Test can be included as the column header.", "label": "Skin Response Test or Examination Name", "mappingInstructions": "Maps directly to the SDTMIG variable listed in the column with the heading \"SDTMIG Target\". SRTESTCD may be determined from the value collected in SRTEST. The SDTMIG variables SRTESTCD and SRTEST are required in the SDTM submission datasets. Use appropriate CDISC Controlled Terminology for the test and test code.", "name": "SRTEST", "ordinal": "15", "prompt": "Skin Response Test Name", "questionText": "What was the skin response test name?", "simpleDatatype": "Char"}, {"_links": {"implements": {"href": "/mdr/cdash/1-0/classes/Timing/fields/--TPT", "title": "Planned Time Point Name", "type": "Class Variable"}, "parentDomain": {"href": "/mdr/cdashig/2-0/domains/SR", "title": "Skin Response Findings", "type": "CDASH Domain"}, "parentProduct": {"href": "/mdr/cdashig/2-0", "title": "Clinical Data Acquisition Standards Harmonization Implementation Guide for Human Clinical Trials Version 2.0", "type": "Implementation Guide"}, "rootItem": {"href": "/mdr/root/cdashig/domains/SR/fields/SRTPT", "title": "Version-agnostic anchor element for field SR.SRTPT", "type": "Root Data Element"}, "sdtmigDatasetMappingTargets": [{"href": "/mdr/sdtmig/3-2/datasets/SR/variables/SRTPT", "title": "Planned Time Point Name", "type": "SDTM Dataset Variable"}], "self": {"href": "/mdr/cdashig/2-0/domains/SR/fields/SRTPT", "title": "Skin Response Planned Time Point Name", "type": "Data Collection Field"}}, "completionInstructions": "Record the planned time point labels for skin response, if not pre-printed on the CRF.", "core": "R/C", "definition": "A text description of planned time point when measurements should be taken as defined in the protocol.", "implementationNotes": "Planned time point are needed to differentiate multiple sequential assessments. It is recommended that time points should be pre-printed on the CRF rather than collected in a field that requires the site to enter text. If the form is laid out as a grid, then words such as Planned Time Point can be included as the column header.", "label": "Skin Response Planned Time Point Name", "mappingInstructions": "Maps directly to the SDTMIG variable listed in the column with the heading \"SDTMIG Target\". See SDTMIG for additional information on representing time points. Time point anchors SRTPTREF (text description) and SRRFTDTC (date/time) may be needed, as well as SDTMIG variables SRTPTNUM, SRELTM.", "name": "SRTPT", "ordinal": "16", "prompt": "[Planned Time Point Name]", "questionText": "What was the planned time point for skin response measurement?", "simpleDatatype": "Char"}, {"_links": {"implements": {"href": "/mdr/cdash/1-0/classes/Timing/fields/--DAT", "title": "Date of Collection", "type": "Class Variable"}, "parentDomain": {"href": "/mdr/cdashig/2-0/domains/SR", "title": "Skin Response Findings", "type": "CDASH Domain"}, "parentProduct": {"href": "/mdr/cdashig/2-0", "title": "Clinical Data Acquisition Standards Harmonization Implementation Guide for Human Clinical Trials Version 2.0", "type": "Implementation Guide"}, "rootItem": {"href": "/mdr/root/cdashig/domains/SR/fields/SRDAT", "title": "Version-agnostic anchor element for field SR.SRDAT", "type": "Root Data Element"}, "sdtmigDatasetMappingTargets": [{"href": "/mdr/sdtmig/3-2/datasets/SR/variables/SRDTC", "title": "Date/Time of Collection", "type": "SDTM Dataset Variable"}], "self": {"href": "/mdr/cdashig/2-0/domains/SR/fields/SRDAT", "title": "Date of Skin Response Observation", "type": "Data Collection Field"}}, "completionInstructions": "Record date of measurements using this format (DD-MON-YYYY).", "core": "R/C", "definition": "The date of the measurements represented in an unambiguous date format (e.g., DD-MON-YYYY).", "implementationNotes": "The date of measurement can be determined from a collected date of the visit (VISDAT) and in such cases a separate measurement date field is not required.", "label": "Date of Skin Response Observation", "mappingInstructions": "This does not map directly to an SDTMIG variable. For the SDTM submission dataset, concatenate all collected CDASH DATE and TIME components and populate the SDTMIG variable SRDTC in ISO 8601 format.", "name": "SRDAT", "ordinal": "17", "prompt": "Date", "questionText": "What was the date of the skin response measurement?", "simpleDatatype": "Char"}, {"_links": {"implements": {"href": "/mdr/cdash/1-0/classes/Timing/fields/--TIM", "title": "Time of Collection", "type": "Class Variable"}, "parentDomain": {"href": "/mdr/cdashig/2-0/domains/SR", "title": "Skin Response Findings", "type": "CDASH Domain"}, "parentProduct": {"href": "/mdr/cdashig/2-0", "title": "Clinical Data Acquisition Standards Harmonization Implementation Guide for Human Clinical Trials Version 2.0", "type": "Implementation Guide"}, "rootItem": {"href": "/mdr/root/cdashig/domains/SR/fields/SRTIM", "title": "Version-agnostic anchor element for field SR.SRTIM", "type": "Root Data Element"}, "sdtmigDatasetMappingTargets": [{"href": "/mdr/sdtmig/3-2/datasets/SR/variables/SRDTC", "title": "Date/Time of Collection", "type": "SDTM Dataset Variable"}], "self": {"href": "/mdr/cdashig/2-0/domains/SR/fields/SRTIM", "title": "Time of Skin Response Observation", "type": "Data Collection Field"}}, "completionInstructions": "Record time of measurement (as complete as possible).", "core": "R/C", "definition": "The time of measurement represented in an unambiguous time format (e.g., hh:mm:ss).", "implementationNotes": "The time of measurement (if required) can be determined from a collected time of the visit (VISTIM) and in such cases a separate measurement date field is not required.", "label": "Time of Skin Response Observation", "mappingInstructions": "This does not map directly to an SDTMIG variable. For the SDTM submission dataset, concatenate all collected CDASH DATE and TIME components and populate the SDTMIG variable SRDTC in ISO 8601 format.", "name": "SRTIM", "ordinal": "18", "prompt": "Time", "questionText": "What was the time of the skin response measurement?", "simpleDatatype": "Char"}, {"_links": {"codelist": [{"href": "/mdr/root/ct/sdtmct/codelists/C99074", "title": "Version-agnostic anchor resource for codelist C99074", "type": "Root Value Domain"}], "implements": {"href": "/mdr/cdash/1-0/classes/Findings/fields/--DIR", "title": "Directionality", "type": "Class Variable"}, "parentDomain": {"href": "/mdr/cdashig/2-0/domains/SR", "title": "Skin Response Findings", "type": "CDASH Domain"}, "parentProduct": {"href": "/mdr/cdashig/2-0", "title": "Clinical Data Acquisition Standards Harmonization Implementation Guide for Human Clinical Trials Version 2.0", "type": "Implementation Guide"}, "rootItem": {"href": "/mdr/root/cdashig/domains/SR/fields/SRDIR", "title": "Version-agnostic anchor element for field SR.SRDIR", "type": "Root Data Element"}, "self": {"href": "/mdr/cdashig/2-0/domains/SR/fields/SRDIR", "title": "Skin Response Directionality", "type": "Data Collection Field"}}, "completionInstructions": "Record the directionality of the anatomical location where the test was performed.", "core": "O", "definition": "Qualifier further detailing the position of the anatomical location relative to the center of the body, organ, or specimen.", "implementationNotes": "May be pre-printed or collected when the sponsor needs to identify the directionality of the anatomical location. Sponsors may collect the data using a subset list of Controlled Terminology on the CRF.", "label": "Skin Response Directionality", "mappingInstructions": "Maps directly to the SDTMIG variable listed in the column with the heading \"SDTMIG Target\".", "name": "SRDIR", "ordinal": "19", "prompt": "Directionality", "questionText": "What was the directionality of the anatomical location of the skin response measurement?", "simpleDatatype": "Char"}, {"_links": {"codelist": [{"href": "/mdr/root/ct/sdtmct/codelists/C78735", "title": "Version-agnostic anchor resource for codelist C78735", "type": "Root Value Domain"}], "implements": {"href": "/mdr/cdash/1-0/classes/Findings/fields/--EVAL", "title": "Evaluator", "type": "Class Variable"}, "parentDomain": {"href": "/mdr/cdashig/2-0/domains/SR", "title": "Skin Response Findings", "type": "CDASH Domain"}, "parentProduct": {"href": "/mdr/cdashig/2-0", "title": "Clinical Data Acquisition Standards Harmonization Implementation Guide for Human Clinical Trials Version 2.0", "type": "Implementation Guide"}, "rootItem": {"href": "/mdr/root/cdashig/domains/SR/fields/SREVAL", "title": "Version-agnostic anchor element for field SR.SREVAL", "type": "Root Data Element"}, "sdtmigDatasetMappingTargets": [{"href": "/mdr/sdtmig/3-2/datasets/SR/variables/SREVAL", "title": "Evaluator", "type": "SDTM Dataset Variable"}], "self": {"href": "/mdr/cdashig/2-0/domains/SR/fields/SREVAL", "title": "Skin Response Evaluator", "type": "Data Collection Field"}}, "completionInstructions": "Select the role of the person who provided the evaluation (e.g., INVESTIGATOR, ADJUDICATION COMMITTEE, VENDOR).", "core": "O", "definition": "The role of the person who provided the evaluation.", "implementationNotes": "Used only for results that are subjective (e.g., assigned by a person or a group). May be a pre-printed, or collected. Sponsors may collect the data using a subset list of Controlled Terminology on the CRF.", "label": "Skin Response Evaluator", "mappingInstructions": "Maps directly to the SDTMIG variable listed in the column with the heading \"SDTMIG Target\".", "name": "SREVAL", "ordinal": "20", "prompt": "[Evaluator/Reporter]", "questionText": "Who was the evaluator?", "simpleDatatype": "Char"}, {"_links": {"codelist": [{"href": "/mdr/root/ct/sdtmct/codelists/C96777", "title": "Version-agnostic anchor resource for codelist C96777", "type": "Root Value Domain"}], "implements": {"href": "/mdr/cdash/1-0/classes/Findings/fields/--EVALID", "title": "Evaluator Identifier", "type": "Class Variable"}, "parentDomain": {"href": "/mdr/cdashig/2-0/domains/SR", "title": "Skin Response Findings", "type": "CDASH Domain"}, "parentProduct": {"href": "/mdr/cdashig/2-0", "title": "Clinical Data Acquisition Standards Harmonization Implementation Guide for Human Clinical Trials Version 2.0", "type": "Implementation Guide"}, "rootItem": {"href": "/mdr/root/cdashig/domains/SR/fields/SREVALID", "title": "Version-agnostic anchor element for field SR.SREVALID", "type": "Root Data Element"}, "self": {"href": "/mdr/cdashig/2-0/domains/SR/fields/SREVALID", "title": "Skin Response Evaluator Identifier", "type": "Data Collection Field"}}, "completionInstructions": "Record the unique identifier assigned to the person making the evaluation.", "core": "O", "definition": "Used to distinguish multiple evaluators with the same role recorded in SREVAL.", "implementationNotes": "If EVALID needs to be collected for each test on the horizontal record the CDASH variable [SRTESTCD]_ EVALID can be used.", "label": "Skin Response Evaluator Identifier", "mappingInstructions": "Maps directly to the SDTMIG variable listed in the column with the heading \"SDTMIG Target\".", "name": "SREVALID", "ordinal": "21", "prompt": "[Evaluator/Reporter] Identifier", "questionText": "What was the identifier of the evaluator providing the skin response information?", "simpleDatatype": "Char"}, {"_links": {"implements": {"href": "/mdr/cdash/1-0/classes/Findings/fields/--ORRES", "title": "Result of Finding in Original Unit", "type": "Class Variable"}, "parentDomain": {"href": "/mdr/cdashig/2-0/domains/SR", "title": "Skin Response Findings", "type": "CDASH Domain"}, "parentProduct": {"href": "/mdr/cdashig/2-0", "title": "Clinical Data Acquisition Standards Harmonization Implementation Guide for Human Clinical Trials Version 2.0", "type": "Implementation Guide"}, "rootItem": {"href": "/mdr/root/cdashig/domains/SR/fields/SRORRES", "title": "Version-agnostic anchor element for field SR.SRORRES", "type": "Root Data Element"}, "sdtmigDatasetMappingTargets": [{"href": "/mdr/sdtmig/3-2/datasets/SR/variables/SRORRES", "title": "Results or Findings in Original Units", "type": "SDTM Dataset Variable"}], "self": {"href": "/mdr/cdashig/2-0/domains/SR/fields/SRORRES", "title": "Skin Response Result", "type": "Data Collection Field"}}, "completionInstructions": "Record the skin response test result.", "core": "HR", "definition": "Result of the skin response test as originally received or collected.", "implementationNotes": "N/A", "label": "Skin Response Result", "mappingInstructions": "Maps directly to the SDTMIG variable listed in the column with the heading \"SDTMIG Target\".", "name": "SRORRES", "ordinal": "22", "prompt": "Result", "questionText": "What was the result of the skin response measurement?", "simpleDatatype": "Char"}, {"_links": {"codelist": [{"href": "/mdr/root/ct/sdtmct/codelists/C71620", "title": "Version-agnostic anchor resource for codelist C71620", "type": "Root Value Domain"}], "implements": {"href": "/mdr/cdash/1-0/classes/Findings/fields/--ORRESU", "title": "Original Unit", "type": "Class Variable"}, "parentDomain": {"href": "/mdr/cdashig/2-0/domains/SR", "title": "Skin Response Findings", "type": "CDASH Domain"}, "parentProduct": {"href": "/mdr/cdashig/2-0", "title": "Clinical Data Acquisition Standards Harmonization Implementation Guide for Human Clinical Trials Version 2.0", "type": "Implementation Guide"}, "rootItem": {"href": "/mdr/root/cdashig/domains/SR/fields/SRORRESU", "title": "Version-agnostic anchor element for field SR.SRORRESU", "type": "Root Data Element"}, "sdtmigDatasetMappingTargets": [{"href": "/mdr/sdtmig/3-2/datasets/SR/variables/SRORRESU", "title": "Original Units", "type": "SDTM Dataset Variable"}], "self": {"href": "/mdr/cdashig/2-0/domains/SR/fields/SRORRESU", "title": "Skin Response Result Unit", "type": "Data Collection Field"}}, "completionInstructions": "Record or select the unit of measure associated with the test, if not pre-printed on the CRF.", "core": "R/C", "definition": "The unit of the result as originally received or collected.", "implementationNotes": "Should be pre-printed on the CRF with the associated test when possible, rather than collected in a field that requires the site to enter text.", "label": "Skin Response Result Unit", "mappingInstructions": "Maps directly to the SDTMIG variable listed in the column with the heading \"SDTMIG Target\".", "name": "SRORRESU", "ordinal": "23", "prompt": "Unit", "questionText": "What was the unit of the skin response measurement?", "simpleDatatype": "Char"}, {"_links": {"codelist": [{"href": "/mdr/root/ct/sdtmct/codelists/C78736", "title": "Version-agnostic anchor resource for codelist C78736", "type": "Root Value Domain"}], "implements": {"href": "/mdr/cdash/1-0/classes/Findings/fields/--NRIND", "title": "Normal/Reference Range Indicator", "type": "Class Variable"}, "parentDomain": {"href": "/mdr/cdashig/2-0/domains/SR", "title": "Skin Response Findings", "type": "CDASH Domain"}, "parentProduct": {"href": "/mdr/cdashig/2-0", "title": "Clinical Data Acquisition Standards Harmonization Implementation Guide for Human Clinical Trials Version 2.0", "type": "Implementation Guide"}, "rootItem": {"href": "/mdr/root/cdashig/domains/SR/fields/SRNRIND", "title": "Version-agnostic anchor element for field SR.SRNRIND", "type": "Root Data Element"}, "self": {"href": "/mdr/cdashig/2-0/domains/SR/fields/SRNRIND", "title": "Skin Response Reference Range Indicator", "type": "Data Collection Field"}}, "completionInstructions": "Record where the test results were categorized within the respective reference range (e.g. HIGH, LOW, ABNORMAL).", "core": "O", "definition": "An indication or description about how the value compares to the normal range or reference range.", "implementationNotes": "The category of the value within the respective reference range. Ranges may be defined by SRORNRLO and SRORNRHI or other objective criteria. Reference Range Indicator may be included if not derived or determined programmatically after data collection. Should not be used to indicate clinical significance.", "label": "Skin Response Reference Range Indicator", "mappingInstructions": "Maps directly to the SDTMIG variable listed in the column with the heading \"SDTMIG Target\".", "name": "SRNRIND", "ordinal": "24", "prompt": "Comparison to [Reference/Expected/Normal] Range", "questionText": "How [did/do] the reported values compare within the [reference/normal/expected] range?", "simpleDatatype": "Char"}, {"_links": {"codelist": [{"href": "/mdr/root/ct/sdtmct/codelists/C66742", "title": "Version-agnostic anchor resource for codelist C66742", "type": "Root Value Domain"}], "implements": {"href": "/mdr/cdash/1-0/classes/Findings/fields/--CLSIG", "title": "Clinical Significance", "type": "Class Variable"}, "parentDomain": {"href": "/mdr/cdashig/2-0/domains/SR", "title": "Skin Response Findings", "type": "CDASH Domain"}, "parentProduct": {"href": "/mdr/cdashig/2-0", "title": "Clinical Data Acquisition Standards Harmonization Implementation Guide for Human Clinical Trials Version 2.0", "type": "Implementation Guide"}, "rootItem": {"href": "/mdr/root/cdashig/domains/SR/fields/SRCLSIG", "title": "Version-agnostic anchor element for field SR.SRCLSIG", "type": "Root Data Element"}, "sdtmigDatasetMappingTargets": [{"href": "/mdr/sdtmig/3-2/datasets/SUPPQUAL/variables/QVAL", "title": "Data Value", "type": "SDTM Dataset Variable"}], "self": {"href": "/mdr/cdashig/2-0/domains/SR/fields/SRCLSIG", "title": "Clinical Significance", "type": "Data Collection Field"}}, "completionInstructions": "Record whether the skin response result was clinically significant.", "core": "O", "definition": "An indication whether the skin response result was clinically significant.", "implementationNotes": "If this level of information is needed, it may be added to the CRF.", "label": "Clinical Significance", "mappingInstructions": "This does not map directly to an SDTMIG variable. This information could be submitted in a SUPPSR dataset as the value of SUPPSR.QVAL where SUPPSR.QNAM =\"SRCLSIG\" and SUPPSR.QLABEL=\"Clinically Significant\". Refer to the current SDTM and SDTMIG for instructions on placement of non-standard variables in SDTM domains.", "name": "SRCLSIG", "ordinal": "25", "prompt": "Clinically Significant", "questionText": "Was the result clinically significant?", "simpleDatatype": "Char"}], "label": "Skin Response Findings", "name": "SR", "ordinal": "24"}
